Gait Up - Physilog data export
Created on: YYYY-MM-DD hh:mm:ss
Total data points: 22091

Time [128 hz],Gyro [128 hz],,,Accel [128 hz],,,Baro [1 hz],,Event [128 hz],Quaternion [128 hz],,,,
Time,Gyro X,Gyro Y,Gyro Z,Accel X,Accel Y,Accel Z,Pressure,Temperature,Quat W,Quat X,Quat Y,Quat Z,
[s],[deg/s],[deg/s],[deg/s],[g],[g],[g],[mBar],[degree C],[],[],[],[],
0.00781,0.23600,-0.64204,0.51873,-0.11558,0.52033,0.82927,1023.139,25.7,0.95857,0.27707,0.06619,0.00010,
0.01563,0.23600,-0.00225,0.51873,-0.12675,0.51106,0.81861,,,0.95856,0.27708,0.06618,0.00013,
0.02344,0.40789,-0.10889,0.51873,-0.12529,0.52375,0.82733,,,0.95856,0.27711,0.06616,0.00016,
0.03125,0.13286,-0.17997,0.58884,-0.11752,0.51448,0.82539,,,0.95856,0.27712,0.06614,0.00020,
0.03906,0.20162,-0.67758,0.62389,-0.13209,0.52570,0.82539,,,0.95855,0.27714,0.06609,0.00023,
0.04688,0.30475,-0.25106,0.55378,-0.13501,0.53253,0.83460,,,0.95855,0.27716,0.06606,0.00026,
0.05469,0.30475,-0.35769,0.55378,-0.13112,0.51887,0.82684,,,0.95855,0.27718,0.06603,0.00028,
0.06250,0.16724,-0.14443,0.44862,-0.11461,0.51936,0.82394,,,0.95854,0.27720,0.06601,0.00031,
0.07031,0.16724,-0.42878,0.41357,-0.10101,0.52131,0.81279,,,0.95854,0.27721,0.06597,0.00033,
0.07813,0.27038,0.10438,0.41357,-0.14812,0.52863,0.83217,,,0.95854,0.27723,0.06597,0.00036,
0.08594,0.06411,-0.07334,0.34346,-0.13355,0.52863,0.83799,,,0.95854,0.27724,0.06596,0.00038,
0.09375,0.13286,0.21101,0.30841,-0.13986,0.53156,0.83508,,,0.95853,0.27725,0.06597,0.00040,
0.10156,0.16724,-0.53541,0.27336,-0.10684,0.51643,0.82006,,,0.95853,0.27726,0.06593,0.00041,
0.10938,0.02973,-0.42878,0.34346,-0.11510,0.51448,0.82006,,,0.95853,0.27726,0.06589,0.00042,
0.11719,0.27038,-0.42878,0.16820,-0.11218,0.52472,0.82781,,,0.95853,0.27728,0.06586,0.00042,
0.12500,0.16724,0.10438,0.30841,-0.11315,0.51692,0.82733,,,0.95853,0.27729,0.06586,0.00044,
0.13281,0.30475,0.21101,0.20325,-0.12286,0.51741,0.82006,,,0.95852,0.27731,0.06587,0.00046,
0.14063,0.23600,-0.00225,0.09809,-0.11170,0.51301,0.82054,,,0.95851,0.27733,0.06587,0.00047,
0.14844,0.16724,-0.07334,0.27336,-0.14229,0.52863,0.82684,,,0.95851,0.27734,0.06586,0.00048,
0.15625,0.13286,-0.00225,0.41357,-0.12869,0.52375,0.83460,,,0.95851,0.27735,0.06585,0.00051,
0.16406,0.13286,0.24655,0.09809,-0.13840,0.52570,0.83217,,,0.95851,0.27736,0.06587,0.00052,
0.17188,0.16724,-0.32215,0.20325,-0.11218,0.52180,0.82248,,,0.95850,0.27737,0.06584,0.00052,
0.17969,0.02973,-0.14443,0.20325,-0.11412,0.51497,0.81521,,,0.95850,0.27737,0.06583,0.00053,
0.18750,0.02973,-0.17997,0.27336,-0.11267,0.52424,0.82103,,,0.95850,0.27738,0.06581,0.00055,
0.19531,0.16724,0.13992,0.16820,-0.12772,0.52863,0.82975,,,0.95850,0.27739,0.06582,0.00056,
0.20313,0.20162,0.38872,-0.04213,-0.12772,0.52228,0.83411,,,0.95849,0.27740,0.06584,0.00057,
0.21094,0.09848,-0.14443,-0.00707,-0.11849,0.51204,0.82297,,,0.95849,0.27741,0.06583,0.00056,
0.21875,0.13286,-0.35769,0.20325,-0.11510,0.51936,0.82151,,,0.95849,0.27742,0.06581,0.00057,
0.22656,0.13286,-0.03780,-0.07718,-0.13306,0.51643,0.82297,,,0.95849,0.27743,0.06581,0.00056,
0.23438,0.27038,0.21101,-0.07718,-0.11121,0.52082,0.81618,,,0.95848,0.27744,0.06582,0.00056,
0.24219,0.33913,0.31764,0.02798,-0.11072,0.51936,0.82054,,,0.95848,0.27747,0.06584,0.00057,
0.25000,0.23600,0.03329,0.06303,-0.09956,0.51155,0.81182,,,0.95847,0.27748,0.06584,0.00057,
0.25781,0.27038,0.21101,0.13314,-0.14472,0.53546,0.84138,,,0.95847,0.27750,0.06585,0.00058,
0.26563,0.23600,0.35318,0.02798,-0.15297,0.53253,0.84138,,,0.95846,0.27752,0.06588,0.00059,
0.27344,0.09848,0.60198,0.06303,-0.14520,0.52814,0.83363,,,0.95846,0.27752,0.06591,0.00060,
0.28125,0.13286,-0.35769,0.13314,-0.10393,0.52424,0.82200,,,0.95845,0.27753,0.06589,0.00060,
0.28906,0.13286,-0.39323,0.27336,-0.11024,0.53156,0.82442,,,0.95845,0.27754,0.06586,0.00061,
0.29688,0.09848,-0.17997,0.16820,-0.12286,0.52570,0.82297,,,0.95845,0.27755,0.06584,0.00062,
0.30469,0.23600,0.42427,0.20325,-0.12821,0.52326,0.82733,,,0.95845,0.27757,0.06587,0.00064,
0.31250,0.27038,0.35318,0.16820,-0.12286,0.51887,0.82587,,,0.95844,0.27758,0.06589,0.00066,
0.32031,0.37351,0.13992,0.16820,-0.10878,0.52277,0.82539,,,0.95843,0.27761,0.06589,0.00067,
0.32813,0.13286,-0.07334,0.30841,-0.13258,0.51545,0.82781,,,0.95843,0.27762,0.06588,0.00069,
0.33594,0.30475,-0.00225,0.51873,-0.14375,0.53448,0.83605,,,0.95842,0.27764,0.06587,0.00072,
0.34375,0.13286,-0.14443,0.34346,-0.10635,0.51301,0.80698,,,0.95842,0.27765,0.06586,0.00074,
0.35156,0.27038,-0.49986,0.55378,-0.10150,0.52131,0.82636,,,0.95842,0.27767,0.06581,0.00077,
0.35938,0.13286,-0.25106,0.37852,-0.10393,0.51741,0.81667,,,0.95842,0.27768,0.06579,0.00079,
0.36719,0.23600,0.06883,0.37852,-0.14472,0.52228,0.83944,,,0.95841,0.27770,0.06579,0.00081,
0.37500,0.27038,0.13992,0.30841,-0.13938,0.52375,0.83605,,,0.95841,0.27772,0.06579,0.00083,
0.38281,0.09848,0.21101,0.23830,-0.13452,0.52228,0.83314,,,0.95840,0.27773,0.06580,0.00085,
0.39063,0.20162,-0.39323,0.20325,-0.11995,0.51838,0.82442,,,0.95840,0.27774,0.06577,0.00086,
0.39844,0.23600,-0.35769,0.23830,-0.12044,0.51838,0.82927,,,0.95840,0.27776,0.06574,0.00086,
0.40625,0.20162,-0.28660,0.27336,-0.12286,0.52863,0.82636,,,0.95840,0.27777,0.06572,0.00087,
0.41406,0.27038,0.10438,0.13314,-0.10927,0.52082,0.82927,,,0.95839,0.27779,0.06572,0.00088,
0.42188,0.30475,0.28209,-0.00707,-0.11704,0.52033,0.82103,,,0.95838,0.27781,0.06574,0.00089,
0.42969,0.30475,-0.00225,0.06303,-0.10781,0.52814,0.83120,,,0.95838,0.27783,0.06574,0.00089,
0.43750,0.13286,0.21101,0.13314,-0.13258,0.52814,0.82878,,,0.95837,0.27784,0.06575,0.00090,
0.44531,0.23600,0.38872,0.02798,-0.13501,0.52668,0.83023,,,0.95837,0.27785,0.06578,0.00091,
0.45313,0.37351,0.49535,-0.07718,-0.13889,0.53156,0.83750,,,0.95836,0.27788,0.06581,0.00091,
0.46094,0.13286,0.03329,-0.04213,-0.10587,0.51399,0.81667,,,0.95836,0.27789,0.06581,0.00091,
0.46875,0.09848,-0.17997,0.06303,-0.10830,0.51155,0.81424,,,0.95836,0.27789,0.06580,0.00091,
0.47656,0.13286,-0.32215,0.02798,-0.10684,0.52082,0.81376,,,0.95835,0.27790,0.06578,0.00091,
0.48438,0.27038,0.35318,0.06303,-0.12724,0.52765,0.83120,,,0.95835,0.27792,0.06580,0.00092,
0.49219,0.13286,0.56644,-0.04213,-0.12772,0.52277,0.82975,,,0.95834,0.27793,0.06584,0.00092,
0.50000,0.16724,-0.32215,-0.07718,-0.11801,0.52375,0.82733,,,0.95834,0.27794,0.06582,0.00091,
0.50781,0.06411,0.03329,0.02798,-0.12869,0.52863,0.82830,,,0.95834,0.27794,0.06582,0.00091,
0.51563,0.13286,0.10438,-0.00707,-0.13549,0.51497,0.82539,,,0.95834,0.27795,0.06583,0.00091,
0.52344,0.23600,0.31764,-0.18234,-0.11655,0.52131,0.81957,,,0.95833,0.27797,0.06585,0.00091,
0.53125,0.37351,0.17546,-0.11223,-0.10198,0.52033,0.82539,,,0.95832,0.27799,0.06586,0.00090,
0.53906,0.16724,0.35318,-0.25245,-0.10587,0.52228,0.82103,,,0.95832,0.27800,0.06589,0.00089,
0.54688,0.06411,0.56644,-0.25245,-0.14180,0.52570,0.83363,,,0.95831,0.27800,0.06593,0.00089,
0.55469,0.27038,0.38872,-0.18234,-0.13209,0.52082,0.83169,,,0.95831,0.27802,0.06596,0.00088,
0.56250,0.13286,0.35318,-0.00707,-0.13646,0.52472,0.83411,,,0.95830,0.27803,0.06599,0.00089,
0.57031,0.13286,-0.35769,0.13314,-0.10684,0.52668,0.82490,,,0.95830,0.27804,0.06596,0.00089,
0.57813,0.06411,-0.35769,0.13314,-0.11801,0.51741,0.82878,,,0.95830,0.27804,0.06593,0.00089,
0.58594,0.06411,-0.32215,-0.04213,-0.12869,0.53009,0.82733,,,0.95830,0.27805,0.06591,0.00088,
0.59375,0.20162,-0.07334,0.06303,-0.11558,0.52765,0.82442,,,0.95830,0.27806,0.06591,0.00088,
0.60156,0.16724,-0.14443,0.06303,-0.11218,0.52277,0.82781,,,0.95830,0.27807,0.06590,0.00088,
0.60938,0.13286,0.21101,0.02798,-0.12092,0.51838,0.82345,,,0.95829,0.27808,0.06591,0.00089,
0.61719,0.27038,-0.03780,-0.00707,-0.12772,0.53107,0.83169,,,0.95829,0.27810,0.06591,0.00088,
0.62500,0.23600,-0.00225,0.02798,-0.13015,0.52326,0.83314,,,0.95828,0.27811,0.06591,0.00088,
0.63281,0.09848,-0.00225,0.06303,-0.10684,0.51789,0.81909,,,0.95828,0.27812,0.06591,0.00089,
0.64063,-0.00465,-0.14443,-0.00707,-0.10781,0.51253,0.81812,,,0.95828,0.27812,0.06590,0.00089,
0.64844,0.09848,-0.32215,-0.04213,-0.11024,0.53058,0.82587,,,0.95828,0.27813,0.06588,0.00088,
0.65625,-0.03903,0.56644,-0.18234,-0.14229,0.53058,0.82490,,,0.95828,0.27812,0.06592,0.00088,
0.66406,0.20162,0.21101,-0.14729,-0.11364,0.52472,0.83363,,,0.95828,0.27814,0.06593,0.00087,
0.67188,0.02973,0.63753,-0.21739,-0.13646,0.52424,0.82927,,,0.95827,0.27814,0.06598,0.00087,
0.67969,-0.03903,-0.17997,-0.11223,-0.12384,0.52619,0.82054,,,0.95827,0.27813,0.06597,0.00086,
0.68750,0.16724,-0.35769,0.02798,-0.12529,0.53302,0.82636,,,0.95827,0.27814,0.06595,0.00085,
0.69531,0.06411,-0.39323,0.02798,-0.13598,0.52619,0.84138,,,0.95827,0.27815,0.06592,0.00084,
0.70313,0.02973,-0.25106,-0.07718,-0.10781,0.52472,0.81764,,,0.95827,0.27815,0.06591,0.00083,
0.71094,0.13286,0.17546,-0.18234,-0.12141,0.52375,0.82975,,,0.95827,0.27816,0.06592,0.00082,
0.71875,0.02973,-0.03780,-0.35761,-0.10927,0.52668,0.82587,,,0.95827,0.27816,0.06592,0.00080,
0.72656,0.06411,0.28209,-0.46277,-0.13938,0.52570,0.83847,,,0.95827,0.27816,0.06595,0.00078,
0.73438,0.06411,0.24655,-0.32255,-0.13938,0.52180,0.82878,,,0.95827,0.27816,0.06597,0.00076,
0.74219,-0.00465,0.35318,-0.07718,-0.14617,0.52570,0.83266,,,0.95826,0.27816,0.06600,0.00076,
0.75000,-0.03903,-0.46432,-0.00707,-0.11315,0.51789,0.81328,,,0.95827,0.27816,0.06597,0.00075,
0.75781,-0.17654,-0.49986,-0.00707,-0.11510,0.51448,0.81812,,,0.95827,0.27815,0.06594,0.00074,
0.76563,0.02973,-0.74867,0.02798,-0.10975,0.52180,0.83314,,,0.95827,0.27815,0.06589,0.00073,
0.77344,-0.03903,-0.21552,0.02798,-0.11655,0.51789,0.82684,,,0.95828,0.27815,0.06587,0.00073,
0.78125,-0.00465,0.28209,-0.25245,-0.12044,0.51155,0.82539,,,0.95828,0.27815,0.06590,0.00072,
0.78906,-0.03903,-0.25106,-0.14729,-0.13161,0.53253,0.82878,,,0.95828,0.27814,0.06588,0.00070,
0.79688,0.09848,-0.10889,-0.07718,-0.13840,0.52472,0.84089,,,0.95828,0.27815,0.06588,0.00069,
0.80469,0.02973,-0.32215,0.06303,-0.13646,0.52668,0.83266,,,0.95828,0.27815,0.06585,0.00069,
0.81250,0.09848,-0.46432,0.20325,-0.10538,0.52570,0.82733,,,0.95828,0.27816,0.06582,0.00070,
0.82031,0.13286,-0.28660,0.02798,-0.10733,0.52180,0.82200,,,0.95828,0.27817,0.06580,0.00069,
0.82813,0.06411,-0.32215,0.06303,-0.11364,0.51350,0.81667,,,0.95828,0.27817,0.06578,0.00069,
0.83594,0.20162,0.10438,0.27336,-0.13840,0.53107,0.83993,,,0.95827,0.27819,0.06578,0.00071,
0.84375,0.06411,-0.00225,0.16820,-0.13306,0.52814,0.83217,,,0.95827,0.27819,0.06578,0.00072,
0.85156,0.16724,0.10438,0.06303,-0.13015,0.51741,0.83702,,,0.95827,0.27820,0.06578,0.00073,
0.85938,0.09848,-0.60649,0.16820,-0.11558,0.51984,0.82636,,,0.95827,0.27821,0.06574,0.00072,
0.86719,0.09848,-0.39323,0.30841,-0.12286,0.52180,0.82054,,,0.95827,0.27822,0.06571,0.00074,
0.87500,0.13286,-0.25106,0.23830,-0.11412,0.52082,0.82733,,,0.95827,0.27823,0.06569,0.00075,
0.88281,0.16724,-0.03780,0.23830,-0.11849,0.51448,0.82442,,,0.95826,0.27824,0.06568,0.00076,
0.89063,0.27038,-0.07334,0.13314,-0.11024,0.52033,0.82781,,,0.95826,0.27826,0.06567,0.00077,
0.89844,0.09848,0.17546,-0.07718,-0.10587,0.51692,0.82587,,,0.95826,0.27826,0.06569,0.00076,
0.90625,0.13286,0.17546,-0.18234,-0.12092,0.52375,0.83217,,,0.95825,0.27827,0.06570,0.00076,
0.91406,0.09848,0.28209,-0.07718,-0.13063,0.52668,0.83023,,,0.95825,0.27828,0.06572,0.00076,
0.92188,0.37351,-0.28660,-0.11223,-0.10587,0.53253,0.82684,,,0.95824,0.27830,0.06570,0.00074,
0.92969,0.23600,0.28209,-0.21739,-0.11752,0.51838,0.82733,,,0.95824,0.27832,0.06573,0.00073,
0.93750,0.33913,-0.00225,0.06303,-0.11364,0.52375,0.83411,,,0.95823,0.27834,0.06572,0.00073,
0.94531,0.20162,0.38872,-0.00707,-0.12772,0.51838,0.83702,,,0.95823,0.27835,0.06575,0.00074,
0.95313,0.13286,0.56644,0.06303,-0.12724,0.52424,0.83120,,,0.95822,0.27836,0.06579,0.00075,
0.96094,0.23600,0.28209,-0.04213,-0.11461,0.51887,0.82539,,,0.95822,0.27838,0.06581,0.00076,
0.96875,0.16724,0.28209,-0.11223,-0.12724,0.52668,0.82684,,,0.95821,0.27839,0.06583,0.00075,
0.97656,0.06411,-0.03780,-0.00707,-0.11461,0.51984,0.83120,,,0.95821,0.27839,0.06582,0.00075,
0.98438,0.06411,0.28209,-0.04213,-0.12918,0.52326,0.83653,,,0.95821,0.27839,0.06584,0.00075,
0.99219,0.02973,0.49535,-0.21739,-0.11461,0.51155,0.81424,,,0.95820,0.27840,0.06588,0.00075,
1.00000,0.27038,0.24655,-0.25245,-0.10927,0.52326,0.82830,,,0.95820,0.27841,0.06590,0.00074,
1.00781,0.06411,0.42427,-0.21739,-0.11364,0.51594,0.82151,1023.206,25.7,0.95819,0.27841,0.06593,0.00073,
1.01563,0.30475,0.21101,-0.14729,-0.12675,0.52375,0.84186,,,0.95819,0.27843,0.06595,0.00072,
1.02344,0.09848,0.70861,-0.14729,-0.14277,0.53107,0.83023,,,0.95818,0.27844,0.06600,0.00073,
1.03125,0.13286,0.35318,-0.11223,-0.12966,0.52375,0.83411,,,0.95818,0.27845,0.06602,0.00072,
1.03906,0.06411,0.10438,-0.14729,-0.12092,0.52472,0.82006,,,0.95818,0.27845,0.06603,0.00072,
1.04688,0.06411,-0.14443,-0.07718,-0.11315,0.52131,0.83023,,,0.95818,0.27846,0.06602,0.00071,
1.05469,0.09848,0.13992,-0.07718,-0.13452,0.52033,0.82200,,,0.95817,0.27846,0.06604,0.00071,
1.06250,0.06411,0.28209,-0.14729,-0.11947,0.51497,0.82830,,,0.95817,0.27847,0.06606,0.00070,
1.07031,0.09848,0.35318,0.02798,-0.11607,0.51594,0.82151,,,0.95817,0.27847,0.06608,0.00071,
1.07813,0.16724,0.24655,0.09809,-0.14229,0.53204,0.83460,,,0.95816,0.27848,0.06609,0.00072,
1.08594,-0.00465,0.03329,0.02798,-0.12432,0.52570,0.82248,,,0.95816,0.27848,0.06609,0.00072,
1.09375,0.16724,0.03329,0.06303,-0.13840,0.52180,0.83750,,,0.95816,0.27849,0.06610,0.00073,
1.10156,0.20162,-0.35769,0.27336,-0.09470,0.51741,0.81667,,,0.95816,0.27851,0.06607,0.00074,
1.10938,0.13286,-0.21552,0.23830,-0.11024,0.51399,0.81812,,,0.95816,0.27852,0.06605,0.00075,
1.11719,0.16724,-0.39323,0.27336,-0.11024,0.52131,0.82394,,,0.95816,0.27853,0.06602,0.00076,
1.12500,0.33913,0.31764,0.30841,-0.13306,0.52863,0.83508,,,0.95815,0.27855,0.06603,0.00078,
1.13281,0.33913,0.06883,0.41357,-0.12918,0.52912,0.83314,,,0.95814,0.27858,0.06603,0.00081,
1.14063,0.06411,0.28209,0.48368,-0.13840,0.51301,0.81957,,,0.95814,0.27858,0.06604,0.00084,
1.14844,0.30475,-0.57095,0.51873,-0.12335,0.52521,0.82975,,,0.95814,0.27861,0.06599,0.00087,
1.15625,0.30475,-0.49986,0.79916,-0.13112,0.52814,0.82733,,,0.95813,0.27863,0.06594,0.00091,
1.16406,0.20162,-0.96193,0.86927,-0.11655,0.52033,0.83072,,,0.95813,0.27865,0.06586,0.00095,
1.17188,0.27038,-0.49986,0.86927,-0.11072,0.51692,0.82297,,,0.95813,0.27867,0.06582,0.00099,
1.17969,0.06411,-0.57095,0.86927,-0.10830,0.51838,0.81861,,,0.95813,0.27868,0.06576,0.00104,
1.18750,0.16724,-0.99747,0.86927,-0.10004,0.52228,0.82927,,,0.95813,0.27869,0.06568,0.00107,
1.19531,0.06411,-0.35769,0.90432,-0.13986,0.52472,0.83217,,,0.95813,0.27870,0.06564,0.00113,
1.20313,0.23600,-0.60649,0.76410,-0.12141,0.53204,0.83653,,,0.95813,0.27872,0.06559,0.00116,
1.21094,0.09848,-0.78421,0.83421,-0.11461,0.52033,0.82200,,,0.95813,0.27873,0.06552,0.00120,
1.21875,0.16724,-0.78421,0.62389,-0.11461,0.52765,0.82636,,,0.95813,0.27874,0.06545,0.00123,
1.22656,0.06411,-0.67758,0.79916,-0.11704,0.51643,0.82345,,,0.95813,0.27875,0.06540,0.00127,
1.23438,0.20162,-0.25106,0.72905,-0.12966,0.52570,0.83217,,,0.95813,0.27877,0.06537,0.00131,
1.24219,0.23600,-0.10889,0.62389,-0.12724,0.53253,0.83120,,,0.95813,0.27879,0.06535,0.00135,
1.25000,0.40789,-0.03780,0.58884,-0.12384,0.52277,0.83169,,,0.95812,0.27881,0.06533,0.00138,
1.25781,0.23600,-0.74867,0.62389,-0.11947,0.52765,0.83266,,,0.95812,0.27883,0.06527,0.00141,
1.26563,0.20162,-0.53541,0.58884,-0.13646,0.52570,0.83314,,,0.95812,0.27885,0.06523,0.00144,
1.27344,0.16724,-0.39323,0.48368,-0.13258,0.52375,0.83508,,,0.95811,0.27886,0.06519,0.00146,
1.28125,0.16724,-0.39323,0.48368,-0.10295,0.52228,0.82006,,,0.95811,0.27888,0.06516,0.00148,
1.28906,0.16724,-0.60649,0.41357,-0.10490,0.51936,0.82539,,,0.95811,0.27889,0.06511,0.00150,
1.29688,0.23600,-0.53541,0.34346,-0.11072,0.52570,0.82636,,,0.95811,0.27890,0.06507,0.00151,
1.30469,-0.03903,0.03329,0.16820,-0.12578,0.52180,0.82975,,,0.95811,0.27890,0.06507,0.00152,
1.31250,-0.00465,0.10438,0.20325,-0.13306,0.53058,0.83266,,,0.95811,0.27890,0.06507,0.00153,
1.32031,0.06411,0.31764,0.09809,-0.12821,0.52668,0.82830,,,0.95811,0.27891,0.06509,0.00155,
1.32813,-0.14216,-0.28660,0.06303,-0.10490,0.52424,0.82539,,,0.95811,0.27890,0.06507,0.00155,
1.33594,-0.07341,-0.00225,-0.07718,-0.12529,0.52863,0.82781,,,0.95811,0.27889,0.06507,0.00154,
1.34375,0.09848,-0.10889,0.09809,-0.12675,0.53107,0.82830,,,0.95811,0.27890,0.06506,0.00155,
1.35156,0.20162,0.35318,-0.04213,-0.11267,0.52863,0.82587,,,0.95811,0.27891,0.06508,0.00155,
1.35938,0.13286,0.10438,0.02798,-0.11121,0.50813,0.82151,,,0.95810,0.27892,0.06509,0.00155,
1.36719,0.23600,0.21101,0.13314,-0.13501,0.52424,0.82975,,,0.95810,0.27894,0.06510,0.00156,
1.37500,0.33913,0.13992,0.13314,-0.13695,0.53009,0.84526,,,0.95809,0.27896,0.06511,0.00157,
1.38281,0.27038,0.24655,0.09809,-0.13695,0.53448,0.84089,,,0.95809,0.27898,0.06512,0.00158,
1.39063,0.06411,-0.28660,-0.04213,-0.10198,0.50765,0.81618,,,0.95809,0.27898,0.06510,0.00157,
1.39844,0.27038,-0.32215,0.02798,-0.11121,0.51301,0.81812,,,0.95808,0.27900,0.06508,0.00157,
1.40625,0.23600,-0.28660,0.06303,-0.11898,0.51984,0.82539,,,0.95808,0.27902,0.06506,0.00157,
1.41406,0.20162,0.24655,0.09809,-0.11995,0.52033,0.82490,,,0.95807,0.27903,0.06508,0.00158,
1.42188,0.09848,0.21101,0.06303,-0.11121,0.51497,0.82394,,,0.95807,0.27904,0.06509,0.00158,
1.42969,0.30475,0.13992,0.09809,-0.12286,0.52228,0.82927,,,0.95806,0.27906,0.06510,0.00159,
1.43750,0.16724,-0.35769,0.23830,-0.11170,0.53107,0.83314,,,0.95806,0.27907,0.06507,0.00160,
1.44531,0.20162,-0.03780,0.13314,-0.12384,0.52375,0.83120,,,0.95806,0.27908,0.06506,0.00161,
1.45313,0.06411,-0.14443,0.20325,-0.13161,0.52277,0.83508,,,0.95806,0.27909,0.06505,0.00162,
1.46094,0.16724,-0.00225,0.09809,-0.10927,0.52375,0.82975,,,0.95805,0.27910,0.06505,0.00162,
1.46875,0.06411,-0.14443,0.13314,-0.10490,0.52131,0.82587,,,0.95805,0.27910,0.06504,0.00163,
1.47656,0.20162,-0.17997,0.20325,-0.10975,0.53058,0.82345,,,0.95805,0.27912,0.06502,0.00164,
1.48438,0.33913,0.35318,0.13314,-0.13549,0.52912,0.82830,,,0.95804,0.27914,0.06504,0.00165,
1.49219,0.09848,0.38872,0.06303,-0.12869,0.52375,0.83072,,,0.95804,0.27915,0.06507,0.00166,
1.50000,0.16724,-0.17997,0.06303,-0.11170,0.52521,0.82830,,,0.95804,0.27916,0.06505,0.00166,
1.50781,0.16724,-0.17997,0.30841,-0.11947,0.51594,0.81861,,,0.95803,0.27917,0.06504,0.00168,
1.51563,0.02973,-0.39323,0.27336,-0.10878,0.51301,0.81715,,,0.95804,0.27917,0.06501,0.00169,
1.52344,0.13286,0.42427,0.16820,-0.12966,0.52228,0.83169,,,0.95803,0.27918,0.06503,0.00171,
1.53125,0.16724,-0.10889,0.27336,-0.11849,0.52131,0.83072,,,0.95803,0.27920,0.06502,0.00172,
1.53906,0.06411,-0.14443,0.30841,-0.11510,0.52619,0.83169,,,0.95803,0.27920,0.06500,0.00174,
1.54688,0.02973,-0.21552,0.30841,-0.12481,0.53204,0.83653,,,0.95803,0.27921,0.06498,0.00176,
1.55469,0.13286,-0.00225,0.37852,-0.13598,0.52570,0.83702,,,0.95803,0.27922,0.06497,0.00178,
1.56250,0.20162,-0.10889,0.34346,-0.13112,0.52814,0.84380,,,0.95802,0.27923,0.06496,0.00180,
1.57031,0.16724,-0.46432,0.23830,-0.10004,0.51936,0.82636,,,0.95802,0.27924,0.06493,0.00181,
1.57813,0.13286,-0.14443,0.16820,-0.11072,0.51936,0.82636,,,0.95802,0.27925,0.06491,0.00181,
1.58594,0.06411,-0.21552,0.34346,-0.10538,0.52082,0.81812,,,0.95802,0.27926,0.06489,0.00183,
1.59375,0.27038,0.45981,0.20325,-0.14132,0.52765,0.83702,,,0.95801,0.27928,0.06492,0.00185,
1.60156,0.23600,0.45981,0.23830,-0.13403,0.52863,0.83363,,,0.95801,0.27929,0.06494,0.00188,
1.60938,0.27038,0.60198,0.13314,-0.12141,0.52375,0.83217,,,0.95800,0.27931,0.06498,0.00189,
1.61719,0.23600,-0.14443,0.20325,-0.12044,0.51594,0.82781,,,0.95799,0.27933,0.06497,0.00190,
1.62500,0.20162,0.10438,0.06303,-0.13306,0.52131,0.82684,,,0.95799,0.27934,0.06497,0.00191,
1.63281,0.27038,0.42427,0.02798,-0.12675,0.51643,0.82200,,,0.95798,0.27936,0.06500,0.00192,
1.64063,0.02973,0.35318,-0.00707,-0.11898,0.52082,0.81861,,,0.95798,0.27936,0.06502,0.00192,
1.64844,0.23600,0.10438,-0.07718,-0.10053,0.52033,0.83169,,,0.95798,0.27938,0.06503,0.00192,
1.65625,0.06411,0.38872,-0.00707,-0.13258,0.52521,0.83556,,,0.95797,0.27938,0.06506,0.00193,
1.66406,0.33913,0.56644,-0.18234,-0.13792,0.52863,0.84574,,,0.95796,0.27940,0.06510,0.00192,
1.67188,0.33913,0.77970,-0.28750,-0.14617,0.53204,0.84089,,,0.95795,0.27942,0.06516,0.00192,
1.67969,0.02973,0.28209,-0.35761,-0.11024,0.51789,0.81812,,,0.95795,0.27942,0.06518,0.00190,
1.68750,0.23600,0.03329,-0.28750,-0.11412,0.52716,0.82442,,,0.95795,0.27944,0.06519,0.00188,
1.69531,0.13286,0.24655,-0.14729,-0.11849,0.52521,0.82733,,,0.95794,0.27944,0.06521,0.00188,
1.70313,0.23600,0.53090,-0.28750,-0.11801,0.52570,0.83314,,,0.95794,0.27946,0.06525,0.00187,
1.71094,0.09848,0.74416,-0.18234,-0.12189,0.52326,0.82830,,,0.95793,0.27946,0.06530,0.00187,
1.71875,0.16724,0.49535,-0.04213,-0.11995,0.51789,0.82587,,,0.95793,0.27947,0.06533,0.00187,
1.72656,0.20162,0.31764,-0.07718,-0.12869,0.52912,0.83556,,,0.95792,0.27949,0.06535,0.00187,
1.73438,0.06411,0.06883,-0.00707,-0.13743,0.51789,0.82587,,,0.95792,0.27949,0.06536,0.00187,
1.74219,0.13286,0.35318,0.06303,-0.13501,0.52668,0.83799,,,0.95792,0.27950,0.06538,0.00188,
1.75000,0.06411,0.21101,-0.11223,-0.10781,0.52033,0.82006,,,0.95791,0.27950,0.06540,0.00188,
1.75781,0.16724,0.31764,-0.14729,-0.11364,0.51643,0.82248,,,0.95791,0.27951,0.06542,0.00188,
1.76563,0.09848,-0.10889,-0.07718,-0.09907,0.51301,0.82345,,,0.95791,0.27952,0.06542,0.00187,
1.77344,0.09848,0.60198,-0.11223,-0.13598,0.53156,0.83363,,,0.95790,0.27953,0.06546,0.00187,
1.78125,0.20162,0.56644,-0.14729,-0.13015,0.53107,0.83508,,,0.95790,0.27954,0.06550,0.00187,
1.78906,0.09848,-0.07334,-0.04213,-0.10878,0.51643,0.81812,,,0.95789,0.27954,0.06549,0.00187,
1.79688,0.02973,-0.32215,-0.00707,-0.11461,0.53009,0.82490,,,0.95790,0.27955,0.06547,0.00186,
1.80469,-0.00465,-0.00225,0.02798,-0.12821,0.52960,0.82781,,,0.95790,0.27955,0.06547,0.00186,
1.81250,0.20162,0.38872,-0.04213,-0.12238,0.52765,0.82878,,,0.95789,0.27956,0.06550,0.00187,
1.82031,0.13286,0.28209,-0.04213,-0.11849,0.52326,0.82830,,,0.95789,0.27957,0.06552,0.00187,
1.82813,0.13286,0.24655,-0.04213,-0.10684,0.51594,0.82006,,,0.95788,0.27958,0.06553,0.00187,
1.83594,0.09848,0.06883,-0.04213,-0.14083,0.53351,0.84186,,,0.95788,0.27958,0.06554,0.00187,
1.84375,0.13286,0.53090,-0.04213,-0.14666,0.52375,0.83799,,,0.95788,0.27959,0.06557,0.00188,
1.85156,0.06411,0.21101,-0.00707,-0.12772,0.52521,0.83605,,,0.95787,0.27959,0.06559,0.00188,
1.85938,0.09848,-0.14443,0.13314,-0.10587,0.52180,0.82442,,,0.95787,0.27960,0.06558,0.00188,
1.86719,0.09848,-0.21552,0.06303,-0.11704,0.51887,0.82781,,,0.95787,0.27961,0.06556,0.00188,
1.87500,0.16724,-0.21552,0.06303,-0.11072,0.52472,0.82297,,,0.95787,0.27962,0.06555,0.00188,
1.88281,0.20162,0.53090,-0.00707,-0.13355,0.52570,0.83266,,,0.95786,0.27963,0.06558,0.00189,
1.89063,0.20162,0.28209,-0.00707,-0.11849,0.52863,0.83314,,,0.95786,0.27965,0.06560,0.00190,
1.89844,0.13286,0.42427,-0.11223,-0.12335,0.52424,0.82830,,,0.95785,0.27965,0.06563,0.00190,
1.90625,0.02973,-0.00225,-0.07718,-0.12384,0.52424,0.83363,,,0.95785,0.27966,0.06563,0.00189,
1.91406,0.20162,0.24655,-0.11223,-0.12821,0.53204,0.83411,,,0.95785,0.27967,0.06565,0.00189,
1.92188,0.06411,0.17546,-0.04213,-0.10878,0.51643,0.82248,,,0.95785,0.27967,0.06566,0.00189,
1.92969,0.16724,0.13992,-0.14729,-0.10247,0.52228,0.81715,,,0.95784,0.27968,0.06567,0.00188,
1.93750,0.16724,0.28209,-0.14729,-0.10781,0.51936,0.81861,,,0.95784,0.27969,0.06569,0.00187,
1.94531,0.40789,0.56644,-0.28750,-0.13986,0.53497,0.83993,,,0.95783,0.27972,0.06574,0.00186,
1.95313,0.20162,0.99296,-0.42771,-0.13403,0.52228,0.83266,,,0.95782,0.27973,0.06581,0.00185,
1.96094,0.30475,0.60198,-0.32255,-0.12044,0.52570,0.83508,,,0.95781,0.27975,0.06585,0.00184,
1.96875,0.23600,0.53090,-0.32255,-0.12432,0.52180,0.82200,,,0.95780,0.27976,0.06590,0.00183,
1.97656,0.23600,0.38872,-0.35761,-0.11801,0.51545,0.82539,,,0.95780,0.27977,0.06593,0.00181,
1.98438,0.23600,0.45981,-0.32255,-0.12141,0.51984,0.82927,,,0.95779,0.27979,0.06596,0.00180,
1.99219,0.23600,0.81524,-0.32255,-0.12238,0.51692,0.82927,,,0.95778,0.27980,0.06602,0.00180,
2.00000,0.23600,0.60198,-0.39266,-0.11704,0.52521,0.82006,,,0.95778,0.27982,0.06607,0.00178,
2.00781,0.27038,0.77970,-0.60298,-0.11510,0.51936,0.83363,1023.200,25.7,0.95777,0.27983,0.06613,0.00175,
2.01563,0.13286,0.45981,-0.49782,-0.12918,0.52472,0.82878,,,0.95776,0.27984,0.06617,0.00173,
2.02344,0.40789,0.63753,-0.49782,-0.13889,0.53692,0.83460,,,0.95775,0.27986,0.06622,0.00171,
2.03125,0.13286,0.77970,-0.32255,-0.13938,0.52082,0.83169,,,0.95775,0.27987,0.06628,0.00170,
2.03906,0.13286,0.45981,-0.35761,-0.11704,0.51155,0.81909,,,0.95774,0.27988,0.06632,0.00169,
2.04688,0.16724,0.17546,-0.25245,-0.12141,0.52082,0.81861,,,0.95774,0.27989,0.06633,0.00167,
2.05469,0.20162,-0.07334,-0.04213,-0.11315,0.51838,0.81764,,,0.95773,0.27990,0.06633,0.00167,
2.06250,0.20162,0.77970,-0.11223,-0.13161,0.52375,0.82781,,,0.95773,0.27991,0.06638,0.00167,
2.07031,0.30475,0.60198,-0.14729,-0.12529,0.52131,0.82878,,,0.95772,0.27993,0.06643,0.00167,
2.07813,0.23600,0.06883,-0.00707,-0.12238,0.52424,0.82297,,,0.95771,0.27995,0.06643,0.00167,
2.08594,0.09848,0.03329,-0.04213,-0.12092,0.51643,0.82345,,,0.95771,0.27995,0.06643,0.00167,
2.09375,0.30475,0.13992,-0.00707,-0.13015,0.51936,0.82442,,,0.95770,0.27997,0.06644,0.00167,
2.10156,0.33913,0.56644,-0.00707,-0.11995,0.51936,0.82636,,,0.95770,0.27999,0.06648,0.00168,
2.10938,0.37351,0.24655,-0.00707,-0.11607,0.52326,0.83072,,,0.95769,0.28002,0.06650,0.00168,
2.11719,0.20162,0.28209,-0.00707,-0.11072,0.52082,0.82200,,,0.95768,0.28003,0.06651,0.00169,
2.12500,0.20162,0.21101,0.09809,-0.13938,0.52960,0.83944,,,0.95768,0.28005,0.06653,0.00170,
2.13281,0.23600,0.21101,0.09809,-0.14520,0.52912,0.83702,,,0.95767,0.28006,0.06654,0.00171,
2.14063,0.16724,0.35318,-0.07718,-0.13792,0.52814,0.83266,,,0.95767,0.28007,0.06656,0.00171,
2.14844,0.02973,-0.03780,-0.04213,-0.11558,0.51643,0.82442,,,0.95767,0.28007,0.06656,0.00170,
2.15625,0.06411,-0.25106,0.02798,-0.11218,0.52082,0.81812,,,0.95767,0.28008,0.06654,0.00170,
2.16406,0.13286,-0.28660,0.09809,-0.12044,0.52180,0.82781,,,0.95767,0.28009,0.06652,0.00170,
2.17188,0.16724,0.38872,0.02798,-0.12529,0.52570,0.82733,,,0.95766,0.28010,0.06655,0.00171,
2.17969,0.06411,0.21101,0.02798,-0.12335,0.52082,0.82442,,,0.95766,0.28010,0.06656,0.00171,
2.18750,0.16724,0.06883,0.02798,-0.11752,0.52180,0.83072,,,0.95765,0.28011,0.06657,0.00172,
2.19531,0.20162,-0.07334,0.09809,-0.13403,0.52277,0.83314,,,0.95765,0.28013,0.06656,0.00172,
2.20313,0.23600,0.13992,0.13314,-0.14277,0.52619,0.83702,,,0.95765,0.28014,0.06657,0.00173,
2.21094,0.27038,-0.03780,0.23830,-0.10733,0.52521,0.82442,,,0.95764,0.28016,0.06656,0.00174,
2.21875,0.13286,-0.28660,0.16820,-0.10733,0.53058,0.82587,,,0.95764,0.28017,0.06654,0.00175,
2.22656,0.23600,-0.10889,0.09809,-0.11801,0.51643,0.83266,,,0.95764,0.28019,0.06653,0.00175,
2.23438,0.20162,0.28209,0.02798,-0.13598,0.52180,0.83363,,,0.95763,0.28020,0.06655,0.00176,
2.24219,0.20162,0.24655,0.20325,-0.13986,0.52570,0.84138,,,0.95763,0.28021,0.06656,0.00178,
2.25000,0.16724,0.13992,0.13314,-0.12966,0.52863,0.83023,,,0.95762,0.28023,0.06656,0.00179,
2.25781,0.23600,-0.21552,0.20325,-0.12481,0.51887,0.82054,,,0.95762,0.28024,0.06655,0.00180,
2.26563,0.09848,-0.35769,0.09809,-0.12675,0.52619,0.82151,,,0.95762,0.28025,0.06652,0.00179,
2.27344,0.06411,-0.17997,0.20325,-0.12238,0.52424,0.83120,,,0.95762,0.28025,0.06651,0.00180,
2.28125,0.06411,0.31764,0.13314,-0.12384,0.51741,0.82103,,,0.95761,0.28026,0.06652,0.00182,
2.28906,0.09848,0.06883,0.20325,-0.11704,0.51692,0.81715,,,0.95761,0.28027,0.06652,0.00183,
2.29688,0.33913,-0.03780,0.27336,-0.11947,0.52228,0.83023,,,0.95761,0.28029,0.06652,0.00185,
2.30469,0.16724,-0.00225,0.30841,-0.14035,0.52863,0.83605,,,0.95760,0.28030,0.06651,0.00187,
2.31250,0.09848,0.03329,0.34346,-0.13840,0.52375,0.83411,,,0.95760,0.28031,0.06651,0.00189,
2.32031,0.20162,-0.00225,0.41357,-0.14083,0.52716,0.83896,,,0.95760,0.28032,0.06650,0.00192,
2.32813,0.16724,-0.46432,0.30841,-0.11218,0.51741,0.81618,,,0.95760,0.28034,0.06646,0.00193,
2.33594,0.16724,-0.42878,0.37852,-0.11752,0.52228,0.83266,,,0.95759,0.28035,0.06643,0.00194,
2.34375,0.13286,-0.53541,0.37852,-0.11558,0.51350,0.82394,,,0.95759,0.28036,0.06638,0.00196,
2.35156,0.27038,0.21101,0.23830,-0.12821,0.52668,0.84429,,,0.95759,0.28038,0.06639,0.00197,
2.35938,0.16724,0.24655,0.20325,-0.12529,0.52033,0.82684,,,0.95758,0.28039,0.06641,0.00199,
2.36719,0.23600,-0.39323,0.34346,-0.12092,0.52180,0.83169,,,0.95758,0.28041,0.06637,0.00201,
2.37500,0.09848,-0.03780,0.34346,-0.14666,0.51838,0.82490,,,0.95758,0.28042,0.06637,0.00203,
2.38281,0.09848,-0.28660,0.41357,-0.12821,0.52814,0.83023,,,0.95758,0.28042,0.06634,0.00205,
2.39063,0.13286,-0.00225,0.27336,-0.12092,0.52326,0.81861,,,0.95758,0.28043,0.06633,0.00207,
2.39844,0.23600,-0.28660,0.23830,-0.11607,0.51204,0.81473,,,0.95757,0.28045,0.06631,0.00207,
2.40625,0.13286,-0.32215,0.30841,-0.11704,0.51692,0.82636,,,0.95757,0.28046,0.06628,0.00209,
2.41406,0.20162,0.03329,0.34346,-0.14083,0.52424,0.83217,,,0.95757,0.28048,0.06628,0.00211,
2.42188,0.27038,-0.03780,0.34346,-0.13986,0.53204,0.83896,,,0.95756,0.28049,0.06627,0.00213,
2.42969,0.27038,0.06883,0.30841,-0.13403,0.53009,0.83702,,,0.95756,0.28051,0.06627,0.00215,
2.43750,0.06411,-0.60649,0.34346,-0.10684,0.51838,0.81473,,,0.95756,0.28052,0.06622,0.00216,
2.44531,0.13286,-0.57095,0.23830,-0.11752,0.51204,0.82200,,,0.95756,0.28053,0.06618,0.00216,
2.45313,0.16724,-0.10889,0.27336,-0.13112,0.51838,0.82975,,,0.95756,0.28054,0.06617,0.00218,
2.46094,0.20162,0.06883,0.30841,-0.11995,0.52716,0.83799,,,0.95755,0.28056,0.06617,0.00220,
2.46875,0.16724,-0.03780,0.20325,-0.12092,0.52326,0.82830,,,0.95755,0.28057,0.06616,0.00221,
2.47656,0.23600,0.13992,0.09809,-0.11849,0.51741,0.82684,,,0.95754,0.28058,0.06617,0.00222,
2.48438,0.23600,-0.03780,0.16820,-0.14617,0.52668,0.84138,,,0.95754,0.28060,0.06616,0.00223,
2.49219,0.06411,0.21101,0.02798,-0.13209,0.51838,0.83072,,,0.95754,0.28060,0.06618,0.00224,
2.50000,0.20162,-0.00225,0.09809,-0.12238,0.52033,0.83120,,,0.95753,0.28062,0.06617,0.00224,
2.50781,-0.00465,-0.07334,0.16820,-0.11218,0.51936,0.81715,,,0.95753,0.28062,0.06617,0.00225,
2.51563,0.02973,-0.57095,0.27336,-0.10927,0.52375,0.82636,,,0.95754,0.28062,0.06612,0.00226,
2.52344,0.16724,0.13992,0.20325,-0.13938,0.51789,0.82781,,,0.95753,0.28063,0.06613,0.00227,
2.53125,0.33913,0.17546,0.09809,-0.12384,0.52228,0.83217,,,0.95752,0.28066,0.06614,0.00228,
2.53906,0.27038,0.28209,0.16820,-0.13063,0.53156,0.82733,,,0.95752,0.28067,0.06615,0.00230,
2.54688,0.13286,-0.25106,0.20325,-0.12286,0.51692,0.81279,,,0.95752,0.28068,0.06613,0.00230,
2.55469,0.16724,-0.53541,0.23830,-0.11655,0.51984,0.82781,,,0.95752,0.28070,0.06609,0.00231,
2.56250,-0.07341,-0.07334,0.27336,-0.12966,0.52960,0.83653,,,0.95752,0.28069,0.06608,0.00232,
2.57031,-0.03903,0.13992,0.02798,-0.12966,0.51692,0.82490,,,0.95752,0.28069,0.06609,0.00233,
2.57813,0.02973,-0.21552,0.16820,-0.10538,0.51984,0.82539,,,0.95752,0.28069,0.06607,0.00234,
2.58594,0.13286,0.13992,0.02798,-0.11655,0.52668,0.82636,,,0.95751,0.28070,0.06608,0.00234,
2.59375,0.09848,-0.07334,0.06303,-0.13646,0.52716,0.84041,,,0.95751,0.28071,0.06608,0.00234,
2.60156,-0.17654,0.38872,0.02798,-0.13695,0.52472,0.82733,,,0.95751,0.28070,0.06610,0.00235,
2.60938,0.02973,0.17546,-0.07718,-0.12821,0.52570,0.83217,,,0.95751,0.28070,0.06611,0.00235,
2.61719,-0.07341,0.03329,0.06303,-0.12432,0.52570,0.82394,,,0.95751,0.28069,0.06612,0.00236,
2.62500,0.02973,-0.25106,0.06303,-0.11704,0.51350,0.82200,,,0.95752,0.28070,0.06610,0.00235,
2.63281,0.06411,-0.10889,-0.00707,-0.11510,0.51009,0.84913,,,0.95751,0.28070,0.06609,0.00235,
2.64063,0.30475,0.53090,0.09809,-0.13598,0.52619,0.83556,,,0.95751,0.28072,0.06612,0.00237,
2.64844,0.23600,0.06883,0.27336,-0.12141,0.52570,0.82587,,,0.95750,0.28074,0.06612,0.00239,
2.65625,0.16724,-0.32215,0.16820,-0.13403,0.51741,0.82442,,,0.95750,0.28075,0.06610,0.00239,
2.66406,0.06411,-0.10889,0.13314,-0.13403,0.51936,0.83169,,,0.95750,0.28075,0.06609,0.00240,
2.67188,0.02973,-0.00225,0.30841,-0.13889,0.53009,0.83702,,,0.95750,0.28076,0.06608,0.00242,
2.67969,0.02973,-0.35769,0.20325,-0.10830,0.52228,0.82297,,,0.95750,0.28076,0.06606,0.00242,
2.68750,-0.07341,-0.28660,0.27336,-0.11121,0.51497,0.81764,,,0.95750,0.28076,0.06603,0.00243,
2.69531,0.06411,-0.25106,0.16820,-0.11267,0.52228,0.82539,,,0.95750,0.28076,0.06601,0.00244,
2.70313,0.09848,0.17546,0.13314,-0.14083,0.52765,0.84235,,,0.95750,0.28077,0.06602,0.00245,
2.71094,0.09848,0.31764,0.09809,-0.13549,0.52472,0.83460,,,0.95750,0.28078,0.06604,0.00246,
2.71875,0.02973,0.45981,-0.00707,-0.12869,0.52472,0.83169,,,0.95749,0.28078,0.06607,0.00247,
2.72656,0.09848,-0.07334,0.02798,-0.13015,0.52960,0.82733,,,0.95749,0.28078,0.06607,0.00247,
2.73438,0.13286,-0.21552,0.20325,-0.12432,0.52912,0.83120,,,0.95749,0.28079,0.06605,0.00248,
2.74219,0.20162,-0.17997,0.13314,-0.12141,0.52619,0.83314,,,0.95749,0.28081,0.06603,0.00249,
2.75000,0.30475,0.17546,-0.00707,-0.11267,0.51545,0.82442,,,0.95748,0.28083,0.06604,0.00249,
2.75781,0.16724,-0.07334,0.06303,-0.11752,0.51692,0.82248,,,0.95748,0.28084,0.06604,0.00249,
2.76563,0.13286,-0.14443,0.23830,-0.11315,0.51887,0.81909,,,0.95748,0.28085,0.06602,0.00250,
2.77344,0.20162,-0.32215,0.30841,-0.13258,0.52765,0.83896,,,0.95747,0.28086,0.06600,0.00251,
2.78125,0.06411,0.17546,0.13314,-0.14375,0.52472,0.83556,,,0.95747,0.28087,0.06601,0.00253,
2.78906,0.13286,-0.28660,0.23830,-0.11315,0.51887,0.82394,,,0.95747,0.28088,0.06598,0.00254,
2.79688,0.02973,-0.53541,0.34346,-0.11024,0.52619,0.82248,,,0.95747,0.28088,0.06594,0.00255,
2.80469,0.06411,-0.49986,0.34346,-0.11315,0.51984,0.81715,,,0.95747,0.28089,0.06590,0.00256,
2.81250,0.20162,0.17546,0.30841,-0.13306,0.53204,0.84138,,,0.95747,0.28090,0.06591,0.00258,
2.82031,0.27038,0.31764,0.23830,-0.12966,0.52326,0.83556,,,0.95746,0.28092,0.06592,0.00260,
2.82813,0.16724,-0.07334,0.27336,-0.12432,0.52814,0.83847,,,0.95746,0.28093,0.06591,0.00262,
2.83594,0.02973,-0.35769,0.30841,-0.12384,0.52716,0.83169,,,0.95746,0.28094,0.06589,0.00263,
2.84375,0.13286,-0.28660,0.37852,-0.12821,0.53058,0.83411,,,0.95746,0.28095,0.06586,0.00265,
2.85156,0.30475,-0.03780,0.41357,-0.13986,0.52765,0.83508,,,0.95745,0.28097,0.06585,0.00268,
2.85938,0.23600,-0.07334,0.20325,-0.11024,0.51253,0.81473,,,0.95745,0.28098,0.06584,0.00269,
2.86719,0.23600,-0.42878,0.30841,-0.09470,0.52619,0.81861,,,0.95744,0.28100,0.06581,0.00270,
2.87500,0.16724,-0.14443,0.20325,-0.11510,0.52472,0.82733,,,0.95744,0.28101,0.06579,0.00271,
2.88281,0.16724,0.03329,0.16820,-0.13840,0.52472,0.83411,,,0.95744,0.28102,0.06579,0.00272,
2.89063,0.27038,-0.00225,0.37852,-0.13695,0.52716,0.83266,,,0.95743,0.28104,0.06578,0.00274,
2.89844,0.16724,0.06883,0.37852,-0.13161,0.52619,0.82781,,,0.95743,0.28106,0.06578,0.00277,
2.90625,-0.00465,-0.39323,0.34346,-0.12189,0.51448,0.81279,,,0.95743,0.28106,0.06575,0.00278,
2.91406,0.13286,-0.28660,0.30841,-0.12481,0.52668,0.82878,,,0.95743,0.28107,0.06573,0.00279,
2.92188,0.02973,0.17546,0.23830,-0.12966,0.52863,0.82490,,,0.95743,0.28107,0.06573,0.00281,
2.92969,0.09848,0.06883,0.30841,-0.12384,0.52033,0.83120,,,0.95743,0.28108,0.06573,0.00283,
2.93750,-0.00465,-0.14443,0.23830,-0.10684,0.51301,0.82054,,,0.95743,0.28108,0.06572,0.00285,
2.94531,-0.00465,0.06883,0.23830,-0.14180,0.52814,0.83653,,,0.95743,0.28108,0.06572,0.00286,
2.95313,0.02973,0.06883,0.30841,-0.13646,0.52424,0.83217,,,0.95743,0.28108,0.06572,0.00289,
2.96094,0.16724,-0.10889,0.20325,-0.14326,0.52814,0.84186,,,0.95742,0.28110,0.06570,0.00290,
2.96875,0.20162,-0.25106,0.13314,-0.10684,0.51887,0.81231,,,0.95742,0.28111,0.06569,0.00290,
2.97656,0.23600,-0.35769,0.02798,-0.10927,0.51838,0.82200,,,0.95742,0.28112,0.06566,0.00289,
2.98438,0.16724,-0.17997,0.13314,-0.11267,0.52570,0.82587,,,0.95742,0.28114,0.06565,0.00290,
2.99219,0.16724,0.13992,0.02798,-0.13063,0.52960,0.83120,,,0.95741,0.28115,0.06566,0.00290,
3.00000,0.23600,0.21101,0.20325,-0.12286,0.52472,0.82927,,,0.95741,0.28116,0.06567,0.00292,
3.00781,0.20162,0.56644,0.09809,-0.13063,0.52180,0.82781,1023.219,25.7,0.95740,0.28118,0.06570,0.00293,
3.01563,0.09848,-0.42878,0.09809,-0.12189,0.51887,0.83023,,,0.95740,0.28118,0.06567,0.00293,
3.02344,0.13286,-0.25106,0.16820,-0.12626,0.53058,0.83023,,,0.95740,0.28119,0.06565,0.00294,
3.03125,-0.07341,0.03329,0.13314,-0.13695,0.52033,0.82733,,,0.95740,0.28119,0.06565,0.00295,
3.03906,0.09848,0.13992,0.13314,-0.11267,0.52228,0.82394,,,0.95740,0.28120,0.06566,0.00296,
3.04688,-0.00465,0.03329,0.06303,-0.11995,0.52228,0.82200,,,0.95740,0.28120,0.06566,0.00296,
3.05469,-0.00465,-0.03780,0.06303,-0.10733,0.51936,0.82103,,,0.95740,0.28120,0.06566,0.00297,
3.06250,0.13286,0.31764,0.06303,-0.14229,0.53058,0.83944,,,0.95739,0.28121,0.06567,0.00298,
3.07031,0.23600,0.35318,0.06303,-0.13452,0.51936,0.83266,,,0.95739,0.28122,0.06570,0.00299,
3.07813,0.30475,-0.03780,0.20325,-0.12141,0.52033,0.82103,,,0.95738,0.28124,0.06569,0.00300,
3.08594,0.20162,-0.21552,0.06303,-0.10878,0.51887,0.82103,,,0.95738,0.28126,0.06568,0.00300,
3.09375,0.23600,-0.10889,0.16820,-0.11461,0.51838,0.82054,,,0.95737,0.28127,0.06566,0.00300,
3.10156,0.13286,0.42427,0.16820,-0.13743,0.52375,0.83120,,,0.95737,0.28128,0.06569,0.00302,
3.10938,0.33913,0.13992,0.13314,-0.12384,0.52668,0.83217,,,0.95736,0.28130,0.06570,0.00303,
3.11719,0.09848,0.24655,0.16820,-0.12286,0.52375,0.83072,,,0.95736,0.28131,0.06571,0.00305,
3.12500,0.09848,-0.21552,0.13314,-0.12626,0.52960,0.83169,,,0.95736,0.28132,0.06569,0.00305,
3.13281,0.20162,0.24655,0.09809,-0.14277,0.52912,0.83799,,,0.95735,0.28133,0.06571,0.00306,
3.14063,0.16724,-0.00225,-0.00707,-0.13501,0.52716,0.83605,,,0.95735,0.28134,0.06571,0.00306,
3.14844,0.13286,-0.07334,-0.04213,-0.11072,0.52277,0.83072,,,0.95735,0.28135,0.06570,0.00306,
3.15625,-0.00465,-0.07334,0.06303,-0.11267,0.51692,0.82297,,,0.95735,0.28135,0.06570,0.00306,
3.16406,0.06411,0.03329,0.02798,-0.11995,0.52131,0.81957,,,0.95735,0.28135,0.06570,0.00306,
3.17188,0.13286,0.45981,-0.00707,-0.14277,0.52180,0.83169,,,0.95734,0.28136,0.06573,0.00307,
3.17969,0.23600,0.28209,0.06303,-0.13063,0.52814,0.83847,,,0.95734,0.28138,0.06575,0.00308,
3.18750,0.37351,0.38872,0.09809,-0.13695,0.52863,0.83702,,,0.95733,0.28140,0.06577,0.00309,
3.19531,0.02973,-0.39323,0.09809,-0.10975,0.51643,0.82054,,,0.95733,0.28141,0.06574,0.00309,
3.20313,0.16724,-0.10889,0.16820,-0.13403,0.51106,0.81957,,,0.95733,0.28142,0.06573,0.00310,
3.21094,0.23600,0.17546,0.06303,-0.11752,0.51594,0.83363,,,0.95732,0.28143,0.06574,0.00310,
3.21875,0.13286,0.21101,0.09809,-0.12384,0.51936,0.82200,,,0.95732,0.28144,0.06575,0.00311,
3.22656,0.09848,-0.17997,0.06303,-0.10635,0.51643,0.82151,,,0.95732,0.28145,0.06574,0.00311,
3.23438,0.02973,-0.07334,0.20325,-0.13646,0.52570,0.83702,,,0.95732,0.28145,0.06573,0.00312,
3.24219,0.20162,0.10438,0.13314,-0.14763,0.52912,0.83799,,,0.95731,0.28147,0.06574,0.00313,
3.25000,0.06411,0.45981,0.09809,-0.13840,0.52180,0.83266,,,0.95731,0.28147,0.06576,0.00315,
3.25781,0.09848,-0.25106,0.13314,-0.11995,0.52033,0.82442,,,0.95731,0.28148,0.06575,0.00315,
3.26563,-0.00465,-0.32215,0.13314,-0.11752,0.51692,0.82394,,,0.95731,0.28148,0.06572,0.00315,
3.27344,0.13286,-0.25106,0.13314,-0.11704,0.52277,0.82878,,,0.95731,0.28149,0.06570,0.00316,
3.28125,0.06411,0.24655,0.06303,-0.12189,0.52424,0.82539,,,0.95731,0.28149,0.06572,0.00317,
3.28906,0.23600,0.42427,0.02798,-0.13063,0.52277,0.83363,,,0.95730,0.28151,0.06575,0.00318,
3.29688,0.20162,0.17546,0.02798,-0.12141,0.53204,0.82927,,,0.95729,0.28152,0.06576,0.00318,
3.30469,0.06411,-0.10889,0.09809,-0.12918,0.51741,0.82151,,,0.95729,0.28152,0.06575,0.00318,
3.31250,0.09848,-0.17997,-0.04213,-0.12869,0.53107,0.83072,,,0.95729,0.28153,0.06574,0.00318,
3.32031,0.16724,0.28209,0.13314,-0.14132,0.52668,0.83314,,,0.95729,0.28154,0.06575,0.00319,
3.32813,0.23600,0.06883,0.09809,-0.10975,0.51984,0.81909,,,0.95728,0.28156,0.06575,0.00320,
3.33594,0.09848,-0.35769,0.20325,-0.10878,0.51057,0.81861,,,0.95728,0.28157,0.06573,0.00320,
3.34375,0.16724,-0.35769,0.13314,-0.10878,0.52570,0.81715,,,0.95728,0.28158,0.06570,0.00320,
3.35156,0.20162,0.13992,0.23830,-0.14083,0.53253,0.83896,,,0.95728,0.28159,0.06571,0.00322,
3.35938,0.02973,0.45981,0.06303,-0.13743,0.52863,0.83363,,,0.95727,0.28159,0.06574,0.00323,
3.36719,0.09848,-0.53541,0.20325,-0.12092,0.52570,0.83411,,,0.95727,0.28160,0.06570,0.00324,
3.37500,0.09848,-0.21552,-0.04213,-0.12286,0.52375,0.82733,,,0.95727,0.28161,0.06568,0.00323,
3.38281,-0.10778,0.10438,-0.07718,-0.11995,0.51789,0.82151,,,0.95728,0.28160,0.06569,0.00323,
3.39063,0.16724,0.45981,-0.11223,-0.13258,0.52814,0.83266,,,0.95727,0.28161,0.06572,0.00323,
3.39844,0.20162,0.45981,0.02798,-0.13015,0.52765,0.82684,,,0.95726,0.28162,0.06575,0.00324,
3.40625,0.09848,-0.07334,0.13314,-0.11072,0.52277,0.83314,,,0.95726,0.28163,0.06575,0.00324,
3.41406,-0.07341,0.21101,0.06303,-0.13695,0.52765,0.83266,,,0.95726,0.28163,0.06576,0.00325,
3.42188,0.30475,-0.00225,0.02798,-0.14083,0.52716,0.84089,,,0.95726,0.28165,0.06576,0.00325,
3.42969,0.13286,0.21101,0.09809,-0.13938,0.53399,0.82927,,,0.95725,0.28166,0.06577,0.00326,
3.43750,0.02973,-0.10889,0.16820,-0.11315,0.52082,0.81812,,,0.95725,0.28166,0.06576,0.00327,
3.44531,0.16724,-0.35769,0.16820,-0.10830,0.51350,0.82103,,,0.95725,0.28167,0.06573,0.00328,
3.45313,0.16724,-0.25106,0.16820,-0.11947,0.51741,0.82587,,,0.95725,0.28168,0.06571,0.00328,
3.46094,0.16724,0.24655,0.20325,-0.12529,0.53156,0.83508,,,0.95725,0.28169,0.06573,0.00330,
3.46875,0.13286,0.21101,-0.00707,-0.12238,0.52668,0.83120,,,0.95724,0.28170,0.06574,0.00330,
3.47656,0.02973,0.28209,-0.00707,-0.12772,0.52082,0.83363,,,0.95724,0.28170,0.06576,0.00331,
3.48438,0.02973,-0.00225,0.09809,-0.13112,0.51692,0.82781,,,0.95724,0.28171,0.06576,0.00331,
3.49219,0.02973,0.03329,0.16820,-0.13112,0.52375,0.83605,,,0.95724,0.28171,0.06575,0.00332,
3.50000,-0.07341,0.10438,-0.04213,-0.11704,0.52033,0.82345,,,0.95724,0.28170,0.06576,0.00332,
3.50781,0.06411,0.21101,-0.04213,-0.11898,0.52180,0.83023,,,0.95724,0.28171,0.06578,0.00332,
3.51563,0.33913,0.06883,0.09809,-0.11267,0.52716,0.82539,,,0.95723,0.28173,0.06578,0.00333,
3.52344,0.13286,0.06883,0.06303,-0.12918,0.52326,0.83169,,,0.95723,0.28174,0.06578,0.00333,
3.53125,0.16724,0.21101,0.02798,-0.13355,0.52619,0.83460,,,0.95722,0.28175,0.06580,0.00334,
3.53906,0.27038,0.38872,0.06303,-0.13743,0.52912,0.83799,,,0.95722,0.28177,0.06582,0.00335,
3.54688,0.06411,-0.03780,0.02798,-0.11995,0.51497,0.81715,,,0.95722,0.28177,0.06582,0.00335,
3.55469,0.23600,-0.21552,-0.04213,-0.11315,0.51838,0.82006,,,0.95721,0.28179,0.06580,0.00334,
3.56250,0.06411,-0.03780,-0.18234,-0.11947,0.51497,0.82490,,,0.95721,0.28179,0.06581,0.00333,
3.57031,0.20162,0.38872,-0.11223,-0.13063,0.52570,0.83411,,,0.95721,0.28180,0.06583,0.00333,
3.57813,0.09848,0.45981,-0.07718,-0.12481,0.52180,0.82636,,,0.95720,0.28181,0.06586,0.00333,
3.58594,0.16724,0.38872,-0.14729,-0.11510,0.52570,0.82733,,,0.95720,0.28182,0.06589,0.00333,
3.59375,0.09848,0.42427,-0.28750,-0.12481,0.53351,0.83363,,,0.95719,0.28182,0.06593,0.00332,
3.60156,-0.07341,0.38872,-0.28750,-0.13743,0.52180,0.82927,,,0.95719,0.28182,0.06596,0.00331,
3.60938,0.23600,0.56644,-0.14729,-0.13258,0.51789,0.83508,,,0.95719,0.28183,0.06600,0.00331,
3.61719,0.20162,0.49535,-0.18234,-0.11218,0.52228,0.82539,,,0.95718,0.28184,0.06603,0.00330,
3.62500,0.09848,0.24655,-0.07718,-0.11995,0.51887,0.82442,,,0.95718,0.28185,0.06605,0.00330,
3.63281,0.16724,0.17546,-0.04213,-0.12335,0.51545,0.82587,,,0.95717,0.28186,0.06606,0.00330,
3.64063,0.23600,0.42427,-0.00707,-0.13743,0.52277,0.83266,,,0.95717,0.28188,0.06609,0.00331,
3.64844,0.30475,0.42427,0.02798,-0.13549,0.52716,0.83750,,,0.95716,0.28190,0.06612,0.00332,
3.65625,0.16724,-0.14443,0.20325,-0.12044,0.52033,0.82830,,,0.95716,0.28191,0.06610,0.00333,
3.66406,0.16724,-0.17997,0.16820,-0.12724,0.52033,0.82054,,,0.95715,0.28192,0.06609,0.00334,
3.67188,0.16724,-0.28660,0.23830,-0.12626,0.52668,0.82490,,,0.95715,0.28193,0.06607,0.00335,
3.67969,0.27038,0.13992,0.27336,-0.12189,0.52570,0.83314,,,0.95715,0.28195,0.06607,0.00336,
3.68750,0.20162,0.10438,-0.00707,-0.11752,0.52765,0.82394,,,0.95714,0.28196,0.06608,0.00337,
3.69531,0.13286,-0.07334,0.13314,-0.11849,0.51204,0.82539,,,0.95714,0.28197,0.06607,0.00337,
3.70313,0.09848,0.03329,0.30841,-0.13792,0.53399,0.83411,,,0.95714,0.28198,0.06607,0.00339,
3.71094,-0.00465,0.38872,0.06303,-0.14083,0.53448,0.83750,,,0.95713,0.28198,0.06609,0.00340,
3.71875,0.16724,0.17546,0.23830,-0.13015,0.52570,0.84186,,,0.95713,0.28199,0.06610,0.00342,
3.72656,0.06411,-0.00225,0.13314,-0.11655,0.51545,0.82200,,,0.95713,0.28200,0.06609,0.00343,
3.73438,0.20162,-0.07334,0.06303,-0.11801,0.51497,0.82975,,,0.95713,0.28201,0.06609,0.00343,
3.74219,0.20162,-0.03780,0.13314,-0.12238,0.52082,0.82587,,,0.95712,0.28203,0.06608,0.00344,
3.75000,0.23600,0.28209,0.16820,-0.12724,0.52424,0.82636,,,0.95712,0.28204,0.06610,0.00345,
3.75781,0.30475,0.35318,0.02798,-0.13209,0.52765,0.83217,,,0.95711,0.28206,0.06612,0.00346,
3.76563,0.20162,0.49535,0.13314,-0.12286,0.51399,0.82636,,,0.95710,0.28207,0.06615,0.00348,
3.77344,0.30475,-0.00225,0.16820,-0.13355,0.52570,0.83217,,,0.95710,0.28210,0.06615,0.00349,
3.78125,0.23600,0.06883,0.27336,-0.13695,0.52326,0.83266,,,0.95709,0.28211,0.06615,0.00351,
3.78906,0.23600,-0.03780,0.16820,-0.10441,0.53156,0.82006,,,0.95709,0.28213,0.06614,0.00352,
3.79688,0.33913,-0.00225,0.02798,-0.11170,0.51350,0.82006,,,0.95708,0.28215,0.06614,0.00352,
3.80469,0.20162,-0.00225,0.13314,-0.11121,0.51789,0.81667,,,0.95708,0.28216,0.06614,0.00352,
3.81250,0.27038,0.42427,0.06303,-0.14472,0.52619,0.83266,,,0.95707,0.28218,0.06616,0.00353,
3.82031,0.06411,0.38872,0.02798,-0.13063,0.52765,0.83556,,,0.95707,0.28219,0.06619,0.00354,
3.82813,0.23600,0.49535,-0.04213,-0.14083,0.52668,0.83605,,,0.95706,0.28220,0.06622,0.00355,
3.83594,0.09848,-0.10889,-0.00707,-0.11607,0.51643,0.81861,,,0.95706,0.28221,0.06622,0.00355,
3.84375,0.09848,-0.14443,0.02798,-0.12432,0.53009,0.82345,,,0.95706,0.28221,0.06621,0.00355,
3.85156,0.16724,-0.03780,-0.00707,-0.12481,0.52521,0.83556,,,0.95705,0.28223,0.06620,0.00354,
3.85938,0.20162,0.31764,-0.07718,-0.12238,0.51887,0.83411,,,0.95705,0.28224,0.06623,0.00354,
3.86719,0.16724,0.45981,-0.07718,-0.12432,0.51643,0.82781,,,0.95704,0.28225,0.06626,0.00355,
3.87500,0.30475,0.17546,-0.04213,-0.11267,0.52716,0.82394,,,0.95704,0.28227,0.06627,0.00355,
3.88281,0.20162,0.28209,-0.21739,-0.13355,0.51692,0.83266,,,0.95703,0.28228,0.06629,0.00354,
3.89063,0.20162,0.28209,-0.11223,-0.12675,0.52277,0.83266,,,0.95703,0.28229,0.06631,0.00353,
3.89844,0.13286,0.53090,-0.07718,-0.14375,0.52619,0.82830,,,0.95702,0.28230,0.06635,0.00354,
3.90625,0.30475,0.13992,-0.07718,-0.11704,0.51692,0.81521,,,0.95702,0.28232,0.06636,0.00353,
3.91406,0.16724,0.10438,-0.14729,-0.11024,0.51984,0.81957,,,0.95701,0.28233,0.06637,0.00353,
3.92188,0.40789,0.45981,-0.35761,-0.10733,0.51838,0.82733,,,0.95700,0.28236,0.06641,0.00351,
3.92969,0.44227,1.06405,-0.32255,-0.13646,0.52765,0.83266,,,0.95699,0.28238,0.06648,0.00351,
3.93750,0.33913,0.88633,-0.32255,-0.13452,0.52131,0.83023,,,0.95698,0.28240,0.06655,0.00350,
3.94531,0.54540,0.21101,-0.35761,-0.11558,0.53643,0.82297,,,0.95697,0.28244,0.06657,0.00348,
3.95313,0.20162,0.45981,-0.35761,-0.13743,0.52082,0.82151,,,0.95696,0.28245,0.06660,0.00346,
3.96094,0.40789,0.42427,-0.28750,-0.13598,0.52228,0.83120,,,0.95695,0.28247,0.06664,0.00345,
3.96875,0.40789,0.42427,-0.18234,-0.12092,0.52131,0.82345,,,0.95694,0.28250,0.06667,0.00345,
3.97656,0.30475,0.13992,0.02798,-0.11170,0.53302,0.81957,,,0.95694,0.28252,0.06668,0.00345,
3.98438,0.13286,-0.07334,0.13314,-0.11315,0.51301,0.81909,,,0.95693,0.28253,0.06667,0.00346,
3.99219,0.40789,0.28209,0.20325,-0.14277,0.52082,0.83799,,,0.95692,0.28256,0.06668,0.00347,
4.00000,0.44227,0.03329,0.27336,-0.13112,0.53009,0.83556,,,0.95692,0.28259,0.06668,0.00349,
4.00781,0.27038,0.31764,0.37852,-0.14957,0.52814,0.83556,1023.204,25.7,0.95691,0.28260,0.06670,0.00352,
4.01563,0.13286,-0.46432,0.23830,-0.11849,0.51545,0.82684,,,0.95691,0.28261,0.06666,0.00352,
4.02344,0.16724,-0.25106,0.30841,-0.12141,0.51594,0.81957,,,0.95691,0.28263,0.06664,0.00354,
4.03125,0.06411,-0.60649,0.34346,-0.11170,0.51887,0.81618,,,0.95691,0.28263,0.06659,0.00355,
4.03906,0.27038,0.42427,0.27336,-0.12966,0.52082,0.83508,,,0.95690,0.28265,0.06661,0.00357,
4.04688,0.13286,0.42427,0.09809,-0.12092,0.51838,0.81812,,,0.95690,0.28266,0.06664,0.00359,
4.05469,0.23600,-0.07334,0.16820,-0.11218,0.52570,0.81957,,,0.95689,0.28268,0.06663,0.00360,
4.06250,0.06411,0.17546,0.09809,-0.14715,0.52472,0.83556,,,0.95689,0.28268,0.06664,0.00361,
4.07031,0.20162,0.10438,0.09809,-0.13015,0.53009,0.83702,,,0.95688,0.28270,0.06665,0.00361,
4.07813,0.02973,0.21101,0.02798,-0.12578,0.52228,0.81715,,,0.95688,0.28270,0.06666,0.00362,
4.08594,0.27038,-0.25106,0.16820,-0.11412,0.52716,0.82975,,,0.95688,0.28272,0.06664,0.00362,
4.09375,0.20162,-0.07334,0.37852,-0.12238,0.51887,0.82636,,,0.95688,0.28273,0.06663,0.00365,
4.10156,0.20162,0.13992,0.23830,-0.13598,0.52180,0.82975,,,0.95687,0.28274,0.06663,0.00366,
4.10938,0.30475,0.28209,0.34346,-0.14715,0.53058,0.83702,,,0.95686,0.28277,0.06664,0.00369,
4.11719,0.30475,0.10438,0.34346,-0.13355,0.52814,0.83896,,,0.95686,0.28279,0.06665,0.00371,
4.12500,0.09848,-0.57095,0.37852,-0.11898,0.51789,0.82248,,,0.95686,0.28280,0.06660,0.00373,
4.13281,0.20162,-0.10889,0.41357,-0.13598,0.52814,0.82297,,,0.95685,0.28281,0.06659,0.00375,
4.14063,0.02973,-0.35769,0.34346,-0.12772,0.52863,0.83266,,,0.95686,0.28281,0.06656,0.00377,
4.14844,0.27038,0.24655,0.23830,-0.12626,0.51984,0.82539,,,0.95685,0.28283,0.06657,0.00379,
4.15625,0.27038,-0.17997,0.27336,-0.10975,0.52668,0.82684,,,0.95684,0.28285,0.06655,0.00380,
4.16406,0.16724,-0.28660,0.23830,-0.10490,0.52570,0.82200,,,0.95684,0.28286,0.06653,0.00381,
4.17188,0.09848,0.06883,0.30841,-0.15006,0.52570,0.83702,,,0.95684,0.28287,0.06653,0.00383,
4.17969,0.09848,0.17546,0.23830,-0.13792,0.52814,0.83508,,,0.95684,0.28288,0.06653,0.00385,
4.18750,0.27038,0.21101,0.16820,-0.13258,0.53546,0.83363,,,0.95683,0.28290,0.06654,0.00386,
4.19531,-0.03903,-0.35769,0.13314,-0.11704,0.51545,0.81424,,,0.95683,0.28290,0.06652,0.00386,
4.20313,0.13286,-0.25106,0.20325,-0.11704,0.51301,0.81909,,,0.95683,0.28291,0.06650,0.00387,
4.21094,0.13286,-0.32215,0.30841,-0.12821,0.52814,0.83120,,,0.95683,0.28292,0.06647,0.00388,
4.21875,0.09848,0.06883,0.37852,-0.13015,0.52375,0.82442,,,0.95683,0.28292,0.06647,0.00391,
4.22656,0.13286,0.13992,0.13314,-0.12286,0.51936,0.83023,,,0.95683,0.28293,0.06647,0.00392,
4.23438,0.13286,-0.28660,0.30841,-0.13452,0.52082,0.82927,,,0.95682,0.28294,0.06645,0.00393,
4.24219,0.20162,-0.39323,0.30841,-0.13258,0.52131,0.83508,,,0.95682,0.28296,0.06642,0.00395,
4.25000,0.02973,-0.10889,0.20325,-0.14763,0.52277,0.83605,,,0.95682,0.28296,0.06641,0.00396,
4.25781,0.13286,-0.21552,0.20325,-0.10878,0.52228,0.82830,,,0.95682,0.28297,0.06639,0.00397,
4.26563,0.09848,-0.03780,0.23830,-0.11364,0.51448,0.81521,,,0.95682,0.28298,0.06638,0.00398,
4.27344,0.13286,-0.46432,0.23830,-0.10490,0.52326,0.82151,,,0.95682,0.28299,0.06635,0.00399,
4.28125,0.02973,0.21101,0.13314,-0.13355,0.53009,0.84089,,,0.95682,0.28299,0.06636,0.00400,
4.28906,0.23600,0.28209,0.06303,-0.13743,0.52863,0.83750,,,0.95681,0.28301,0.06638,0.00401,
4.29688,0.06411,0.53090,0.02798,-0.13938,0.52521,0.82781,,,0.95681,0.28301,0.06641,0.00402,
4.30469,0.13286,-0.21552,0.13314,-0.11898,0.51789,0.82103,,,0.95681,0.28302,0.06639,0.00402,
4.31250,0.06411,-0.21552,0.09809,-0.11315,0.51545,0.81909,,,0.95680,0.28302,0.06638,0.00402,
4.32031,0.13286,-0.28660,0.09809,-0.13792,0.51545,0.82490,,,0.95680,0.28303,0.06636,0.00402,
4.32813,0.16724,0.17546,0.06303,-0.12092,0.52277,0.82830,,,0.95680,0.28304,0.06637,0.00403,
4.33594,0.20162,0.31764,0.06303,-0.11801,0.52228,0.82345,,,0.95679,0.28306,0.06639,0.00404,
4.34375,0.16724,0.03329,0.13314,-0.10684,0.51301,0.81812,,,0.95679,0.28307,0.06639,0.00405,
4.35156,0.30475,0.28209,0.16820,-0.15249,0.53302,0.83750,,,0.95678,0.28309,0.06640,0.00406,
4.35938,0.16724,0.35318,0.02798,-0.14277,0.52570,0.83314,,,0.95678,0.28310,0.06642,0.00407,
4.36719,0.27038,-0.00225,0.09809,-0.10878,0.52082,0.81812,,,0.95677,0.28312,0.06642,0.00408,
4.37500,0.16724,-0.25106,0.02798,-0.10878,0.52375,0.82151,,,0.95677,0.28313,0.06640,0.00407,
4.38281,0.09848,-0.17997,0.02798,-0.11315,0.51984,0.82345,,,0.95677,0.28314,0.06639,0.00407,
4.39063,0.16724,0.77970,-0.11223,-0.14229,0.52424,0.83363,,,0.95676,0.28315,0.06645,0.00408,
4.39844,0.20162,0.28209,0.02798,-0.12141,0.52326,0.83363,,,0.95676,0.28316,0.06646,0.00409,
4.40625,0.23600,0.49535,-0.07718,-0.13840,0.53302,0.83460,,,0.95675,0.28317,0.06650,0.00409,
4.41406,0.13286,-0.17997,-0.00707,-0.12335,0.52277,0.82442,,,0.95675,0.28318,0.06649,0.00408,
4.42188,0.27038,-0.10889,0.09809,-0.13452,0.52131,0.82490,,,0.95675,0.28320,0.06648,0.00409,
4.42969,0.13286,-0.21552,0.23830,-0.13549,0.52277,0.83411,,,0.95674,0.28321,0.06646,0.00410,
4.43750,0.27038,-0.17997,0.30841,-0.11315,0.53107,0.82490,,,0.95674,0.28323,0.06644,0.00411,
4.44531,0.13286,0.03329,0.16820,-0.12044,0.51692,0.82878,,,0.95674,0.28324,0.06644,0.00412,
4.45313,0.27038,-0.39323,0.27336,-0.11072,0.51594,0.81618,,,0.95673,0.28326,0.06641,0.00413,
4.46094,0.20162,0.03329,0.27336,-0.14423,0.52570,0.83460,,,0.95673,0.28327,0.06641,0.00415,
4.46875,0.27038,-0.10889,0.30841,-0.13889,0.52814,0.83993,,,0.95672,0.28329,0.06639,0.00417,
4.47656,0.23600,0.17546,0.30841,-0.14326,0.52326,0.83460,,,0.95672,0.28331,0.06640,0.00419,
4.48438,0.06411,-0.28660,0.23830,-0.11995,0.51789,0.82006,,,0.95672,0.28331,0.06637,0.00420,
4.49219,0.02973,-0.46432,0.20325,-0.12044,0.51741,0.82830,,,0.95672,0.28332,0.06634,0.00420,
4.50000,0.13286,0.24655,0.20325,-0.13161,0.52570,0.83411,,,0.95672,0.28333,0.06635,0.00422,
4.50781,0.02973,-0.00225,0.09809,-0.11218,0.52375,0.82587,,,0.95672,0.28333,0.06635,0.00423,
4.51563,0.13286,0.21101,0.09809,-0.12869,0.52228,0.83847,,,0.95671,0.28334,0.06636,0.00424,
4.52344,-0.03903,-0.10889,0.06303,-0.13161,0.52326,0.83508,,,0.95671,0.28333,0.06635,0.00424,
4.53125,0.13286,0.24655,0.06303,-0.13889,0.52765,0.83605,,,0.95671,0.28334,0.06637,0.00425,
4.53906,0.06411,0.06883,-0.00707,-0.13598,0.52521,0.83169,,,0.95671,0.28335,0.06637,0.00425,
4.54688,0.16724,0.03329,-0.00707,-0.11510,0.52033,0.83120,,,0.95670,0.28336,0.06638,0.00425,
4.55469,-0.00465,-0.21552,0.16820,-0.11267,0.52375,0.82878,,,0.95671,0.28336,0.06636,0.00425,
4.56250,-0.03903,-0.17997,0.16820,-0.11510,0.51692,0.81618,,,0.95671,0.28336,0.06634,0.00426,
4.57031,0.20162,0.21101,0.34346,-0.14180,0.53546,0.83847,,,0.95670,0.28337,0.06635,0.00429,
4.57813,0.02973,0.53090,0.16820,-0.14520,0.52668,0.82927,,,0.95670,0.28337,0.06638,0.00431,
4.58594,0.16724,0.17546,0.30841,-0.13452,0.52228,0.83314,,,0.95670,0.28339,0.06639,0.00433,
4.59375,0.06411,-0.39323,0.27336,-0.12189,0.52326,0.81909,,,0.95670,0.28339,0.06636,0.00434,
4.60156,0.02973,-0.42878,0.30841,-0.12821,0.52619,0.82345,,,0.95670,0.28340,0.06632,0.00435,
4.60938,-0.10778,-0.28660,0.09809,-0.12869,0.51789,0.82151,,,0.95670,0.28339,0.06630,0.00435,
4.61719,0.13286,0.10438,0.06303,-0.12335,0.52131,0.83363,,,0.95670,0.28340,0.06631,0.00436,
4.62500,0.02973,0.03329,0.09809,-0.11267,0.52277,0.82248,,,0.95670,0.28340,0.06631,0.00437,
4.63281,-0.00465,0.13992,0.06303,-0.11607,0.51545,0.82248,,,0.95670,0.28340,0.06632,0.00437,
4.64063,0.13286,0.06883,0.09809,-0.13695,0.53107,0.84186,,,0.95669,0.28341,0.06632,0.00438,
4.64844,0.13286,0.31764,0.06303,-0.14375,0.52863,0.83702,,,0.95669,0.28342,0.06634,0.00439,
4.65625,0.13286,-0.42878,0.16820,-0.10733,0.52228,0.81861,,,0.95669,0.28343,0.06631,0.00439,
4.66406,0.02973,-0.17997,0.06303,-0.12044,0.52424,0.82442,,,0.95669,0.28343,0.06629,0.00439,
4.67188,0.06411,-0.17997,0.13314,-0.12966,0.52082,0.82394,,,0.95669,0.28344,0.06628,0.00440,
4.67969,0.09848,0.42427,0.13314,-0.14035,0.53107,0.82587,,,0.95668,0.28344,0.06631,0.00441,
4.68750,0.23600,0.21101,0.16820,-0.13549,0.51741,0.84041,,,0.95668,0.28346,0.06632,0.00443,
4.69531,0.20162,0.49535,0.06303,-0.13063,0.52570,0.82927,,,0.95667,0.28347,0.06635,0.00444,
4.70313,0.16724,-0.10889,0.09809,-0.13840,0.52716,0.83363,,,0.95667,0.28348,0.06634,0.00444,
4.71094,0.06411,0.13992,0.16820,-0.13743,0.52619,0.82830,,,0.95667,0.28349,0.06634,0.00446,
4.71875,0.37351,0.10438,-0.04213,-0.13452,0.52521,0.83072,,,0.95666,0.28351,0.06635,0.00446,
4.72656,0.30475,0.03329,-0.04213,-0.10781,0.51692,0.81861,,,0.95665,0.28353,0.06636,0.00445,
4.73438,0.13286,-0.00225,-0.07718,-0.12286,0.52375,0.82151,,,0.95665,0.28354,0.06636,0.00445,
4.74219,0.13286,0.06883,-0.00707,-0.11558,0.51545,0.82297,,,0.95665,0.28355,0.06636,0.00445,
4.75000,0.30475,0.60198,-0.00707,-0.14763,0.52424,0.83072,,,0.95664,0.28357,0.06640,0.00446,
4.75781,0.37351,0.21101,0.20325,-0.12675,0.53448,0.84526,,,0.95663,0.28359,0.06641,0.00447,
4.76563,0.13286,0.56644,-0.00707,-0.14326,0.52668,0.83072,,,0.95663,0.28360,0.06645,0.00448,
4.77344,0.23600,-0.03780,0.02798,-0.12335,0.52033,0.82297,,,0.95662,0.28362,0.06644,0.00448,
4.78125,0.33913,-0.21552,-0.07718,-0.12384,0.52863,0.83169,,,0.95662,0.28364,0.06643,0.00447,
4.78906,0.06411,0.53090,-0.04213,-0.12626,0.52570,0.82975,,,0.95661,0.28364,0.06647,0.00448,
4.79688,0.09848,0.45981,-0.14729,-0.11364,0.51936,0.82587,,,0.95661,0.28365,0.06650,0.00448,
4.80469,0.27038,0.35318,0.02798,-0.12189,0.52472,0.81861,,,0.95660,0.28367,0.06652,0.00449,
4.81250,0.13286,0.31764,0.02798,-0.14909,0.52277,0.83266,,,0.95660,0.28367,0.06654,0.00449,
4.82031,0.27038,0.28209,-0.14729,-0.13403,0.52765,0.83556,,,0.95659,0.28369,0.06656,0.00449,
4.82813,0.33913,0.38872,-0.14729,-0.13646,0.52814,0.84186,,,0.95658,0.28371,0.06659,0.00448,
4.83594,0.13286,0.38872,-0.28750,-0.10684,0.51643,0.81764,,,0.95658,0.28372,0.06662,0.00447,
4.84375,0.09848,0.28209,-0.28750,-0.11898,0.51057,0.81764,,,0.95658,0.28372,0.06665,0.00446,
4.85156,0.13286,-0.03780,-0.14729,-0.10684,0.51545,0.81570,,,0.95657,0.28373,0.06665,0.00445,
4.85938,0.27038,0.81524,-0.07718,-0.14375,0.52765,0.83702,,,0.95657,0.28375,0.06670,0.00446,
4.86719,0.37351,0.70861,-0.11223,-0.13306,0.53107,0.83072,,,0.95655,0.28377,0.06675,0.00446,
4.87500,0.33913,0.74416,-0.14729,-0.12481,0.51984,0.83411,,,0.95654,0.28379,0.06680,0.00446,
4.88281,0.30475,0.13992,-0.11223,-0.12821,0.52960,0.83314,,,0.95654,0.28381,0.06681,0.00446,
4.89063,0.33913,0.24655,-0.14729,-0.13646,0.52619,0.83702,,,0.95653,0.28384,0.06683,0.00445,
4.89844,0.33913,0.35318,-0.14729,-0.14083,0.52716,0.82927,,,0.95652,0.28386,0.06686,0.00445,
4.90625,0.33913,0.45981,-0.21739,-0.11947,0.51838,0.81812,,,0.95651,0.28388,0.06689,0.00444,
4.91406,0.30475,0.28209,-0.11223,-0.10004,0.52131,0.81618,,,0.95651,0.28390,0.06691,0.00444,
4.92188,0.09848,0.35318,-0.18234,-0.10878,0.51936,0.81134,,,0.95650,0.28390,0.06694,0.00443,
4.92969,0.06411,1.09959,-0.07718,-0.16026,0.52277,0.83847,,,0.95650,0.28391,0.06701,0.00445,
4.93750,0.23600,0.31764,0.02798,-0.13986,0.52814,0.83072,,,0.95649,0.28392,0.06703,0.00445,
4.94531,0.09848,-0.10889,0.20325,-0.12384,0.52375,0.81957,,,0.95649,0.28393,0.06702,0.00447,
4.95313,0.09848,-0.00225,0.06303,-0.12432,0.53009,0.82297,,,0.95649,0.28394,0.06702,0.00447,
4.96094,0.13286,0.03329,0.02798,-0.13112,0.51350,0.82636,,,0.95649,0.28394,0.06702,0.00447,
4.96875,0.37351,0.35318,-0.00707,-0.14277,0.52472,0.83314,,,0.95648,0.28397,0.06705,0.00448,
4.97656,0.37351,0.35318,0.09809,-0.13646,0.53595,0.83702,,,0.95647,0.28399,0.06707,0.00449,
4.98438,0.20162,0.42427,0.16820,-0.12529,0.52033,0.82103,,,0.95646,0.28401,0.06709,0.00451,
4.99219,0.23600,0.28209,0.20325,-0.14180,0.52424,0.83363,,,0.95646,0.28402,0.06711,0.00452,
5.00000,0.51102,-0.10889,0.27336,-0.13355,0.52960,0.83120,,,0.95645,0.28406,0.06710,0.00454,
5.00781,0.30475,-0.00225,0.20325,-0.13743,0.53058,0.82733,1023.228,25.8,0.95644,0.28408,0.06709,0.00455,
5.01563,0.27038,-0.07334,0.13314,-0.10684,0.52033,0.82442,,,0.95644,0.28410,0.06708,0.00455,
5.02344,0.44227,-0.00225,0.27336,-0.12384,0.51936,0.81618,,,0.95643,0.28413,0.06708,0.00457,
5.03125,0.33913,-0.42878,0.27336,-0.11267,0.52375,0.82490,,,0.95642,0.28415,0.06705,0.00458,
5.03906,0.30475,0.28209,0.30841,-0.14326,0.52668,0.83363,,,0.95641,0.28417,0.06706,0.00460,
5.04688,0.30475,0.13992,0.34346,-0.13549,0.52912,0.83460,,,0.95641,0.28419,0.06706,0.00463,
5.05469,0.44227,0.28209,0.55378,-0.13889,0.52375,0.83411,,,0.95640,0.28422,0.06707,0.00467,
5.06250,0.20162,-0.53541,0.41357,-0.12821,0.52180,0.82490,,,0.95640,0.28424,0.06703,0.00468,
5.07031,0.37351,-0.46432,0.55378,-0.13306,0.52716,0.83556,,,0.95639,0.28427,0.06698,0.00471,
5.07813,0.33913,0.03329,0.55378,-0.12432,0.51838,0.82733,,,0.95638,0.28429,0.06698,0.00474,
5.08594,0.33913,-0.28660,0.34346,-0.11364,0.53253,0.82781,,,0.95638,0.28431,0.06695,0.00476,
5.09375,0.27038,0.06883,0.34346,-0.11510,0.52082,0.82684,,,0.95637,0.28433,0.06695,0.00478,
5.10156,0.23600,0.13992,0.16820,-0.14035,0.52375,0.83023,,,0.95637,0.28435,0.06696,0.00479,
5.10938,0.37351,-0.03780,0.30841,-0.13695,0.53156,0.83653,,,0.95636,0.28438,0.06695,0.00481,
5.11719,0.27038,0.24655,0.16820,-0.15297,0.53253,0.83750,,,0.95635,0.28439,0.06696,0.00482,
5.12500,0.23600,-0.28660,0.06303,-0.11072,0.51106,0.81521,,,0.95635,0.28441,0.06694,0.00482,
5.13281,0.30475,-0.57095,0.37852,-0.10781,0.51545,0.81764,,,0.95635,0.28443,0.06690,0.00483,
5.14063,0.09848,-0.71312,0.37852,-0.11510,0.51594,0.81618,,,0.95635,0.28444,0.06684,0.00484,
5.14844,0.13286,0.42427,0.20325,-0.13743,0.51692,0.83217,,,0.95634,0.28445,0.06687,0.00487,
5.15625,0.20162,0.13992,0.20325,-0.12384,0.51594,0.82200,,,0.95634,0.28446,0.06687,0.00488,
5.16406,0.27038,0.03329,0.37852,-0.12529,0.52765,0.82927,,,0.95633,0.28448,0.06687,0.00490,
5.17188,0.06411,-0.32215,0.27336,-0.13452,0.52570,0.82733,,,0.95633,0.28449,0.06684,0.00492,
5.17969,0.20162,-0.28660,0.27336,-0.14083,0.52960,0.83023,,,0.95633,0.28450,0.06682,0.00493,
5.18750,0.23600,-0.07334,0.27336,-0.14180,0.52863,0.83460,,,0.95633,0.28452,0.06681,0.00494,
5.19531,0.23600,-0.46432,0.30841,-0.11412,0.52960,0.81909,,,0.95632,0.28454,0.06677,0.00495,
5.20313,0.09848,-0.32215,0.16820,-0.11510,0.52033,0.82636,,,0.95632,0.28454,0.06674,0.00496,
5.21094,0.02973,-0.07334,0.09809,-0.11752,0.51741,0.81521,,,0.95632,0.28455,0.06674,0.00496,
5.21875,0.20162,0.28209,0.09809,-0.14860,0.53448,0.83605,,,0.95632,0.28456,0.06675,0.00497,
5.22656,0.06411,0.10438,-0.00707,-0.13889,0.52814,0.83702,,,0.95632,0.28456,0.06676,0.00497,
5.23438,0.06411,-0.32215,0.02798,-0.12432,0.52472,0.82539,,,0.95632,0.28457,0.06674,0.00497,
5.24219,0.20162,-0.35769,0.09809,-0.12286,0.52424,0.82151,,,0.95631,0.28458,0.06672,0.00497,
5.25000,-0.00465,-0.17997,0.13314,-0.12481,0.52960,0.82103,,,0.95632,0.28458,0.06670,0.00497,
5.25781,0.02973,0.28209,0.09809,-0.13355,0.52619,0.82539,,,0.95631,0.28458,0.06672,0.00498,
5.26563,0.06411,0.03329,0.13314,-0.11801,0.52326,0.82927,,,0.95631,0.28459,0.06672,0.00499,
5.27344,-0.00465,-0.00225,0.02798,-0.11947,0.52326,0.82636,,,0.95631,0.28459,0.06672,0.00500,
5.28125,0.06411,-0.00225,0.02798,-0.14957,0.52375,0.83556,,,0.95631,0.28459,0.06672,0.00500,
5.28906,0.13286,-0.10889,0.13314,-0.14326,0.52668,0.83896,,,0.95631,0.28460,0.06671,0.00500,
5.29688,0.06411,0.13992,-0.00707,-0.14035,0.53107,0.83653,,,0.95631,0.28461,0.06672,0.00500,
5.30469,0.06411,-0.53541,0.06303,-0.12481,0.54131,0.82733,,,0.95631,0.28461,0.06668,0.00500,
5.31250,-0.93286,-0.28660,-0.21739,-0.11801,0.50374,0.83072,,,0.95633,0.28455,0.06666,0.00498,
5.32031,-0.58908,-0.21552,0.02798,-0.12044,0.52033,0.80940,,,0.95634,0.28451,0.06665,0.00498,
5.32813,-0.31405,0.03329,-0.11223,-0.14083,0.53009,0.83072,,,0.95635,0.28449,0.06665,0.00498,
5.33594,-0.72659,0.13992,-0.28750,-0.12918,0.51399,0.81037,,,0.95636,0.28444,0.06667,0.00497,
5.34375,-0.17654,0.10438,-0.28750,-0.12821,0.52424,0.83072,,,0.95636,0.28443,0.06668,0.00495,
5.35156,-0.52032,-0.14443,-0.35761,-0.12578,0.52472,0.81909,,,0.95637,0.28439,0.06668,0.00493,
5.35938,-0.31405,-0.00225,-0.56793,-0.13403,0.52570,0.82830,,,0.95638,0.28437,0.06669,0.00489,
5.36719,-0.38281,0.24655,-0.63804,-0.11510,0.51497,0.82054,,,0.95639,0.28434,0.06672,0.00485,
5.37500,-0.27968,-0.03780,-0.53287,-0.11849,0.50765,0.82490,,,0.95639,0.28432,0.06672,0.00482,
5.38281,-0.17654,-0.21552,-0.49782,-0.11898,0.52180,0.82248,,,0.95640,0.28431,0.06672,0.00478,
5.39063,-0.17654,-0.17997,-0.49782,-0.14666,0.52472,0.83460,,,0.95640,0.28429,0.06672,0.00475,
5.39844,-0.31405,-0.14443,-0.39266,-0.14617,0.52326,0.83314,,,0.95641,0.28427,0.06672,0.00472,
5.40625,-0.21092,0.03329,-0.21739,-0.14715,0.52716,0.83508,,,0.95641,0.28426,0.06672,0.00471,
5.41406,-0.41719,-0.64204,-0.28750,-0.12626,0.52180,0.81618,,,0.95642,0.28423,0.06669,0.00468,
5.42188,-0.24530,-0.89084,-0.25245,-0.10684,0.52716,0.83411,,,0.95643,0.28421,0.06663,0.00465,
5.42969,-0.31405,-0.42878,-0.46277,-0.14035,0.52521,0.82442,,,0.95644,0.28419,0.06661,0.00461,
5.43750,-0.21092,-0.14443,-0.46277,-0.12869,0.52277,0.82975,,,0.95645,0.28417,0.06661,0.00458,
5.44531,-0.48595,-0.14443,-0.39266,-0.12335,0.52814,0.82006,,,0.95646,0.28414,0.06661,0.00455,
5.45313,-0.55470,-0.49986,-0.56793,-0.13015,0.52570,0.82878,,,0.95647,0.28410,0.06659,0.00451,
5.46094,-0.72659,-0.78421,-0.60298,-0.14666,0.51789,0.81764,,,0.95649,0.28405,0.06655,0.00446,
5.46875,-0.62346,-1.10410,-0.11223,-0.14083,0.52082,0.82151,,,0.95650,0.28401,0.06648,0.00443,
5.47656,-0.31405,-1.53062,0.41357,-0.13889,0.52131,0.82878,,,0.95652,0.28399,0.06637,0.00443,
5.48438,-0.52032,-1.49508,0.55378,-0.11849,0.51350,0.81424,,,0.95653,0.28396,0.06626,0.00444,
5.49219,-0.45157,-2.13486,1.07959,-0.13015,0.51399,0.81909,,,0.95655,0.28394,0.06610,0.00447,
5.50000,-0.45157,-2.59692,1.53528,-0.12481,0.51789,0.83556,,,0.95657,0.28391,0.06590,0.00452,
5.50781,-0.41719,-2.17040,1.71055,-0.15443,0.52228,0.83314,,,0.95659,0.28390,0.06573,0.00459,
5.51563,-0.55470,-3.09453,2.23635,-0.14083,0.52375,0.83460,,,0.95661,0.28387,0.06548,0.00468,
5.52344,-0.69222,-3.59214,2.55183,-0.14277,0.52765,0.83266,,,0.95664,0.28384,0.06520,0.00478,
5.53125,-0.89848,-4.48073,3.07764,-0.14472,0.52521,0.83023,,,0.95668,0.28379,0.06485,0.00490,
5.53906,-1.27665,-5.15605,3.77871,-0.14326,0.52033,0.82490,,,0.95672,0.28373,0.06444,0.00505,
5.54688,-1.24227,-5.40485,4.05913,-0.13598,0.52521,0.83944,,,0.95677,0.28367,0.06401,0.00522,
5.55469,-1.48291,-5.33377,4.37462,-0.13549,0.52082,0.83314,,,0.95682,0.28359,0.06357,0.00541,
5.56250,-1.82670,-6.29344,5.04063,-0.13063,0.51009,0.82200,,,0.95688,0.28350,0.06307,0.00562,
5.57031,-1.62043,-6.18681,5.21590,-0.14035,0.50472,0.83072,,,0.95694,0.28342,0.06256,0.00585,
5.57813,-0.89848,-6.40007,5.98708,-0.14132,0.50569,0.82490,,,0.95698,0.28339,0.06203,0.00612,
5.58594,0.09848,-6.29344,6.30256,-0.12772,0.51643,0.82394,,,0.95700,0.28342,0.06149,0.00641,
5.59375,0.33913,-5.93801,6.44277,-0.12772,0.50618,0.82297,,,0.95702,0.28347,0.06098,0.00671,
5.60156,0.82043,-6.50670,6.96857,-0.13889,0.51204,0.82442,,,0.95702,0.28356,0.06042,0.00704,
5.60938,0.61416,-8.31941,7.59954,-0.10344,0.52619,0.82442,,,0.95704,0.28363,0.05973,0.00737,
5.61719,0.20162,-7.92844,7.84491,-0.10198,0.53448,0.83460,,,0.95707,0.28368,0.05907,0.00773,
5.62500,-0.65784,-7.50192,7.70470,-0.11267,0.52521,0.83896,,,0.95710,0.28367,0.05843,0.00809,
5.63281,-0.89848,-7.71518,7.00363,-0.06556,0.52912,0.83508,,,0.95715,0.28365,0.05779,0.00840,
5.64063,-1.00162,-6.57779,6.40772,-0.09324,0.53546,0.84429,,,0.95719,0.28361,0.05723,0.00870,
5.64844,-0.82973,-4.97833,5.04063,-0.09324,0.53741,0.83702,,,0.95722,0.28358,0.05681,0.00893,
5.65625,-0.93286,-3.91203,4.30451,-0.09081,0.52375,0.82442,,,0.95725,0.28354,0.05647,0.00914,
5.66406,-1.17351,-3.44997,3.56838,-0.07867,0.52375,0.81667,,,0.95729,0.28348,0.05618,0.00931,
5.67188,-1.07038,-2.27703,2.41162,-0.07430,0.53546,0.84089,,,0.95731,0.28342,0.05598,0.00943,
5.67969,-1.72356,-1.10410,1.92087,-0.09421,0.51448,0.82200,,,0.95735,0.28331,0.05587,0.00954,
5.68750,-1.17351,-0.39323,1.11464,-0.11364,0.52375,0.83266,,,0.95737,0.28324,0.05582,0.00961,
5.69531,-1.10475,-0.32215,0.51873,-0.09227,0.51545,0.83411,,,0.95740,0.28317,0.05579,0.00964,
5.70313,-1.17351,-0.28660,0.44862,-0.09761,0.53448,0.83411,,,0.95742,0.28310,0.05576,0.00967,
5.71094,-1.68918,0.06883,-0.18234,-0.10344,0.52472,0.82490,,,0.95745,0.28299,0.05577,0.00967,
5.71875,-1.65481,0.10438,-0.60298,-0.09664,0.53156,0.84186,,,0.95748,0.28288,0.05579,0.00963,
5.72656,-1.55167,0.42427,-0.98857,-0.07625,0.53546,0.83750,,,0.95751,0.28277,0.05583,0.00958,
5.73438,-1.58605,0.99296,-1.89996,-0.07042,0.52716,0.83120,,,0.95754,0.28266,0.05593,0.00949,
5.74219,-1.58605,2.30807,-2.88146,-0.08499,0.52716,0.84574,,,0.95757,0.28254,0.05614,0.00935,
5.75000,-1.89545,2.09481,-3.37221,-0.09130,0.51448,0.83799,,,0.95760,0.28240,0.05634,0.00917,
5.75781,-2.03297,2.69904,-3.86296,-0.10101,0.50569,0.83508,,,0.95763,0.28226,0.05659,0.00898,
5.76563,-1.82670,1.84600,-3.02167,-0.14277,0.51253,0.84089,,,0.95766,0.28212,0.05677,0.00883,
5.77344,-1.89545,0.81524,-2.21544,-0.13938,0.51057,0.83411,,,0.95769,0.28199,0.05686,0.00871,
5.78125,-1.75794,-1.49508,-0.07718,-0.13355,0.51253,0.81909,,,0.95773,0.28188,0.05676,0.00868,
5.78906,-1.17351,-2.06377,0.93937,-0.13598,0.52765,0.84477,,,0.95776,0.28180,0.05661,0.00871,
5.79688,-1.27665,-3.23671,2.34151,-0.14229,0.52912,0.84671,,,0.95780,0.28173,0.05635,0.00880,
5.80469,-1.31102,-4.65844,3.49828,-0.11898,0.52668,0.84332,,,0.95784,0.28166,0.05598,0.00894,
5.81250,-1.48291,-5.54703,3.84881,-0.11072,0.52277,0.84913,,,0.95788,0.28158,0.05554,0.00910,
5.82031,-2.30799,-6.64887,4.58494,-0.11315,0.52814,0.84719,,,0.95795,0.28145,0.05502,0.00928,
5.82813,-3.09869,-7.60855,4.93547,-0.09470,0.52960,0.84283,,,0.95804,0.28128,0.05443,0.00946,
5.83594,-3.13307,-7.67963,5.18085,-0.09907,0.52668,0.83411,,,0.95812,0.28109,0.05382,0.00967,
5.84375,-3.44248,-8.28387,5.25095,-0.09373,0.52521,0.84041,,,0.95821,0.28089,0.05318,0.00986,
5.85156,-3.64875,-8.53267,5.14579,-0.10295,0.52424,0.84477,,,0.95831,0.28068,0.05252,0.01005,
5.85938,-3.78626,-8.53267,5.18085,-0.09858,0.51741,0.82830,,,0.95841,0.28046,0.05186,0.01024,
5.86719,-3.20183,-7.96398,4.72515,-0.08790,0.51399,0.83702,,,0.95850,0.28027,0.05125,0.01041,
5.87500,-2.58302,-7.28866,4.33956,-0.09470,0.51057,0.83605,,,0.95857,0.28012,0.05069,0.01056,
5.88281,-2.51426,-7.21757,4.05913,-0.08110,0.51253,0.84089,,,0.95864,0.27998,0.05014,0.01070,
5.89063,-1.72356,-6.54224,4.12924,-0.06459,0.51545,0.84962,,,0.95869,0.27988,0.04963,0.01085,
5.89844,-1.10475,-6.57779,3.98903,-0.06653,0.50667,0.83023,,,0.95873,0.27983,0.04912,0.01099,
5.90625,-0.52032,-5.90246,4.02408,-0.07236,0.51984,0.84962,,,0.95876,0.27981,0.04866,0.01114,
5.91406,-0.58908,-5.58257,3.67355,-0.05779,0.51204,0.83993,,,0.95878,0.27979,0.04822,0.01127,
5.92188,-0.14216,-4.83616,3.18280,-0.05585,0.50911,0.83750,,,0.95880,0.27980,0.04785,0.01139,
5.92969,-0.07341,-4.19638,3.00753,-0.08110,0.50911,0.83944,,,0.95881,0.27980,0.04751,0.01151,
5.93750,0.27038,-3.69877,2.58689,-0.08887,0.52180,0.84332,,,0.95882,0.27983,0.04722,0.01160,
5.94531,-0.03903,-3.66323,2.48173,-0.07188,0.50911,0.81812,,,0.95883,0.27984,0.04694,0.01170,
5.95313,-0.55470,-3.48551,2.34151,-0.08353,0.51497,0.83556,,,0.95885,0.27982,0.04666,0.01178,
5.96094,-0.58908,-3.84094,2.76215,-0.10295,0.52668,0.83896,,,0.95887,0.27979,0.04636,0.01189,
5.96875,-0.96724,-4.30301,3.21785,-0.10684,0.51057,0.83266,,,0.95890,0.27974,0.04602,0.01203,
5.97656,-1.51729,-5.19159,4.16429,-0.11461,0.51057,0.82587,,,0.95894,0.27966,0.04560,0.01220,
5.98438,-2.30799,-6.50670,5.07569,-0.09664,0.50716,0.83847,,,0.95900,0.27953,0.04507,0.01242,
5.99219,-2.68615,-7.46637,5.70665,-0.09761,0.51887,0.83896,,,0.95907,0.27938,0.04447,0.01266,
6.00000,-3.64875,-8.78148,7.17890,-0.12141,0.50325,0.83896,,,0.95916,0.27917,0.04376,0.01297,
6.00781,-3.85501,-10.87854,9.00168,-0.10538,0.50472,0.83023,1023.167,25.8,0.95926,0.27895,0.04287,0.01336,
6.01563,-3.88939,-10.62974,9.59759,-0.11218,0.49594,0.83993,,,0.95935,0.27873,0.04199,0.01380,
6.02344,-3.57999,-11.41169,11.03478,-0.10393,0.49545,0.84089,,,0.95944,0.27854,0.04103,0.01432,
6.03125,-2.27361,-11.90930,11.70080,-0.08402,0.49691,0.84089,,,0.95951,0.27844,0.04003,0.01486,
6.03906,-1.48291,-11.83821,11.91112,-0.09956,0.49447,0.84671,,,0.95955,0.27838,0.03903,0.01542,
6.04688,-0.45157,-11.76713,12.08639,-0.10878,0.51009,0.85107,,,0.95958,0.27840,0.03803,0.01599,
6.05469,0.09848,-12.26473,12.50703,-0.10587,0.52472,0.84477,,,0.95959,0.27845,0.03699,0.01657,
6.06250,0.09848,-13.29549,12.71735,-0.06799,0.52424,0.82927,,,0.95961,0.27850,0.03588,0.01715,
6.07031,0.06411,-13.54430,12.96272,-0.04760,0.52131,0.83023,,,0.95963,0.27856,0.03474,0.01774,
6.07813,0.13286,-12.79789,12.89262,-0.06411,0.52424,0.84477,,,0.95964,0.27861,0.03366,0.01834,
6.08594,0.68292,-12.26473,12.40187,-0.06848,0.53156,0.85688,,,0.95964,0.27870,0.03263,0.01892,
6.09375,1.78302,-11.87376,11.59564,-0.08062,0.53107,0.85155,,,0.95961,0.27886,0.03163,0.01945,
6.10156,2.67685,-12.22919,11.42037,-0.10101,0.52668,0.85495,,,0.95957,0.27907,0.03062,0.01996,
6.10938,4.32701,-14.04190,12.26165,-0.15686,0.54717,0.86754,,,0.95950,0.27940,0.02947,0.02048,
6.11719,5.59901,-18.62701,14.61024,-0.16366,0.52424,0.84622,,,0.95941,0.27982,0.02798,0.02107,
6.12500,6.59598,-20.26200,16.25775,-0.21125,0.49789,0.89129,,,0.95930,0.28031,0.02636,0.02174,
6.13281,8.86494,-29.89427,21.90137,-0.27389,0.50277,0.90049,,,0.95915,0.28097,0.02400,0.02258,
6.14063,7.97111,-46.35087,30.48947,-0.16074,0.56425,0.83120,,,0.95902,0.28161,0.02039,0.02368,
6.14844,8.17738,-47.34609,34.31031,-0.26126,0.51545,0.90243,,,0.95886,0.28227,0.01665,0.02500,
6.15625,10.34321,-62.84302,44.75625,-0.33459,0.46861,0.90534,,,0.95865,0.28310,0.01170,0.02670,
6.16406,15.36243,-75.38984,57.27035,-0.24378,0.55010,0.97754,,,0.95829,0.28428,0.00570,0.02898,
6.17188,15.94686,-83.60037,63.68514,-0.14472,0.47007,0.84041,,,0.95786,0.28551,-0.00097,0.03151,
6.17969,22.65062,-92.69949,74.06098,-0.08013,0.51545,0.91552,,,0.95722,0.28717,-0.00841,0.03454,
6.18750,26.77601,-92.27297,84.71724,0.15976,0.45788,0.81473,,,0.95641,0.28907,-0.01603,0.03828,
6.19531,29.66379,-84.20461,88.08238,0.32098,0.48813,0.80504,,,0.95547,0.29112,-0.02318,0.04239,
6.20313,34.95804,-47.06174,92.46406,0.34235,0.42616,0.66936,,,0.95440,0.29338,-0.02798,0.04754,
6.21094,44.92773,-26.90862,97.37155,0.20784,0.55742,0.79583,,,0.95311,0.29620,-0.03153,0.05342,
6.21875,45.06524,-17.77396,97.65198,0.08692,0.53156,0.79438,,,0.95178,0.29897,-0.03449,0.05950,
6.22656,50.56577,-18.09385,100.38616,0.03496,0.51204,0.83993,,,0.95027,0.30208,-0.03751,0.06576,
6.23438,53.59105,-18.55592,100.31605,0.05341,0.46910,0.86948,,,0.94864,0.30537,-0.04053,0.07201,
6.24219,66.07036,-17.80951,102.69969,0.07672,0.38517,0.84526,,,0.94668,0.30943,-0.04350,0.07847,
6.25000,87.28174,-14.07745,101.82335,0.06992,0.46080,0.98674,,,0.94421,0.31483,-0.04609,0.08500,
6.25781,96.56387,-8.49713,100.98206,-0.05439,0.50813,1.01146,,,0.94148,0.32076,-0.04824,0.09161,
6.26563,115.16251,-7.78626,97.89736,-0.02477,0.85018,1.22320,,,0.93828,0.32786,-0.05016,0.09810,
6.27344,114.74997,-13.68647,107.29169,-0.04517,1.01608,1.18880,,,0.93490,0.33491,-0.05266,0.10504,
6.28125,115.91883,-15.57027,115.91486,-0.06411,1.12684,1.33223,,,0.93130,0.34197,-0.05546,0.11248,
6.28906,106.29292,-27.33514,129.27024,-0.22581,1.21467,1.25809,,,0.92767,0.34842,-0.05939,0.12045,
6.29688,95.56690,-24.06515,126.36080,-0.32876,1.14343,1.42042,,,0.92421,0.35413,-0.06313,0.12825,
6.30469,84.35959,-19.48005,121.17288,-0.25204,0.69843,1.80176,,,0.92098,0.35907,-0.06654,0.13577,
6.31250,47.02480,17.62728,102.31410,-0.95277,0.97265,2.29891,,,0.91894,0.36138,-0.06749,0.14283,
6.32031,-25.16953,42.32996,75.77860,-1.08486,0.86335,1.93259,,,0.91900,0.35904,-0.06695,0.14850,
6.32813,-53.49722,37.17616,54.60628,-1.19412,0.54229,1.59970,,,0.91991,0.35505,-0.06649,0.15259,
6.33594,-72.85218,49.36755,17.02893,-1.06204,0.36907,1.28135,,,0.92170,0.34988,-0.06456,0.15452,
6.34375,-85.19397,61.63003,-18.26995,-0.95957,-0.13595,0.77936,,,0.92418,0.34395,-0.06115,0.15446,
6.35156,-79.34967,63.69155,-32.32640,-0.90276,-0.27452,0.55986,,,0.92662,0.33840,-0.05721,0.15358,
6.35938,-55.25051,70.87132,-54.79569,-0.77504,-0.24085,0.51189,,,0.92872,0.33438,-0.05204,0.15153,
6.36719,-45.76211,72.50632,-63.10337,-0.72842,-0.20865,0.52884,,,0.93065,0.33094,-0.04648,0.14902,
6.37500,-31.52951,75.31425,-76.24844,-0.63616,-0.05446,0.66355,,,0.93235,0.32841,-0.04030,0.14578,
6.38281,-29.26055,76.38055,-86.62427,-0.57448,0.10705,0.83314,,,0.93404,0.32601,-0.03380,0.14190,
6.39063,-32.59524,75.38533,-90.93585,-0.53272,0.14755,0.88305,,,0.93579,0.32341,-0.02729,0.13770,
6.39844,-43.28687,71.65327,-97.91150,-0.45259,0.20561,0.94604,,,0.93776,0.32014,-0.02096,0.13295,
6.40625,-57.31320,67.38806,-103.06437,-0.34722,0.18414,0.91745,,,0.94000,0.31600,-0.01492,0.12774,
6.41406,-63.39815,65.50426,-104.88715,-0.28020,0.16121,0.89856,,,0.94231,0.31146,-0.00901,0.12236,
6.42188,-73.67725,65.85970,-107.34089,-0.10393,0.14169,0.83605,,,0.94476,0.30622,-0.00312,0.11681,
6.42969,-82.34057,71.75990,-108.25228,0.01311,0.13828,0.80455,,,0.94730,0.30035,0.00311,0.11132,
6.43750,-86.32845,75.77631,-107.97186,0.05875,0.14706,0.80116,,,0.94982,0.29416,0.00956,0.10591,
6.44531,-93.75415,82.84945,-105.48306,0.11120,0.15047,0.80795,,,0.95235,0.28741,0.01636,0.10079,
6.45313,-100.07975,88.39422,-101.10137,0.19035,0.18707,0.84671,,,0.95485,0.28017,0.02339,0.09607,
6.46094,-103.51758,91.02444,-98.54246,0.23503,0.20561,0.86173,,,0.95726,0.27266,0.03052,0.09155,
6.46875,-110.63388,96.56921,-91.63692,0.28553,0.24855,0.86318,,,0.95962,0.26463,0.03783,0.08759,
6.47656,-116.85634,100.12355,-82.17248,0.29719,0.26221,0.82781,,,0.96189,0.25615,0.04516,0.08431,
6.48438,-118.50650,100.55007,-76.63403,0.29088,0.27783,0.81618,,,0.96403,0.24755,0.05241,0.08140,
6.49219,-119.91601,99.16388,-65.10142,0.29330,0.31247,0.79632,,,0.96599,0.23887,0.05935,0.07922,
6.50000,-119.40033,100.23018,-53.88430,0.32584,0.38029,0.79874,,,0.96776,0.23023,0.06618,0.07778,
6.50781,-118.71277,102.64713,-48.69639,0.35838,0.42421,0.81279,,,0.96936,0.22162,0.07308,0.07671,
6.51563,-117.57829,110.21788,-39.05667,0.32341,0.53839,0.85834,,,0.97073,0.21307,0.08033,0.07638,
6.52344,-117.02823,112.35049,-34.63993,0.30544,0.59694,0.87966,,,0.97193,0.20453,0.08766,0.07635,
6.53125,-115.89375,112.45712,-27.34880,0.28893,0.69648,0.91309,,,0.97296,0.19609,0.09488,0.07680,
6.53906,-114.27797,107.80093,-22.40626,0.28650,0.79114,0.94750,,,0.97385,0.18780,0.10172,0.07749,
6.54688,-113.00598,104.10441,-20.93401,0.28796,0.82286,0.95089,,,0.97463,0.17959,0.10830,0.07821,
6.55469,-108.53681,96.00052,-19.60198,0.29767,0.92581,0.99111,,,0.97531,0.17171,0.11433,0.07888,
6.56250,-106.40535,89.78042,-20.37316,0.29185,1.07707,1.05555,,,0.97592,0.16399,0.11996,0.07941,
6.57031,-107.26481,86.29716,-21.07423,0.27971,1.12294,1.05555,,,0.97648,0.15621,0.12535,0.07984,
6.57813,-108.67432,76.98479,-22.33615,0.25931,1.11708,0.96978,,,0.97706,0.14836,0.13012,0.08010,
6.58594,-105.85530,66.28622,-21.49487,0.29233,1.04780,0.83363,,,0.97762,0.14075,0.13416,0.08028,
6.59375,-101.83305,61.66557,-19.77725,0.30981,1.02584,0.76482,,,0.97811,0.13345,0.13790,0.08048,
6.60156,-90.66011,54.16591,-13.74804,0.31467,0.99607,0.69650,,,0.97847,0.12697,0.14114,0.08091,
6.60938,-77.39010,48.90549,-5.47542,0.30010,0.97997,0.66888,,,0.97869,0.12149,0.14401,0.08171,
6.61719,-70.78948,46.73734,-1.12878,0.27485,0.98583,0.65677,,,0.97880,0.11649,0.14674,0.08271,
6.62500,-58.20704,43.50289,6.33761,0.24863,0.96241,0.61655,,,0.97878,0.11243,0.14927,0.08406,
6.63281,-44.52449,41.26365,10.29866,0.19764,0.93167,0.55404,,,0.97863,0.10933,0.15168,0.08552,
6.64063,-36.96128,39.55757,10.82446,0.16559,0.92581,0.51964,,,0.97843,0.10674,0.15402,0.08692,
6.64844,-19.94404,32.76878,10.68425,0.14616,0.87750,0.42660,,,0.97816,0.10533,0.15601,0.08808,
6.65625,-9.76807,28.43248,10.19350,0.16122,0.86189,0.38299,,,0.97787,0.10462,0.15778,0.08907,
6.66406,13.19660,20.47075,8.26555,0.21415,0.87702,0.32921,,,0.97750,0.10547,0.15916,0.08962,
6.67188,36.53944,13.32653,6.58299,0.22580,0.93264,0.31467,,,0.97705,0.10790,0.16022,0.08976,
6.67969,48.12491,9.91436,6.16234,0.22046,1.02681,0.39269,,,0.97655,0.11111,0.16113,0.08972,
6.68750,61.60119,5.11600,4.44472,0.23794,1.22150,0.55210,,,0.97599,0.11523,0.16181,0.08938,
6.69531,65.21090,3.12557,-0.11223,0.20735,1.27810,0.59184,,,0.97543,0.11955,0.16242,0.08867,
6.70313,65.96722,2.66350,-3.68769,0.16122,1.28201,0.59377,,,0.97488,0.12389,0.16302,0.08772,
6.71094,66.82668,-3.37888,-11.36441,0.08595,1.25517,0.56955,,,0.97441,0.12822,0.16329,0.08619,
6.71875,68.75186,-16.35223,-18.41016,0.04370,1.28689,0.61073,,,0.97408,0.13268,0.16276,0.08406,
6.72656,68.40808,-24.27841,-21.28455,0.06021,1.26054,0.60443,,,0.97384,0.13713,0.16173,0.08167,
6.73438,67.17046,-38.24697,-26.08688,0.15782,1.15075,0.52933,,,0.97377,0.14152,0.15981,0.07884,
6.74219,68.99251,-43.82729,-29.55717,0.00437,0.86189,0.32049,,,0.97372,0.14601,0.15755,0.07570,
6.75000,80.19982,-56.76509,-25.38581,-0.14180,1.09025,0.48911,,,0.97364,0.15136,0.15445,0.07259,
6.75781,131.28591,-106.52588,4.72515,0.51474,0.59792,0.32340,,,0.97332,0.16064,0.14796,0.07042,
6.76563,166.00795,-92.13079,29.96367,0.46035,0.34419,0.87917,,,0.97220,0.17238,0.14231,0.06971,
6.77344,170.71777,-79.54842,40.93542,0.11703,0.06850,1.45482,,,0.97069,0.18446,0.13735,0.06983,
6.78125,145.41537,-78.26886,52.50307,-0.13986,0.50667,2.25190,,,0.96927,0.19493,0.13219,0.07095,
6.78906,97.25144,-66.11301,56.42906,0.22969,0.29490,1.09480,,,0.96827,0.20218,0.12754,0.07293,
6.79688,97.28582,-58.32900,58.77765,0.28068,0.28856,0.56519,,,0.96710,0.20939,0.12335,0.07515,
6.80469,131.25153,-46.06652,59.72409,0.29136,0.94923,0.84089,,,0.96526,0.21878,0.12013,0.07733,
6.81250,136.30514,-35.90111,54.39596,0.07624,1.32104,1.28377,,,0.96318,0.22837,0.11766,0.07925,
6.82031,111.03712,-25.20254,38.62189,-0.27972,1.60014,1.60358,,,0.96141,0.23610,0.11600,0.08050,
6.82813,79.61539,-30.96057,29.29765,-0.38024,1.16051,1.26536,,,0.96020,0.24172,0.11394,0.08129,
6.83594,73.35855,-32.45339,26.66864,-0.39578,0.89702,1.10885,,,0.95908,0.24690,0.11178,0.08193,
6.84375,72.36158,-37.85599,22.18179,-0.17191,0.57840,0.95476,,,0.95801,0.25201,0.10933,0.08219,
6.85156,72.84288,-42.86762,27.72025,0.15733,0.85018,1.16167,,,0.95690,0.25721,0.10646,0.08272,
6.85938,66.96419,-41.51697,34.83611,0.17190,1.00827,1.25664,,,0.95582,0.26206,0.10352,0.08378,
6.86719,41.45553,-38.85121,41.49627,-0.12141,1.03901,1.13356,,,0.95510,0.26528,0.10048,0.08550,
6.87500,23.99137,-35.15469,28.56153,-0.31857,0.67647,0.90679,,,0.95474,0.26724,0.09781,0.08656,
6.88281,21.30987,-36.64752,22.60244,-0.24038,0.59596,1.00128,,,0.95445,0.26899,0.09514,0.08722,
6.89063,12.30277,-37.53610,21.83126,0.00388,0.61938,1.01485,,,0.95434,0.27016,0.09237,0.08787,
6.89844,2.22994,-31.63590,22.42717,-0.17822,0.61353,0.96833,,,0.95436,0.27063,0.08991,0.08873,
6.90625,-0.89848,-29.29003,18.01043,-0.19911,0.62622,0.99353,,,0.95444,0.27086,0.08767,0.08937,
6.91406,-5.33328,-26.09112,12.85756,-0.09616,0.53351,0.94071,,,0.95462,0.27075,0.08570,0.08975,
6.92188,-6.84592,-21.86146,12.96272,-0.11267,0.55937,0.89759,,,0.95479,0.27051,0.08400,0.09023,
6.92969,-6.91468,-20.11983,11.98123,-0.09519,0.55351,0.83944,,,0.95496,0.27025,0.08242,0.09068,
6.93750,-5.84895,-15.03712,8.16039,-0.13015,0.46422,0.85640,,,0.95510,0.27001,0.08126,0.09097,
6.94531,-4.13004,-15.46364,7.17890,-0.00923,0.49447,0.86754,,,0.95522,0.26988,0.08009,0.09117,
6.95313,-2.17048,-9.59898,7.52943,-0.08450,0.54180,0.86803,,,0.95526,0.26984,0.07932,0.09150,
6.96094,-0.45157,-6.75550,3.70860,-0.09227,0.47935,0.88450,,,0.95528,0.26987,0.07881,0.09162,
6.96875,0.99232,-7.14648,3.18280,-0.01312,0.47935,0.87675,,,0.95528,0.27000,0.07829,0.09169,
6.97656,3.57069,-3.27225,2.02603,-0.03303,0.51887,0.82006,,,0.95522,0.27026,0.07806,0.09174,
6.98438,6.14906,-1.42399,0.62389,-0.05488,0.51301,0.88063,,,0.95511,0.27067,0.07799,0.09172,
6.99219,5.42711,-0.03780,-0.35761,-0.12286,0.50325,0.84816,,,0.95502,0.27102,0.07803,0.09167,
7.00000,6.08030,-2.66801,0.20325,-0.10101,0.57449,0.79729,,,0.95492,0.27144,0.07789,0.09160,
7.00781,5.46149,-3.91203,0.34346,-0.07188,0.52619,0.83314,1023.137,25.8,0.95483,0.27182,0.07766,0.09152,
7.01563,5.53025,-2.70355,0.27336,-0.08110,0.51887,0.86028,,,0.95474,0.27220,0.07752,0.09146,
7.02344,5.11771,-1.17519,0.83421,-0.18648,0.50716,0.85882,,,0.95465,0.27254,0.07746,0.09147,
7.03125,6.04592,-1.74388,1.04453,-0.12772,0.56425,0.83169,,,0.95454,0.27295,0.07736,0.09147,
7.03906,5.53025,-2.27703,1.14969,-0.08304,0.55107,0.81909,,,0.95444,0.27333,0.07723,0.09148,
7.04688,5.56463,-0.85530,1.00948,-0.13743,0.54131,0.82539,,,0.95434,0.27371,0.07719,0.09150,
7.05469,6.73349,-2.17040,2.06108,-0.05245,0.60475,0.78517,,,0.95421,0.27417,0.07705,0.09155,
7.06250,6.76787,-0.03780,2.02603,-0.14860,0.55302,0.80698,,,0.95407,0.27462,0.07705,0.09165,
7.07031,6.63035,-0.85530,1.36001,-0.09373,0.54668,0.80891,,,0.95394,0.27506,0.07701,0.09169,
7.07813,5.83965,-0.39323,1.95592,-0.09276,0.50960,0.83993,,,0.95382,0.27546,0.07699,0.09178,
7.08594,5.73652,0.70861,1.64044,-0.11218,0.53204,0.81037,,,0.95370,0.27583,0.07704,0.09187,
7.09375,5.77090,1.49057,1.99098,-0.12141,0.46715,0.86221,,,0.95357,0.27621,0.07713,0.09199,
7.10156,5.35836,0.85079,1.36001,-0.11704,0.46861,0.84962,,,0.95346,0.27656,0.07720,0.09207,
7.10938,5.80528,-0.96193,2.41162,-0.07625,0.57303,0.82200,,,0.95334,0.27695,0.07713,0.09218,
7.11719,5.35836,-0.17997,2.34151,-0.06265,0.51448,0.83702,,,0.95322,0.27732,0.07710,0.09230,
7.12500,5.66776,1.81046,2.20130,-0.10878,0.50374,0.86609,,,0.95309,0.27768,0.07722,0.09245,
7.13281,5.63338,1.66829,2.51678,-0.10053,0.53448,0.85640,,,0.95296,0.27805,0.07731,0.09261,
7.14063,6.35533,1.38394,2.72710,-0.08450,0.54961,0.82442,,,0.95281,0.27847,0.07739,0.09278,
7.14844,5.87403,4.12078,1.64044,-0.15540,0.50521,0.82248,,,0.95267,0.27884,0.07766,0.09293,
7.15625,6.45846,1.88155,1.78066,-0.02477,0.49447,0.83460,,,0.95253,0.27925,0.07779,0.09305,
7.16406,6.14906,4.15633,2.30646,-0.16123,0.56864,0.78469,,,0.95237,0.27964,0.07806,0.09325,
7.17188,6.49284,1.56166,2.37657,-0.05342,0.52326,0.81279,,,0.95223,0.28006,0.07815,0.09340,
7.17969,5.90841,4.65393,2.37657,-0.17483,0.48325,0.81279,,,0.95207,0.28043,0.07845,0.09361,
7.18750,7.04289,1.17068,2.79721,-0.05537,0.51399,0.81085,,,0.95191,0.28089,0.07852,0.09378,
7.19531,7.21478,3.90752,3.56838,-0.12821,0.52765,0.82878,,,0.95173,0.28136,0.07875,0.09404,
7.20313,7.59294,3.80089,3.39312,-0.11898,0.48471,0.86125,,,0.95154,0.28184,0.07898,0.09430,
7.21094,8.62429,3.19665,4.09419,-0.11315,0.51594,0.83944,,,0.95133,0.28240,0.07916,0.09458,
7.21875,9.27748,2.66350,4.44472,-0.15394,0.58474,0.79147,,,0.95111,0.28301,0.07931,0.09487,
7.22656,10.75574,1.17068,4.65504,-0.04857,0.51301,0.83217,,,0.95087,0.28373,0.07937,0.09513,
7.23438,11.03077,3.23220,4.26945,-0.14083,0.51838,0.84138,,,0.95061,0.28444,0.07956,0.09541,
7.24219,12.85282,2.20144,3.74365,-0.07625,0.51789,0.83896,,,0.95032,0.28528,0.07972,0.09563,
7.25000,15.91248,4.19187,3.07764,-0.14763,0.55010,0.82927,,,0.94997,0.28630,0.08003,0.09582,
7.25781,16.97821,4.33404,2.51678,-0.07916,0.48520,0.85446,,,0.94960,0.28739,0.08038,0.09598,
7.26563,20.48479,5.86241,2.48173,-0.11704,0.51448,0.82781,,,0.94915,0.28869,0.08084,0.09614,
7.27344,25.29775,4.65393,2.51678,-0.09810,0.56474,0.81182,,,0.94861,0.29031,0.08126,0.09625,
7.28125,27.56671,3.16111,1.78066,-0.05828,0.51692,0.80601,,,0.94803,0.29208,0.08161,0.09628,
7.28906,32.75783,2.87676,-1.09373,-0.09081,0.45885,0.85059,,,0.94737,0.29417,0.08203,0.09608,
7.29688,40.14915,0.77970,-1.51437,-0.11704,0.48520,0.82587,,,0.94656,0.29675,0.08237,0.09578,
7.30469,44.61833,-0.39323,-1.54943,-0.12092,0.48959,0.84768,,,0.94567,0.29962,0.08267,0.09542,
7.31250,54.45051,-0.10889,-0.77825,-0.14909,0.41201,0.90631,,,0.94456,0.30312,0.08303,0.09506,
7.32031,65.86409,-3.73431,0.55378,-0.13161,0.49935,0.83944,,,0.94320,0.30739,0.08321,0.09464,
7.32813,72.63661,-4.80062,1.74560,-0.12675,0.53351,0.84332,,,0.94169,0.31210,0.08333,0.09424,
7.33594,87.04110,-6.25790,3.25290,-0.08110,0.43592,0.90146,,,0.93983,0.31774,0.08342,0.09382,
7.34375,104.23022,-5.79583,5.42622,-0.17725,0.46129,0.88887,,,0.93755,0.32447,0.08359,0.09345,
7.35156,113.71862,-9.17246,7.00363,-0.09276,0.45983,0.82345,,,0.93501,0.33183,0.08357,0.09304,
7.35938,132.97045,-8.14170,9.38727,-0.12432,0.44226,0.80988,,,0.93195,0.34040,0.08368,0.09269,
7.36719,142.56198,-7.64409,10.43887,-0.16171,0.43104,0.91794,,,0.92858,0.34954,0.08385,0.09236,
7.37500,163.42958,-9.74115,12.92767,-0.09033,0.49252,0.83266,,,0.92460,0.36000,0.08395,0.09201,
7.38281,185.94734,-15.64136,17.97537,-0.07333,0.47447,0.72218,,,0.91994,0.37189,0.08368,0.09168,
7.39063,199.45799,-15.39255,19.62289,-0.12238,0.51204,0.89371,,,0.91476,0.38457,0.08346,0.09138,
7.39844,221.94137,-16.13897,23.37361,-0.10878,0.48227,0.79874,,,0.90878,0.39860,0.08321,0.09114,
7.40625,252.29737,-17.41853,29.15744,-0.07090,0.65110,0.86997,,,0.90171,0.41444,0.08290,0.09103,
7.41406,267.52694,-16.13897,32.27720,-0.10830,0.56278,0.74495,,,0.89389,0.43110,0.08264,0.09103,
7.42188,305.65243,-15.07266,38.69199,-0.20493,0.56181,0.97463,,,0.88456,0.44994,0.08246,0.09120,
7.42969,347.07823,-18.16494,47.35021,-0.28603,0.59060,0.94750,,,0.87347,0.47111,0.08205,0.09152,
7.43750,371.38365,-16.28114,50.08438,-0.38218,0.72868,0.98917,,,0.86104,0.49344,0.08176,0.09187,
7.44531,423.98239,-25.87786,61.12623,-0.38801,0.97021,1.05700,,,0.84618,0.51861,0.08081,0.09219,
7.45313,469.22417,-34.65709,79.35405,-0.43851,1.21662,1.24065,,,0.82884,0.54605,0.07891,0.09290,
7.46094,487.10086,-37.35839,87.87206,-0.24475,1.28396,1.14761,,,0.80989,0.57395,0.07657,0.09380,
7.46875,521.99479,-25.09591,103.92656,-0.16608,1.93536,1.48050,,,0.78841,0.60307,0.07441,0.09577,
7.47656,498.27380,11.58490,105.85450,-0.12286,2.12565,1.71648,,,0.76672,0.62993,0.07389,0.09935,
7.48438,481.08467,28.96563,103.47086,-0.19036,2.25301,1.70824,,,0.74479,0.65503,0.07417,0.10352,
7.49219,443.44048,52.42429,97.26639,-0.28312,2.50381,1.94131,,,0.72369,0.67733,0.07559,0.10851,
7.50000,382.10967,73.21718,82.36866,-0.41083,2.29351,2.21023,,,0.70481,0.69581,0.07819,0.11394,
7.50781,350.61919,71.68882,85.27810,-0.54923,2.11931,2.22283,,,0.68692,0.71232,0.08029,0.11953,
7.51563,296.64532,44.42702,108.93921,-0.50261,0.90337,1.73828,,,0.67124,0.72627,0.07948,0.12514,
7.52344,294.51387,12.79338,133.54677,-0.61673,0.85799,1.74991,,,0.65529,0.74018,0.07595,0.13025,
7.53125,271.37731,-55.52107,149.67138,-0.61187,0.57010,1.38020,,,0.64041,0.75339,0.06831,0.13270,
7.53906,220.22246,-10.77191,112.44456,-0.98871,3.32257,4.73183,,,0.62807,0.76350,0.06405,0.13601,
7.54688,89.89449,-24.77602,88.46796,-1.26162,2.15639,3.64741,,,0.62267,0.76792,0.05922,0.13811,
7.55469,-40.26159,-41.62360,35.57223,-1.46315,0.94338,2.44185,,,0.62461,0.76673,0.05522,0.13760,
7.56250,-97.74203,-88.22102,6.58299,-1.11885,0.31491,1.68450,,,0.62997,0.76339,0.05020,0.13362,
7.57031,-117.44077,-100.27024,-5.15994,-0.79155,0.06704,1.34289,,,0.63644,0.75919,0.04509,0.12858,
7.57813,-134.45801,-93.05492,-27.66428,-0.31420,-0.27550,0.93587,,,0.64389,0.75404,0.04131,0.12297,
7.58594,-136.07379,-63.69606,-47.25919,-0.18405,-0.40724,0.70958,,,0.65143,0.74842,0.03980,0.11799,
7.59375,-134.52677,-45.81772,-56.44321,-0.18259,-0.39651,0.67276,,,0.65884,0.74262,0.03956,0.11351,
7.60156,-133.18601,-17.45407,-70.60482,-0.28166,-0.27989,0.69698,,,0.66614,0.73654,0.04132,0.10980,
7.60938,-137.62081,-6.11572,-79.26304,-0.45357,-0.11789,0.78081,,,0.67363,0.73007,0.04399,0.10628,
7.61719,-142.29625,-7.75072,-81.78689,-0.51135,-0.02372,0.82927,,,0.68129,0.72329,0.04667,0.10256,
7.62500,-157.69771,-20.83070,-84.97676,-0.57254,0.20366,0.95767,,,0.68968,0.71579,0.04879,0.09807,
7.63281,-180.69677,-39.41990,-88.23673,-0.54777,0.36224,1.03714,,,0.69915,0.70719,0.05003,0.09259,
7.64063,-194.00115,-47.59489,-90.48016,-0.49144,0.41933,1.06185,,,0.70916,0.69785,0.05090,0.08663,
7.64844,-222.70699,-56.30303,-96.43925,-0.35353,0.52228,1.05555,,,0.72042,0.68698,0.05144,0.08005,
7.65625,-237.45527,-56.01868,-100.15493,-0.28603,0.55693,1.02987,,,0.73217,0.67515,0.05208,0.07333,
7.66406,-264.85474,-48.02141,-107.41100,-0.18308,0.60426,0.96155,,,0.74493,0.66166,0.05329,0.06669,
7.67188,-287.75066,-35.54567,-112.56386,-0.16511,0.64427,0.89371,,,0.75838,0.64665,0.05524,0.06040,
7.67969,-297.37657,-29.75210,-114.03611,-0.16851,0.65403,0.85931,,,0.77189,0.63081,0.05749,0.05430,
7.68750,-311.43727,-22.18135,-115.05266,-0.14423,0.71063,0.82297,,,0.78560,0.61390,0.06011,0.04850,
7.69531,-322.36956,-15.60581,-113.61547,-0.08207,0.81895,0.81376,,,0.79932,0.59605,0.06294,0.04307,
7.70313,-327.69819,-12.54908,-110.88130,-0.10053,0.80919,0.79971,,,0.81279,0.57759,0.06578,0.03791,
7.71094,-334.67698,-8.88811,-101.31169,-0.09373,0.83505,0.80504,,,0.82603,0.55845,0.06840,0.03344,
7.71875,-337.87415,-5.54703,-90.44511,-0.07479,0.87994,0.84429,,,0.83889,0.53886,0.07074,0.02970,
7.72656,-338.93988,-2.88127,-84.80149,-0.08207,0.94045,0.89177,,,0.85129,0.51892,0.07298,0.02637,
7.73438,-342.54960,1.88155,-74.14523,-0.08547,1.01852,0.98481,,,0.86329,0.49853,0.07507,0.02383,
7.74219,-346.19369,8.70588,-64.96121,-0.03497,1.13806,1.11418,,,0.87486,0.47767,0.07721,0.02207,
7.75000,-348.87519,14.85489,-61.14038,-0.00486,1.20882,1.18008,,,0.88598,0.45638,0.07954,0.02074,
7.75781,-356.33528,29.39215,-53.74409,0.03690,1.35715,1.27554,,,0.89671,0.43439,0.08245,0.02033,
7.76563,-364.48292,46.16864,-45.71684,-0.00243,1.52354,1.35985,,,0.90702,0.41165,0.08610,0.02095,
7.77344,-368.47080,53.09961,-40.94956,-0.06362,1.60307,1.39231,,,0.91681,0.38843,0.08997,0.02206,
7.78125,-375.20894,61.27460,-32.25629,-0.21853,1.79483,1.40249,,,0.92611,0.36456,0.09406,0.02396,
7.78906,-379.09368,62.02101,-29.31180,-0.40500,1.95927,1.33756,,,0.93486,0.34022,0.09805,0.02608,
7.79688,-378.54363,60.03058,-31.66038,-0.44871,2.01782,1.28329,,,0.94297,0.31567,0.10191,0.02797,
7.80469,-369.77717,55.16113,-44.63018,-0.43900,2.15493,1.14858,,,0.95031,0.29140,0.10567,0.02885,
7.81250,-362.59212,52.53092,-53.42861,-0.39966,2.25105,1.05167,,,0.95693,0.26734,0.10939,0.02903,
7.82031,-346.12493,48.40788,-70.18418,-0.29477,2.38719,0.82345,,,0.96273,0.24407,0.11311,0.02791,
7.82813,-323.67593,42.82756,-81.15593,-0.20979,2.46868,0.58844,,,0.96769,0.22207,0.11662,0.02579,
7.83594,-311.12787,38.06475,-83.01376,-0.20299,2.49502,0.46198,,,0.97200,0.20078,0.11982,0.02336,
7.84375,-282.93770,23.74075,-80.17443,-0.12966,2.42232,0.22261,,,0.97561,0.18132,0.12201,0.02068,
7.85156,-250.55338,12.33131,-73.37405,0.01311,2.28521,0.00020,,,0.97855,0.16401,0.12337,0.01803,
7.85938,-232.88296,11.44273,-70.53472,0.10586,2.25593,-0.06134,,,0.98101,0.14786,0.12461,0.01541,
7.86719,-200.01735,18.76467,-68.08097,0.23017,2.21251,-0.17618,,,0.98283,0.13388,0.12633,0.01275,
7.87500,-170.03951,30.28074,-67.13453,0.22289,2.27887,-0.24983,,,0.98410,0.12189,0.12881,0.00999,
7.88281,-156.76950,32.16454,-64.82100,0.17676,2.31302,-0.31137,,,0.98509,0.11078,0.13139,0.00729,
7.89063,-130.53889,27.15292,-55.88235,0.19133,2.30034,-0.46012,,,0.98582,0.10151,0.13357,0.00491,
7.89844,-101.28299,18.55141,-43.22804,0.23600,2.17445,-0.58174,,,0.98633,0.09431,0.13507,0.00306,
7.90625,-86.84413,13.93076,-36.49777,0.30641,2.12126,-0.69707,,,0.98675,0.08814,0.13622,0.00150,
7.91406,-53.22219,15.17478,-26.26214,0.27436,2.16810,-0.66993,,,0.98692,0.08433,0.13739,0.00032,
7.92188,-24.65386,13.21990,-13.08203,0.15442,2.10565,-0.67429,,,0.98693,0.08256,0.13836,-0.00025,
7.92969,-10.55877,10.34088,-5.15994,0.11508,2.04319,-0.68495,,,0.98689,0.08182,0.13908,-0.00044,
7.93750,18.86901,5.72024,10.33371,0.03496,1.96610,-0.60403,,,0.98673,0.08320,0.13941,0.00011,
7.94531,32.44842,5.00937,16.99388,0.00922,1.90315,-0.57593,,,0.98650,0.08555,0.13965,0.00097,
7.95313,58.67903,7.99501,27.65014,-0.03497,1.83338,-0.43541,,,0.98607,0.08977,0.14003,0.00232,
7.96094,79.61539,15.31696,35.25675,-0.08207,1.78995,-0.24111,,,0.98541,0.09547,0.14086,0.00403,
7.96875,86.97234,19.65326,38.23630,-0.09324,1.76019,-0.14565,,,0.98462,0.10168,0.14195,0.00589,
7.97656,106.18978,21.89249,50.15449,-1.53648,0.57108,0.22019,,,0.98362,0.10928,0.14312,0.00838,
7.98438,155.66009,-122.69813,67.26060,-0.64441,-1.53682,-0.02742,,,0.98352,0.12043,0.13447,0.01045,
7.99219,169.03324,-124.01324,65.82340,-0.04760,-0.69708,0.26816,,,0.98311,0.13243,0.12572,0.01230,
8.00000,194.33563,-51.71793,41.98702,-0.19668,-0.48824,2.42344,,,0.98167,0.14584,0.12202,0.01298,
8.00781,151.67222,-49.65641,18.36096,0.28359,-0.00957,0.94556,1023.167,25.8,0.98050,0.15618,0.11864,0.01245,
8.01563,160.02613,-34.90589,13.55863,0.52494,0.39054,0.43581,,,0.97900,0.16701,0.11629,0.01169,
8.02344,199.69864,-25.84232,24.35511,0.60361,1.30884,0.72703,,,0.97682,0.18054,0.11443,0.01144,
8.03125,200.04242,-19.90657,43.03863,0.54048,1.83923,1.80224,,,0.97439,0.19420,0.11271,0.01250,
8.03906,181.40941,-14.53951,55.23725,0.33652,1.95829,2.05372,,,0.97197,0.20667,0.11115,0.01458,
8.04688,136.06449,-14.78832,74.86721,-0.15152,1.40692,1.60745,,,0.97003,0.21626,0.10925,0.01831,
8.05469,130.15143,-16.21005,67.08533,-0.65801,1.16197,1.34822,,,0.96810,0.22538,0.10734,0.02153,
8.06250,130.94213,-16.81429,52.32781,-0.78524,1.10879,1.36905,,,0.96609,0.23442,0.10562,0.02377,
8.07031,120.28487,-28.89905,21.41062,-0.63761,1.17564,1.35210,,,0.96430,0.24254,0.10357,0.02385,
8.07813,103.68017,-44.32490,14.99583,0.01116,0.99071,1.17136,,,0.96285,0.24953,0.10057,0.02337,
8.08594,95.05123,-44.85805,19.65794,0.13014,0.90629,1.03132,,,0.96148,0.25597,0.09744,0.02325,
8.09375,83.98143,-41.26816,33.11849,-0.14763,0.97363,1.10061,,,0.96021,0.26176,0.09428,0.02414,
8.10156,73.56482,-41.83686,34.73095,-0.42977,0.93459,1.09141,,,0.95909,0.26686,0.09105,0.02519,
8.10938,55.24121,-51.93119,28.87701,-0.40161,0.87360,1.00564,,,0.95835,0.27074,0.08722,0.02579,
8.11719,36.47068,-55.34336,25.09123,0.11897,0.75210,1.13453,,,0.95795,0.27336,0.08320,0.02619,
8.12500,25.50402,-48.44793,24.49533,0.17190,0.68916,1.15537,,,0.95770,0.27525,0.07962,0.02675,
8.13281,12.13087,-33.19981,20.35901,-0.09276,0.62182,0.96252,,,0.95761,0.27621,0.07710,0.02739,
8.14063,6.35533,-26.02004,13.48853,-0.15346,0.52863,0.95912,,,0.95760,0.27675,0.07516,0.02774,
8.14844,5.32398,-23.46091,10.54403,-0.02380,0.45739,0.88305,,,0.95760,0.27719,0.07343,0.02796,
8.15625,4.94582,-15.03712,7.91502,-0.03497,0.54522,0.87917,,,0.95756,0.27758,0.07231,0.02817,
8.16406,4.77393,-8.74594,3.25290,0.00097,0.57986,0.84477,,,0.95751,0.27793,0.07169,0.02819,
8.17188,6.18344,-5.83138,0.93937,-0.04225,0.60084,0.89565,,,0.95742,0.27835,0.07130,0.02811,
8.17969,7.07727,-0.49986,-1.51437,-0.09761,0.56961,0.90486,,,0.95729,0.27880,0.07131,0.02797,
8.18750,8.38364,2.02372,-1.65459,-0.15249,0.60084,0.84477,,,0.95712,0.27934,0.07149,0.02786,
8.19531,9.44937,3.40991,-1.97007,-0.12189,0.60328,0.81037,,,0.95693,0.27994,0.07177,0.02775,
8.20313,10.92764,4.83165,-2.88146,-0.07965,0.51448,0.83702,,,0.95670,0.28063,0.07216,0.02760,
8.21094,12.23401,7.24860,-2.84641,-0.13986,0.56034,0.81570,,,0.95644,0.28140,0.07271,0.02750,
8.21875,12.33714,5.36480,-2.04018,-0.13646,0.57352,0.79438,,,0.95618,0.28218,0.07312,0.02740,
8.22656,12.74968,4.33404,-1.02362,-0.12092,0.49886,0.82539,,,0.95591,0.28300,0.07345,0.02736,
8.23438,12.85282,4.90274,-0.18234,-0.17628,0.47788,0.83896,,,0.95564,0.28383,0.07379,0.02738,
8.24219,14.57173,1.20622,2.97248,-0.16560,0.57791,0.80165,,,0.95534,0.28479,0.07384,0.02752,
8.25000,14.12481,-2.84573,6.58299,-0.22241,0.52131,0.83847,,,0.95507,0.28575,0.07356,0.02782,
8.25781,13.91854,-4.90725,7.49438,-0.16026,0.47593,0.81521,,,0.95481,0.28670,0.07312,0.02814,
8.26563,13.05909,-9.24354,10.47392,-0.13938,0.52424,0.80019,,,0.95458,0.28762,0.07234,0.02858,
8.27344,12.54341,-12.83343,13.17304,-0.14180,0.54912,0.83556,,,0.95437,0.28853,0.07127,0.02912,
8.28125,11.85585,-13.50875,12.99778,-0.14326,0.55400,0.85204,,,0.95418,0.28939,0.07016,0.02965,
8.28906,10.92764,-13.15332,12.99778,-0.08062,0.61011,0.82975,,,0.95400,0.29019,0.06907,0.03018,
8.29688,9.72440,-8.92365,12.15649,-0.16706,0.63939,0.77742,,,0.95382,0.29090,0.06826,0.03075,
8.30469,9.58688,-8.35496,10.89457,-0.08207,0.59352,0.82151,,,0.95365,0.29159,0.06753,0.03125,
8.31250,7.93673,-5.19159,10.85951,-0.12335,0.50813,0.83266,,,0.95349,0.29216,0.06699,0.03181,
8.32031,8.52116,-5.65366,11.49048,-0.10004,0.56034,0.81618,,,0.95332,0.29278,0.06641,0.03241,
8.32813,8.41802,-4.69399,11.80596,-0.10441,0.58523,0.78469,,,0.95315,0.29339,0.06589,0.03304,
8.33594,7.35230,-3.34334,10.71930,-0.00292,0.50667,0.82248,,,0.95299,0.29393,0.06547,0.03364,
8.34375,6.80224,0.28209,8.89652,-0.06508,0.56864,0.77645,,,0.95283,0.29441,0.06533,0.03419,
8.35156,7.73046,-0.78421,8.65114,-0.09956,0.62085,0.77596,,,0.95266,0.29495,0.06512,0.03470,
8.35938,6.59598,1.06405,6.58299,-0.09276,0.51741,0.82684,,,0.95251,0.29541,0.06507,0.03512,
8.36719,6.08030,0.99296,6.05718,-0.07965,0.57352,0.81957,,,0.95236,0.29583,0.06503,0.03551,
8.37500,5.15209,1.63274,6.58299,-0.08304,0.56083,0.81085,,,0.95224,0.29619,0.06502,0.03595,
8.38281,3.84571,1.49057,6.72320,-0.15006,0.60523,0.81182,,,0.95214,0.29646,0.06499,0.03640,
8.39063,2.60810,-0.25106,7.03868,-0.04274,0.53253,0.83411,,,0.95207,0.29666,0.06483,0.03684,
8.39844,1.23297,1.13513,8.89652,-0.14569,0.54278,0.82394,,,0.95201,0.29678,0.06473,0.03743,
8.40625,1.74864,-1.24627,11.77090,-0.13792,0.61402,0.77693,,,0.95195,0.29695,0.06442,0.03816,
8.41406,1.67988,-1.56617,12.99778,-0.13015,0.57693,0.78711,,,0.95189,0.29712,0.06406,0.03897,
8.42188,0.85481,-0.28660,15.97732,-0.21853,0.52424,0.79777,,,0.95183,0.29724,0.06372,0.04000,
8.42969,0.88918,-2.09932,23.33856,-0.26418,0.59255,0.74786,,,0.95176,0.29741,0.06311,0.04146,
8.43750,1.85178,-2.91681,27.54498,-0.15394,0.57010,0.75174,,,0.95166,0.29765,0.06237,0.04318,
8.44531,3.29566,-0.74867,28.66669,0.00534,0.45544,0.85979,,,0.95151,0.29799,0.06175,0.04501,
8.45313,4.08636,2.87676,19.97342,0.00339,0.53936,0.80940,,,0.95135,0.29833,0.06154,0.04635,
8.46094,5.18647,1.70383,14.89067,-0.01554,0.58620,0.77403,,,0.95119,0.29872,0.06137,0.04733,
8.46875,7.93673,5.04491,6.19740,-0.11218,0.41591,0.86318,,,0.95099,0.29925,0.06159,0.04780,
8.47656,15.12178,3.05448,3.67355,-0.11801,0.47007,0.84574,,,0.95065,0.30023,0.06176,0.04804,
8.48438,18.66274,2.27252,3.42817,-0.13209,0.48325,0.84332,,,0.95025,0.30145,0.06190,0.04823,
8.49219,25.67591,1.88155,2.93742,-0.11267,0.49838,0.87433,,,0.94970,0.30312,0.06205,0.04835,
8.50000,32.55156,2.30807,3.56838,-0.16268,0.45446,0.87142,,,0.94901,0.30523,0.06223,0.04849,
8.50781,37.60516,-0.28660,4.69010,-0.11558,0.50813,0.81715,,,0.94821,0.30768,0.06224,0.04863,
8.51563,48.70934,-1.92160,6.16234,-0.09373,0.53399,0.83653,,,0.94717,0.31086,0.06215,0.04878,
8.52344,54.69116,-2.91681,6.23245,-0.09907,0.45007,0.93102,,,0.94599,0.31443,0.06201,0.04889,
8.53125,69.19878,-2.88127,5.32106,-0.16706,0.48374,0.88402,,,0.94449,0.31892,0.06194,0.04887,
8.53906,87.72866,-6.29344,5.95202,-0.05828,0.47691,0.86367,,,0.94258,0.32460,0.06170,0.04875,
8.54688,98.97035,-5.93801,6.23245,-0.07819,0.45348,0.87530,,,0.94037,0.33100,0.06150,0.04860,
8.55469,123.06951,-5.90246,6.44277,-0.12432,0.31686,0.97027,,,0.93756,0.33892,0.06139,0.04836,
8.56250,151.25968,-9.10137,7.31911,-0.11412,0.41787,0.86706,,,0.93403,0.34863,0.06113,0.04799,
8.57031,168.44881,-8.81702,7.91502,-0.03885,0.45641,0.82006,,,0.92998,0.35940,0.06093,0.04757,
8.57813,203.23960,-13.04669,11.87606,-0.03448,0.46520,0.91794,,,0.92493,0.37234,0.06046,0.04716,
8.58594,239.30239,-15.85462,15.41647,-0.17774,0.54278,0.92375,,,0.91874,0.38749,0.05983,0.04674,
8.59375,258.34795,-20.58189,17.73000,-0.10150,0.56425,0.95719,,,0.91180,0.40374,0.05889,0.04624,
8.60156,295.82025,-22.18135,26.77380,-0.22339,0.42860,0.97463,,,0.90348,0.42222,0.05769,0.04610,
8.60938,341.54333,-28.68579,38.13114,-0.24330,0.42958,0.94120,,,0.89340,0.44337,0.05589,0.04626,
8.61719,368.18648,-33.34198,45.35216,-0.23553,0.56620,0.95137,,,0.88197,0.46592,0.05363,0.04660,
8.62500,427.38583,-35.40350,57.34046,-0.04905,0.92288,1.13066,,,0.86797,0.49172,0.05102,0.04734,
8.63281,474.62156,-21.11504,69.53907,-0.53903,0.80675,0.95331,,,0.85145,0.51984,0.04895,0.04907,
8.64063,508.86230,-33.66187,78.93341,-0.57545,1.07951,1.13744,,,0.83275,0.54941,0.04587,0.05073,
8.64844,541.79667,-39.45545,96.91586,-0.31080,1.48304,1.28474,,,0.81167,0.58019,0.04185,0.05302,
8.65625,547.64097,-29.85873,105.43386,-0.13258,1.67285,1.21351,,,0.78915,0.61046,0.03798,0.05607,
8.66406,541.72791,4.93828,110.86715,-0.11704,2.67947,2.11623,,,0.76563,0.63941,0.03567,0.06079,
8.67188,471.25249,44.39147,104.38225,-0.32439,2.26960,1.59195,,,0.74414,0.66371,0.03538,0.06699,
8.67969,457.29492,49.47418,100.66658,-0.25689,2.35157,1.75815,,,0.72251,0.68656,0.03540,0.07320,
8.68750,410.81551,70.40925,86.89056,-0.09907,2.13493,2.02610,,,0.70239,0.70635,0.03684,0.07975,
8.69531,360.65764,79.68609,101.82335,-0.59294,1.68407,2.02610,,,0.68405,0.72319,0.03770,0.08752,
8.70313,334.22076,70.94241,112.26929,-0.58274,1.37764,2.14724,,,0.66653,0.73840,0.03746,0.09536,
8.71094,293.17312,27.97041,151.17868,-1.30678,0.88238,2.32459,,,0.65057,0.75173,0.03303,0.10286,
8.71875,236.13959,-8.46159,143.60712,-1.05475,3.05128,3.57037,,,0.63739,0.76243,0.02695,0.10824,
8.72656,159.57922,5.15154,115.00347,-1.26308,3.27768,4.78901,,,0.62821,0.76944,0.02238,0.11320,
8.73438,-51.81268,-12.51354,52.71339,-1.54133,1.16539,2.93754,,,0.63055,0.76737,0.01868,0.11487,
8.74219,-123.14756,-39.56208,8.86146,-1.31844,0.07826,1.68983,,,0.63696,0.76236,0.01556,0.11333,
8.75000,-135.11120,-55.05901,-5.08983,-1.02464,-0.26232,1.27796,,,0.64406,0.75687,0.01240,0.11038,
8.75781,-136.65822,-49.97630,-34.56982,-0.43123,-0.58485,0.81085,,,0.65138,0.75117,0.01096,0.10639,
8.76563,-124.69459,-19.44450,-62.54252,-0.20153,-0.68293,0.61849,,,0.65821,0.74569,0.01239,0.10271,
8.77344,-118.09396,0.17546,-75.72263,-0.16754,-0.61949,0.62672,,,0.66472,0.74029,0.01542,0.09941,
8.78125,-112.04339,35.36345,-97.52591,-0.18357,-0.37992,0.76773,,,0.67096,0.73483,0.02119,0.09689,
8.78906,-118.26585,52.06885,-110.95140,-0.31468,-0.13595,0.93732,,,0.67751,0.72886,0.02835,0.09459,
8.79688,-125.03837,51.74896,-114.77224,-0.37393,-0.01347,1.01049,,,0.68431,0.72247,0.03563,0.09209,
8.80469,-145.97473,37.46051,-117.99716,-0.40355,0.20415,1.12436,,,0.69210,0.71507,0.04227,0.08878,
8.81250,-158.76344,26.93966,-118.55801,-0.35887,0.29051,1.15731,,,0.70042,0.70700,0.04836,0.08494,
8.82031,-187.57242,7.28415,-119.25908,-0.23261,0.41396,1.17669,,,0.71006,0.69752,0.05337,0.08021,
8.82813,-217.20647,-3.94757,-121.11692,-0.08984,0.49398,1.13502,,,0.72096,0.68648,0.05774,0.07494,
8.83594,-231.23280,-5.36931,-122.62422,-0.03157,0.54522,1.13066,,,0.73232,0.67455,0.06202,0.06956,
8.84375,-259.14795,-2.52584,-126.51516,0.05147,0.61451,1.07639,,,0.74471,0.66095,0.06647,0.06421,
8.85156,-284.48472,3.51654,-129.59987,0.08061,0.67696,1.03132,,,0.75792,0.64575,0.07123,0.05906,
8.85938,-296.27646,5.79132,-130.19578,0.07138,0.68623,1.00128,,,0.77127,0.62963,0.07605,0.05402,
8.86719,-315.56266,6.78654,-129.10912,0.05438,0.69599,0.95040,,,0.78505,0.61217,0.08076,0.04914,
8.87500,-328.83267,3.58763,-125.18312,0.05341,0.69502,0.90001,,,0.79895,0.59370,0.08505,0.04439,
8.88281,-333.23309,1.20622,-122.51906,0.06847,0.70965,0.89516,,,0.81257,0.57466,0.08904,0.03969,
8.89063,-339.38680,-2.17040,-115.71868,0.10343,0.76577,0.91067,,,0.82594,0.55499,0.09250,0.03524,
8.89844,-343.68408,-2.17040,-106.99036,0.14665,0.89946,1.00419,,,0.83897,0.53481,0.09557,0.03130,
8.90625,-346.95001,-0.78421,-101.62717,0.13985,0.97851,1.05991,,,0.85158,0.51414,0.09846,0.02771,
8.91406,-355.64771,3.48100,-88.76254,0.14034,1.11855,1.16894,,,0.86393,0.49273,0.10107,0.02506,
8.92188,-364.27665,8.91914,-74.11017,0.13354,1.24590,1.27166,,,0.87595,0.47060,0.10342,0.02350,
8.92969,-368.40204,12.15359,-66.46851,0.13451,1.32055,1.32108,,,0.88750,0.44796,0.10565,0.02251,
8.93750,-375.82775,21.35934,-52.55227,0.15005,1.45815,1.39377,,,0.89861,0.42467,0.10793,0.02268,
8.94531,-378.78428,27.43726,-46.45296,0.11751,1.52256,1.43253,,,0.90913,0.40094,0.11033,0.02341,
8.95313,-384.28480,37.95811,-35.13068,-0.04517,1.71725,1.49116,,,0.91909,0.37667,0.11299,0.02516,
8.96094,-387.37884,41.15702,-31.16963,-0.18308,1.94121,1.48971,,,0.92844,0.35196,0.11566,0.02724,
8.96875,-387.00068,40.37507,-33.20274,-0.22290,2.08808,1.48292,,,0.93714,0.32702,0.11825,0.02915,
8.97656,-384.49107,36.10986,-42.91256,-0.24233,2.44038,1.36082,,,0.94517,0.30194,0.12071,0.03030,
8.98438,-381.50016,30.67171,-56.16278,-0.26272,2.71265,1.10982,,,0.95255,0.27675,0.12301,0.03044,
8.99219,-378.23423,26.08661,-61.63113,-0.29137,2.82194,0.93829,,,0.95926,0.25154,0.12504,0.03010,
9.00000,-365.44551,11.54936,-67.23969,-0.36713,2.98199,0.56906,,,0.96526,0.22699,0.12616,0.02900,
9.00781,-344.16537,-9.42126,-62.12188,-0.46085,2.93368,0.16495,1023.104,25.8,0.97050,0.20379,0.12578,0.02772,
9.01563,-330.17342,-19.79994,-56.05762,-0.43851,2.82097,-0.04583,,,0.97511,0.18147,0.12460,0.02657,
9.02344,-291.22286,-28.89905,-44.34975,-0.20153,2.57553,-0.38405,,,0.97883,0.16178,0.12268,0.02573,
9.03125,-246.42799,-10.91408,-40.35365,0.05778,2.38573,-0.62972,,,0.98157,0.14501,0.12194,0.02498,
9.03906,-222.19132,6.85762,-42.52697,0.14034,2.34328,-0.69998,,,0.98366,0.12979,0.12243,0.02405,
9.04688,-174.02738,43.96495,-49.88820,0.12625,2.35938,-0.78429,,,0.98483,0.11764,0.12553,0.02254,
9.05469,-127.92614,60.84808,-53.49871,0.09129,2.33791,-0.89331,,,0.98537,0.10851,0.12984,0.02054,
9.06250,-104.27390,61.16797,-52.48216,0.02088,2.35157,-0.83226,,,0.98563,0.10097,0.13419,0.01839,
9.07031,-61.74800,49.33201,-49.74799,0.19618,2.43550,-0.85067,,,0.98564,0.09633,0.13776,0.01595,
9.07813,-28.36671,35.86105,-46.31275,0.34575,2.49746,-0.77750,,,0.98553,0.09397,0.14044,0.01335,
9.08594,-14.64979,30.24519,-41.51042,0.39771,2.51259,-0.71354,,,0.98536,0.09258,0.14273,0.01089,
9.09375,5.46149,18.48032,-23.35270,0.44676,2.46038,-0.63844,,,0.98516,0.09273,0.14412,0.00939,
9.10156,14.33108,12.40240,-10.87366,0.42442,2.38231,-0.59531,,,0.98495,0.09360,0.14502,0.00860,
9.10938,33.82355,-4.69399,19.09709,0.34138,2.17738,-0.52263,,,0.98477,0.09608,0.14460,0.00952,
9.11719,54.31300,-20.97287,49.24310,0.37974,1.78898,-0.24353,,,0.98457,0.10024,0.14290,0.01216,
9.12500,67.92678,-25.09591,66.34921,0.10926,1.52646,-0.29586,,,0.98427,0.10548,0.14082,0.01578,
9.13281,141.53063,-83.60037,116.54582,-0.10975,0.76430,0.12085,,,0.98384,0.11618,0.13451,0.02164,
9.14063,218.60668,-101.65643,141.60907,0.47589,0.95753,1.75766,,,0.98265,0.13227,0.12686,0.02833,
9.14844,214.55005,-92.02416,145.71033,0.36469,0.01629,2.10024,,,0.98106,0.14805,0.11977,0.03540,
9.15625,152.63481,-57.68922,130.70743,0.01359,0.38225,2.23931,,,0.97958,0.15945,0.11494,0.04231,
9.16406,121.04119,-17.66733,107.64223,0.01359,0.09583,0.26913,,,0.97803,0.16842,0.11293,0.04835,
9.17188,150.98465,-16.60103,100.94701,0.11751,0.24269,-0.16697,,,0.97602,0.17931,0.11116,0.05373,
9.17969,219.67241,-0.07334,77.35600,-0.20785,1.44791,1.12678,,,0.97292,0.19449,0.11100,0.05720,
9.18750,193.54493,11.72707,46.92957,-0.76678,2.01928,1.95148,,,0.96999,0.20763,0.11190,0.05900,
9.19531,166.55800,-0.03780,41.84681,-0.69589,1.72506,1.65978,,,0.96740,0.21895,0.11197,0.06049,
9.20313,147.82185,-19.37342,43.77475,-0.44920,1.17515,1.30994,,,0.96511,0.22911,0.11064,0.06196,
9.21094,144.69343,-22.99885,33.08343,-0.43220,1.38252,1.47469,,,0.96283,0.23897,0.10922,0.06268,
9.21875,137.61151,-30.85394,29.99872,-0.38801,1.51378,1.62877,,,0.96064,0.24835,0.10729,0.06312,
9.22656,104.50525,-44.75142,30.59463,-0.00826,1.19320,1.29589,,,0.95903,0.25561,0.10429,0.06360,
9.23438,91.75092,-39.84643,31.05033,-0.22533,0.98973,1.11224,,,0.95756,0.26199,0.10153,0.06428,
9.24219,80.57798,-45.78218,35.04643,-0.26418,0.91996,1.08705,,,0.95626,0.26769,0.09827,0.06519,
9.25000,60.22606,-51.57575,35.95782,-0.25155,0.80968,1.05894,,,0.95533,0.27209,0.09452,0.06619,
9.25781,52.04403,-52.28662,35.39696,-0.15249,0.91068,1.14325,,,0.95453,0.27594,0.09069,0.06719,
9.26563,26.91352,-46.10207,29.78840,0.04661,0.91215,1.16506,,,0.95416,0.27808,0.08725,0.06810,
9.27344,8.10862,-34.30165,21.90137,0.09032,0.67013,1.02115,,,0.95410,0.27890,0.08464,0.06882,
9.28125,2.53934,-27.90384,19.02698,-0.07867,0.60670,0.98771,,,0.95413,0.27930,0.08247,0.06951,
9.28906,-2.96118,-24.42058,15.73195,-0.11412,0.55010,0.88354,,,0.95424,0.27931,0.08057,0.07009,
9.29688,-1.10475,-19.16016,13.45347,-0.04614,0.54571,0.87675,,,0.95430,0.27941,0.07906,0.07061,
9.30469,0.82043,-15.35701,11.28016,-0.02720,0.51301,0.88790,,,0.95432,0.27959,0.07785,0.07104,
9.31250,3.81134,-9.03028,7.66964,-0.00243,0.62134,0.86512,,,0.95425,0.27993,0.07713,0.07135,
9.32031,4.53328,-3.41442,4.69010,-0.05682,0.59987,0.90582,,,0.95416,0.28026,0.07684,0.07157,
9.32813,4.80831,-3.16562,2.41162,-0.01506,0.53546,0.87384,,,0.95408,0.28060,0.07661,0.07164,
9.33594,6.49284,0.42427,1.64044,-0.10927,0.50911,0.86512,,,0.95394,0.28103,0.07664,0.07172,
9.34375,8.41802,-0.71312,2.72710,-0.07965,0.54961,0.81037,,,0.95377,0.28160,0.07659,0.07184,
9.35156,9.72440,0.21101,3.56838,-0.18405,0.59743,0.86609,,,0.95356,0.28225,0.07658,0.07202,
9.35938,9.31186,-2.49029,3.88387,-0.08984,0.49984,0.86028,,,0.95338,0.28288,0.07639,0.07218,
9.36719,10.37758,-2.59692,5.35611,-0.15637,0.60231,0.78808,,,0.95317,0.28360,0.07617,0.07242,
9.37500,10.99639,-3.37888,5.67160,-0.13403,0.55400,0.77451,,,0.95294,0.28436,0.07589,0.07267,
9.38281,11.20266,-2.63247,4.76020,-0.14083,0.49838,0.79583,,,0.95271,0.28513,0.07568,0.07287,
9.39063,11.85585,-4.65844,5.84686,-0.12141,0.53399,0.81909,,,0.95248,0.28595,0.07533,0.07310,
9.39844,11.71834,-5.54703,6.89847,-0.12529,0.55546,0.80068,,,0.95224,0.28677,0.07489,0.07338,
9.40625,12.64655,-5.86692,7.17890,-0.07819,0.55205,0.82975,,,0.95199,0.28766,0.07443,0.07366,
9.41406,12.02774,-4.65844,6.65309,-0.10247,0.51204,0.83266,,,0.95174,0.28850,0.07406,0.07394,
9.42188,11.89023,-4.12529,6.51288,-0.11364,0.58962,0.81037,,,0.95150,0.28932,0.07373,0.07422,
9.42969,10.44634,-3.02345,6.40772,-0.12675,0.55986,0.83314,,,0.95127,0.29005,0.07346,0.07453,
9.43750,9.69002,-2.17040,5.84686,-0.10101,0.51009,0.84186,,,0.95106,0.29072,0.07325,0.07482,
9.44531,9.00245,-0.85530,5.53138,-0.06022,0.51741,0.81957,,,0.95086,0.29133,0.07313,0.07511,
9.45313,8.89932,1.24176,5.00558,-0.07916,0.52472,0.80988,,,0.95065,0.29193,0.07316,0.07542,
9.46094,9.00245,0.60198,4.12924,-0.05488,0.50716,0.84865,,,0.95045,0.29253,0.07316,0.07565,
9.46875,9.10559,3.05448,2.37657,-0.10053,0.49984,0.84380,,,0.95024,0.29311,0.07336,0.07582,
9.47656,9.48375,2.09481,2.44667,-0.01992,0.59499,0.78033,,,0.95003,0.29373,0.07349,0.07597,
9.48438,9.31186,4.76056,1.71055,-0.06216,0.56864,0.80358,,,0.94981,0.29432,0.07381,0.07613,
9.49219,7.90235,6.67991,-0.81330,-0.08207,0.49106,0.83605,,,0.94962,0.29479,0.07430,0.07618,
9.50000,7.90235,5.72024,-0.14729,-0.09956,0.55742,0.81085,,,0.94943,0.29527,0.07472,0.07624,
9.50781,7.42105,6.18230,-0.07718,-0.13792,0.57645,0.77063,,,0.94925,0.29572,0.07516,0.07632,
9.51563,6.18344,5.18708,0.09809,-0.12918,0.50033,0.82297,,,0.94910,0.29609,0.07552,0.07640,
9.52344,5.42711,3.97861,1.21980,-0.15152,0.50179,0.84768,,,0.94896,0.29643,0.07579,0.07653,
9.53125,4.87706,1.09959,4.83031,-0.17385,0.63793,0.78178,,,0.94883,0.29676,0.07578,0.07684,
9.53906,1.64551,0.42427,6.47783,-0.11801,0.54668,0.83266,,,0.94876,0.29690,0.07569,0.07726,
9.54688,0.71729,1.84600,6.96857,-0.11558,0.51741,0.82248,,,0.94870,0.29697,0.07567,0.07775,
9.55469,-0.34843,0.10438,9.21200,-0.05876,0.54424,0.79341,,,0.94866,0.29699,0.07549,0.07835,
9.56250,-2.27361,0.85079,12.82251,-0.19619,0.65500,0.70619,,,0.94863,0.29691,0.07527,0.07920,
9.57031,-3.61437,0.10438,15.55668,-0.16366,0.55107,0.76094,,,0.94862,0.29676,0.07495,0.08023,
9.57813,-3.95815,0.74416,18.08053,-0.09470,0.43153,0.84816,,,0.94860,0.29659,0.07461,0.08143,
9.58594,-2.92680,-1.74388,11.77090,0.08449,0.59792,0.79099,,,0.94860,0.29647,0.07424,0.08218,
9.59375,-3.71750,2.20144,5.77676,-0.02429,0.55986,0.84671,,,0.94863,0.29624,0.07424,0.08261,
9.60156,-3.16745,4.12078,-2.77630,-0.17822,0.46080,0.87142,,,0.94869,0.29600,0.07455,0.08253,
9.60938,1.06108,1.56166,-1.58448,-0.20202,0.53692,0.84235,,,0.94867,0.29605,0.07469,0.08246,
9.61719,2.98626,0.49535,-1.37416,-0.14035,0.53790,0.80843,,,0.94862,0.29623,0.07477,0.08236,
9.62500,5.90841,0.13992,-1.68964,-0.12092,0.46568,0.84429,,,0.94851,0.29661,0.07484,0.08222,
9.63281,10.75574,-1.63725,1.57034,-0.13355,0.54034,0.82684,,,0.94829,0.29732,0.07477,0.08224,
9.64063,13.57476,-3.13008,3.46322,-0.16171,0.56181,0.86028,,,0.94801,0.29823,0.07457,0.08233,
9.64844,19.17842,-6.08018,6.51288,-0.14326,0.43787,0.85107,,,0.94761,0.29954,0.07415,0.08253,
9.65625,28.04801,-6.68442,11.56058,-0.20153,0.49398,0.89516,,,0.94701,0.30144,0.07364,0.08300,
9.66406,33.37664,-9.10137,13.10294,-0.17871,0.43055,0.85010,,,0.94629,0.30371,0.07297,0.08349,
9.67188,50.18760,-11.41169,16.11754,-0.09373,0.44080,0.94120,,,0.94521,0.30709,0.07219,0.08404,
9.67969,59.09157,-12.83343,16.25775,-0.03691,0.35492,0.92763,,,0.94393,0.31105,0.07136,0.08453,
9.68750,81.50620,-12.33582,18.25580,-0.11461,0.34175,0.79632,,,0.94215,0.31644,0.07065,0.08504,
9.69531,113.03106,-16.49440,20.88481,-0.01554,0.39786,0.90582,,,0.93964,0.32389,0.06979,0.08548,
9.70313,128.50127,-17.84505,21.62094,-0.12675,0.20415,0.93199,,,0.93672,0.33231,0.06892,0.08586,
9.71094,169.68642,-20.08429,21.58588,-0.05197,0.38956,1.09480,,,0.93278,0.34334,0.06813,0.08598,
9.71875,207.64002,-19.69331,24.77575,-0.10247,0.37395,1.07736,,,0.92778,0.35673,0.06751,0.08612,
9.72656,229.84837,-22.35906,27.72025,-0.06459,0.27734,0.96542,,,0.92201,0.37148,0.06676,0.08626,
9.73438,278.66550,-22.21689,36.90426,-0.17871,0.24806,1.07881,,,0.91467,0.38922,0.06606,0.08673,
9.74219,329.13278,-30.00090,48.05128,0.14422,0.43104,0.87869,,,0.90556,0.41003,0.06484,0.08743,
9.75000,360.10758,-24.52721,53.80005,-0.20105,0.54863,0.96155,,,0.89500,0.43251,0.06395,0.08845,
9.75781,411.57183,-38.53132,64.98212,-0.66481,0.49106,1.15440,,,0.88229,0.45794,0.06214,0.08944,
9.76563,462.89857,-76.59832,82.40371,-0.34867,0.86726,1.12678,,,0.86720,0.48634,0.05776,0.09000,
9.77344,484.04120,-77.59353,94.42706,-0.38558,0.82090,1.07929,,,0.85039,0.51550,0.05298,0.09105,
9.78125,540.90283,-89.07406,112.97036,-0.15783,1.28640,1.44513,,,0.83040,0.54742,0.04717,0.09244,
9.78906,553.58841,-68.21007,118.29849,0.20589,1.49670,1.41363,,,0.80861,0.57913,0.04235,0.09474,
9.79688,556.85435,-37.92708,112.86520,0.00825,1.86851,1.50860,,,0.78541,0.60993,0.03937,0.09779,
9.80469,538.56511,16.56098,90.04537,0.08595,2.84537,2.24270,,,0.76186,0.63844,0.04007,0.10178,
9.81250,499.68331,42.68539,76.58483,0.00776,2.71313,2.02465,,,0.73903,0.66390,0.04240,0.10619,
9.82031,432.68008,59.60406,68.31220,-0.33750,2.74436,2.40115,,,0.71847,0.68514,0.04543,0.11103,
9.82813,349.82849,14.85489,109.42996,-0.52204,2.01440,2.06099,,,0.70105,0.70227,0.04368,0.11596,
9.83594,321.05389,-13.43767,135.75514,-0.96880,1.48401,2.13271,,,0.68447,0.71790,0.03907,0.12081,
9.84375,270.41471,-70.30713,155.03456,-0.78184,0.85750,2.43410,,,0.67000,0.73132,0.03043,0.12385,
9.85156,178.86542,-43.15196,127.97326,-0.78232,2.56578,4.45370,,,0.66005,0.74000,0.02359,0.12715,
9.85938,75.21497,-32.91546,103.01517,-0.86002,1.63479,3.40126,,,0.65542,0.74379,0.01757,0.13000,
9.86719,-31.11697,-1.06856,44.19539,-1.25531,0.52033,2.28389,,,0.65662,0.74244,0.01502,0.13195,
9.87500,-72.47401,-23.74526,10.01823,-1.13391,0.02410,1.49213,,,0.66023,0.73940,0.01280,0.13126,
9.88281,-83.44068,-29.60992,-4.80940,-0.94015,-0.04617,1.31818,,,0.66450,0.73588,0.01097,0.12962,
9.89063,-100.49229,-31.31601,-29.20664,-0.63033,-0.24866,1.01291,,,0.66981,0.73155,0.01013,0.12679,
9.89844,-109.84318,-19.19570,-48.31080,-0.49387,-0.39504,0.80795,,,0.67571,0.72664,0.01072,0.12370,
9.90625,-112.31841,-11.41169,-55.91741,-0.45259,-0.38675,0.77742,,,0.68173,0.72149,0.01202,0.12064,
9.91406,-117.81893,2.37915,-68.43151,-0.42637,-0.32917,0.77160,,,0.68806,0.71590,0.01453,0.11766,
9.92188,-127.03231,9.52338,-77.47531,-0.45696,-0.21060,0.80116,,,0.69485,0.70975,0.01774,0.11461,
