Gait Up - Physilog data export
Created on: YYYY-MM-DD hh:mm:ss
Total data points: 22091

Time [128 hz],Gyro [128 hz],,,Accel [128 hz],,,Baro [1 hz],,Event [128 hz],Quaternion [128 hz],,,,
Time,Gyro X,Gyro Y,Gyro Z,Accel X,Accel Y,Accel Z,Pressure,Temperature,Quat W,Quat X,Quat Y,Quat Z,
[s],[deg/s],[deg/s],[deg/s],[g],[g],[g],[mBar],[degree C],[],[],[],[],
0.00781,0.41310,0.07220,-0.23146,-0.20107,0.92406,0.34274,1021.726,24.3,0.00000,0.00000,0.00000,0.00000,
0.01563,0.31010,0.00060,-0.44082,-0.21267,0.92454,0.34177,,,0.00000,0.00000,0.00000,0.00000,
0.02344,0.27576,-0.03520,-0.33614,-0.20542,0.91678,0.33934,,,0.00000,0.00000,0.00000,0.00000,
0.03125,0.44744,-0.03520,-0.30124,-0.21751,0.90805,0.33836,,,0.00000,0.00000,0.00000,0.00000,
0.03906,0.20709,0.10799,-0.65017,-0.21751,0.91047,0.33788,,,0.81851,0.55988,0.12876,0.00000,
0.04688,0.24142,0.07220,-0.71996,-0.22380,0.91629,0.33496,,,0.81850,0.55988,0.12879,-0.00004,
0.05469,0.10408,-0.14259,-0.78975,-0.20542,0.91532,0.33934,,,0.81850,0.55988,0.12881,-0.00009,
0.06250,0.24142,0.00060,-0.92932,-0.21026,0.92697,0.33545,,,0.81849,0.55989,0.12885,-0.00014,
0.07031,0.06975,0.07220,-0.89443,-0.20880,0.91193,0.33350,,,0.81849,0.55988,0.12888,-0.00019,
0.07813,0.06975,-0.10679,-1.24336,-0.21171,0.91532,0.34565,,,0.81848,0.55988,0.12893,-0.00027,
0.08594,0.06975,-0.07100,-1.24336,-0.21364,0.91096,0.33934,,,0.81848,0.55987,0.12897,-0.00034,
0.09375,0.34443,0.07220,-1.20847,-0.21461,0.91290,0.34371,,,0.81847,0.55988,0.12902,-0.00041,
0.10156,0.24142,0.07220,-1.20847,-0.22477,0.90708,0.33982,,,0.81846,0.55988,0.12907,-0.00047,
0.10938,0.24142,-0.14259,-1.17357,-0.21751,0.91193,0.34177,,,0.81845,0.55988,0.12911,-0.00055,
0.11719,0.27576,-0.10679,-1.27825,-0.21219,0.92018,0.34614,,,0.81844,0.55989,0.12915,-0.00062,
0.12500,0.27576,-0.17839,-1.10379,-0.21026,0.92745,0.34322,,,0.81843,0.55989,0.12918,-0.00069,
0.13281,0.17275,-0.17839,-1.10379,-0.21122,0.92309,0.34760,,,0.81843,0.55989,0.12921,-0.00076,
0.14063,0.27576,-0.07100,-1.03400,-0.21509,0.91872,0.34225,,,0.81842,0.55990,0.12925,-0.00083,
0.14844,0.06975,0.03640,-0.96421,-0.22041,0.90805,0.33982,,,0.81841,0.55989,0.12929,-0.00088,
0.15625,0.31010,-0.03520,-0.75485,-0.21461,0.91824,0.33934,,,0.81840,0.55991,0.12932,-0.00093,
0.16406,0.27576,-0.03520,-0.65017,-0.22525,0.91726,0.34031,,,0.81839,0.55991,0.12934,-0.00097,
0.17188,0.17275,-0.03520,-0.58039,-0.21654,0.91629,0.33885,,,0.81839,0.55992,0.12936,-0.00100,
0.17969,0.17275,-0.03520,-0.61528,-0.21364,0.90805,0.34031,,,0.81838,0.55992,0.12938,-0.00104,
0.18750,0.24142,-0.17839,-0.61528,-0.20058,0.91484,0.33982,,,0.81837,0.55993,0.12939,-0.00108,
0.19531,0.61912,-0.10679,-0.75485,-0.20735,0.91824,0.34079,,,0.81835,0.55996,0.12942,-0.00113,
0.20313,0.51611,0.07220,-0.75485,-0.21896,0.91532,0.34079,,,0.81833,0.55998,0.12945,-0.00118,
0.21094,0.44744,0.03640,-0.61528,-0.21751,0.91047,0.33788,,,0.81831,0.56000,0.12947,-0.00121,
0.21875,0.48177,-0.07100,-0.85953,-0.21509,0.90756,0.33885,,,0.81829,0.56002,0.12950,-0.00127,
0.22656,0.48177,-0.17839,-0.71996,-0.21896,0.90902,0.34128,,,0.81828,0.56004,0.12952,-0.00132,
0.23438,0.44744,-0.07100,-0.61528,-0.22138,0.91824,0.34274,,,0.81826,0.56006,0.12954,-0.00136,
0.24219,0.31010,-0.07100,-0.71996,-0.21606,0.91824,0.34663,,,0.81825,0.56007,0.12956,-0.00141,
0.25000,0.51611,-0.21419,-0.71996,-0.21122,0.91338,0.34128,,,0.81823,0.56009,0.12958,-0.00146,
0.25781,0.34443,-0.17839,-0.61528,-0.21074,0.91581,0.33885,,,0.81822,0.56011,0.12959,-0.00150,
0.26563,0.34443,-0.03520,-0.51060,-0.22090,0.91581,0.33885,,,0.81821,0.56012,0.12961,-0.00154,
0.27344,0.51611,-0.14259,-0.44082,-0.22283,0.90902,0.34322,,,0.81819,0.56015,0.12962,-0.00157,
0.28125,0.34443,0.00060,-0.40592,-0.22718,0.91532,0.34517,,,0.81817,0.56016,0.12963,-0.00160,
0.28906,0.34443,-0.35738,-0.51060,-0.20735,0.92745,0.34760,,,0.81816,0.56018,0.12963,-0.00164,
0.29688,0.48177,-0.17839,-0.58039,-0.21461,0.92309,0.33739,,,0.81815,0.56020,0.12965,-0.00169,
0.30469,0.58478,-0.14259,-0.37103,-0.21461,0.92115,0.34322,,,0.81813,0.56023,0.12965,-0.00172,
0.31250,0.44744,0.07220,-0.51060,-0.21606,0.91096,0.34031,,,0.81811,0.56025,0.12968,-0.00175,
0.32031,0.48177,-0.10679,-0.54549,-0.21509,0.91387,0.34225,,,0.81809,0.56027,0.12969,-0.00179,
0.32813,0.55045,-0.10679,-0.33614,-0.20348,0.91290,0.34809,,,0.81807,0.56030,0.12970,-0.00181,
0.33594,0.61912,-0.14259,-0.54549,-0.21703,0.91726,0.34177,,,0.81805,0.56033,0.12971,-0.00186,
0.34375,0.44744,-0.14259,-0.47571,-0.22138,0.90756,0.34371,,,0.81803,0.56035,0.12972,-0.00189,
0.35156,0.48177,-0.17839,-0.65017,-0.19961,0.91144,0.34225,,,0.81802,0.56037,0.12974,-0.00194,
0.35938,0.44744,-0.17839,-0.58039,-0.21026,0.91629,0.33691,,,0.81800,0.56039,0.12975,-0.00198,
0.36719,0.37877,-0.24998,-0.68507,-0.21026,0.92260,0.34031,,,0.81799,0.56041,0.12976,-0.00203,
0.37500,0.55045,-0.14259,-0.54549,-0.22283,0.91726,0.33982,,,0.81797,0.56043,0.12977,-0.00207,
0.38281,0.48177,-0.21419,-0.68507,-0.20977,0.90805,0.33836,,,0.81795,0.56045,0.12979,-0.00212,
0.39063,0.65345,-0.17839,-0.82464,-0.21171,0.91193,0.33836,,,0.81793,0.56048,0.12981,-0.00218,
0.39844,0.68779,-0.35738,-0.78975,-0.21848,0.91290,0.34760,,,0.81790,0.56051,0.12982,-0.00225,
0.40625,0.61912,-0.32158,-0.96421,-0.21558,0.92357,0.33691,,,0.81788,0.56054,0.12984,-0.00232,
0.41406,0.48177,-0.21419,-1.03400,-0.21703,0.91193,0.34468,,,0.81787,0.56056,0.12986,-0.00239,
0.42188,0.48177,-0.50057,-1.17357,-0.20203,0.90999,0.34906,,,0.81785,0.56057,0.12988,-0.00248,
0.42969,0.41310,-0.21419,-1.27825,-0.20832,0.91969,0.34177,,,0.81784,0.56058,0.12992,-0.00256,
0.43750,0.48177,-0.10679,-1.10379,-0.22525,0.91581,0.34565,,,0.81782,0.56060,0.12995,-0.00263,
0.44531,0.48177,-0.03520,-0.85953,-0.22573,0.90999,0.33788,,,0.81780,0.56062,0.12999,-0.00268,
0.45313,0.31010,0.03640,-0.85953,-0.22283,0.91241,0.34225,,,0.81779,0.56063,0.13002,-0.00273,
0.46094,0.34443,-0.17839,-0.78975,-0.21267,0.90756,0.33885,,,0.81778,0.56064,0.13004,-0.00279,
0.46875,0.31010,-0.24998,-0.68507,-0.20977,0.91726,0.33836,,,0.81777,0.56065,0.13005,-0.00284,
0.47656,0.27576,-0.03520,-0.71996,-0.22186,0.91581,0.33885,,,0.81776,0.56066,0.13008,-0.00288,
0.48438,0.24142,0.00060,-0.78975,-0.21122,0.91387,0.34177,,,0.81775,0.56067,0.13011,-0.00293,
0.49219,0.24142,-0.10679,-0.71996,-0.21558,0.90174,0.34031,,,0.81774,0.56068,0.13013,-0.00297,
0.50000,0.31010,-0.14259,-0.75485,-0.20784,0.91241,0.33496,,,0.81773,0.56069,0.13015,-0.00302,
0.50781,0.27576,0.03640,-0.68507,-0.22573,0.92163,0.34079,,,0.81772,0.56070,0.13018,-0.00306,
0.51563,0.27576,-0.03520,-0.51060,-0.22041,0.91096,0.34371,,,0.81771,0.56071,0.13020,-0.00310,
0.52344,0.34443,-0.17839,-0.54549,-0.21654,0.91096,0.34371,,,0.81770,0.56072,0.13021,-0.00314,
0.53125,0.31010,-0.07100,-0.54549,-0.20397,0.92697,0.34468,,,0.81769,0.56073,0.13022,-0.00317,
0.53906,0.41310,-0.10679,-0.37103,-0.20929,0.92212,0.33836,,,0.81767,0.56075,0.13023,-0.00320,
0.54688,0.24142,0.03640,-0.44082,-0.21364,0.91387,0.34517,,,0.81766,0.56076,0.13025,-0.00323,
0.55469,0.17275,0.14379,-0.47571,-0.21606,0.91096,0.34420,,,0.81765,0.56077,0.13028,-0.00325,
0.56250,0.10408,0.14379,-0.47571,-0.21509,0.90999,0.34565,,,0.81765,0.56077,0.13030,-0.00327,
0.57031,0.13842,0.17959,-0.33614,-0.21413,0.92309,0.34517,,,0.81764,0.56077,0.13033,-0.00328,
0.57813,0.20709,0.14379,-0.44082,-0.21896,0.91921,0.33253,,,0.81763,0.56078,0.13035,-0.00330,
0.58594,0.00107,0.10799,-0.26635,-0.22380,0.91678,0.34225,,,0.81763,0.56078,0.13037,-0.00331,
0.59375,0.00107,0.10799,-0.19656,-0.21219,0.91726,0.34128,,,0.81763,0.56078,0.13038,-0.00332,
0.60156,0.03541,0.10799,-0.09188,-0.20735,0.91290,0.33593,,,0.81763,0.56078,0.13039,-0.00332,
0.60938,0.00107,0.14379,-0.09188,-0.20929,0.91241,0.33885,,,0.81763,0.56078,0.13040,-0.00332,
0.61719,-0.10193,0.28698,0.11748,-0.21703,0.91096,0.35052,,,0.81763,0.56077,0.13041,-0.00330,
0.62500,0.03541,0.28698,0.22216,-0.22041,0.90708,0.34274,,,0.81762,0.56078,0.13042,-0.00328,
0.63281,0.06975,0.25118,0.08258,-0.21461,0.92648,0.34322,,,0.81762,0.56078,0.13043,-0.00327,
0.64063,-0.10193,0.21539,-0.16167,-0.21219,0.92406,0.34517,,,0.81762,0.56078,0.13045,-0.00327,
0.64844,-0.17060,0.32278,-0.26635,-0.21316,0.91872,0.33496,,,0.81762,0.56076,0.13048,-0.00327,
0.65625,-0.17060,0.32278,-0.40592,-0.21219,0.91484,0.34711,,,0.81763,0.56075,0.13051,-0.00328,
0.66406,-0.34228,0.25118,-0.26635,-0.20542,0.91435,0.34177,,,0.81764,0.56073,0.13054,-0.00328,
0.67188,-0.23928,0.32278,-0.30124,-0.21219,0.92066,0.34468,,,0.81764,0.56071,0.13057,-0.00328,
0.67969,-0.30795,0.53757,-0.30124,-0.22428,0.90805,0.34906,,,0.81765,0.56069,0.13061,-0.00328,
0.68750,-0.20494,0.39437,-0.26635,-0.21799,0.91726,0.33885,,,0.81766,0.56068,0.13064,-0.00327,
0.69531,-0.17060,0.43017,-0.19656,-0.22186,0.90708,0.34177,,,0.81766,0.56067,0.13067,-0.00327,
0.70313,-0.20494,0.25118,-0.26635,-0.21026,0.91775,0.34565,,,0.81766,0.56066,0.13069,-0.00327,
0.71094,-0.30795,0.46597,-0.16167,-0.21364,0.92115,0.34225,,,0.81767,0.56064,0.13073,-0.00326,
0.71875,-0.44529,0.50177,-0.12678,-0.21509,0.90125,0.33934,,,0.81768,0.56061,0.13076,-0.00324,
0.72656,-0.47963,0.60916,-0.16167,-0.22041,0.91338,0.33885,,,0.81770,0.56058,0.13080,-0.00322,
0.73438,-0.41095,0.60916,0.08258,-0.21413,0.91435,0.34128,,,0.81771,0.56056,0.13083,-0.00319,
0.74219,-0.30795,0.50177,0.01280,-0.21799,0.91969,0.34809,,,0.81771,0.56054,0.13086,-0.00317,
0.75000,-0.51396,0.64496,0.18726,-0.21751,0.91193,0.34711,,,0.81773,0.56052,0.13089,-0.00313,
0.75781,-0.51396,0.68076,0.29194,-0.22477,0.91387,0.34565,,,0.81774,0.56049,0.13091,-0.00308,
0.76563,-0.71998,0.68076,0.04769,-0.20155,0.92018,0.34809,,,0.81776,0.56045,0.13095,-0.00305,
0.77344,-0.85732,0.64496,0.08258,-0.20590,0.91872,0.35343,,,0.81779,0.56040,0.13098,-0.00301,
0.78125,-0.92599,0.75235,0.25705,-0.20929,0.91387,0.34031,,,0.81782,0.56036,0.13102,-0.00296,
0.78906,-0.92599,1.00294,0.50130,-0.22718,0.91096,0.34420,,,0.81785,0.56031,0.13105,-0.00288,
0.79688,-1.26935,1.14613,0.60598,-0.21799,0.90465,0.34031,,,0.81788,0.56024,0.13109,-0.00280,
0.80469,-1.26935,1.25352,0.78045,-0.21171,0.92891,0.34225,,,0.81792,0.56018,0.13113,-0.00269,
0.81250,-1.26935,1.11033,1.09448,-0.19961,0.91581,0.34663,,,0.81796,0.56012,0.13115,-0.00258,
0.82031,-0.99466,1.03873,0.43151,-0.21267,0.93085,0.34322,,,0.81799,0.56007,0.13120,-0.00251,
0.82813,-1.30368,1.03873,0.43151,-0.21267,0.90805,0.34322,,,0.81803,0.56000,0.13124,-0.00243,
0.83594,-1.23501,1.00294,0.25705,-0.20880,0.91193,0.34079,,,0.81807,0.55993,0.13128,-0.00237,
0.84375,-1.06333,0.82395,0.18726,-0.20880,0.91678,0.35052,,,0.81810,0.55988,0.13132,-0.00232,
0.85156,-1.06333,1.03873,0.57109,-0.22718,0.92115,0.35586,,,0.81813,0.55982,0.13136,-0.00223,
0.85938,-0.92599,1.07453,0.81534,-0.21654,0.90999,0.35538,,,0.81816,0.55978,0.13139,-0.00214,
0.86719,-1.02900,1.07453,0.71066,-0.20832,0.90902,0.34517,,,0.81819,0.55973,0.13142,-0.00205,
0.87500,-0.68564,0.71655,0.43151,-0.20687,0.92357,0.34614,,,0.81821,0.55969,0.13144,-0.00199,
0.88281,-0.85732,0.85975,0.08258,-0.21171,0.92891,0.34614,,,0.81823,0.55964,0.13149,-0.00195,
0.89063,-0.75431,0.75235,-0.02210,-0.21219,0.92454,0.35149,,,0.81825,0.55960,0.13153,-0.00191,
0.89844,-0.68564,0.68076,-0.09188,-0.20445,0.92018,0.35246,,,0.81827,0.55956,0.13157,-0.00189,
0.90625,-0.54830,0.50177,-0.26635,-0.20494,0.90514,0.35003,,,0.81829,0.55953,0.13161,-0.00188,
0.91406,-0.54830,0.50177,-0.44082,-0.21026,0.91484,0.34225,,,0.81831,0.55950,0.13166,-0.00188,
0.92188,-0.54830,0.60916,-0.65017,-0.21509,0.91824,0.34760,,,0.81832,0.55946,0.13172,-0.00188,
0.92969,-0.47963,0.75235,-0.44082,-0.21171,0.91435,0.35197,,,0.81833,0.55943,0.13178,-0.00188,
0.93750,-0.61697,0.53757,-0.65017,-0.21219,0.91678,0.34517,,,0.81835,0.55939,0.13183,-0.00189,
0.94531,-0.61697,0.46597,-0.65017,-0.21267,0.90950,0.34857,,,0.81837,0.55935,0.13188,-0.00190,
0.95313,-0.44529,0.57336,-0.51060,-0.20542,0.92163,0.34322,,,0.81838,0.55932,0.13193,-0.00190,
0.96094,-0.65130,0.64496,-0.65017,-0.22283,0.90999,0.34517,,,0.81840,0.55928,0.13199,-0.00191,
0.96875,-0.71998,0.71655,-0.54549,-0.22138,0.91047,0.34322,,,0.81842,0.55923,0.13205,-0.00190,
0.97656,-0.61697,0.68076,-0.26635,-0.22380,0.91144,0.34954,,,0.81844,0.55920,0.13210,-0.00189,
0.98438,-0.51396,0.39437,-0.05699,-0.21074,0.93182,0.35538,,,0.81846,0.55917,0.13213,-0.00187,
0.99219,-0.68564,0.53757,-0.16167,-0.22283,0.92309,0.36753,,,0.81848,0.55913,0.13216,-0.00185,
1.00000,-0.71998,0.57336,-0.09188,-0.20735,0.90659,0.35440,,,0.81850,0.55909,0.13220,-0.00183,
1.00781,-0.20494,0.50177,-0.02210,-0.20590,0.90465,0.34322,1021.724,24.3,0.81850,0.55907,0.13223,-0.00181,
1.01563,-0.23928,0.32278,-0.16167,-0.20735,0.91387,0.33302,,,0.81851,0.55906,0.13225,-0.00181,
1.02344,-0.30795,0.50177,-0.19656,-0.22138,0.91629,0.34857,,,0.81852,0.55904,0.13229,-0.00179,
1.03125,-0.13627,0.43017,-0.05699,-0.22186,0.91678,0.35392,,,0.81852,0.55903,0.13231,-0.00178,
1.03906,-0.06760,0.39437,-0.16167,-0.21461,0.90805,0.34565,,,0.81852,0.55903,0.13234,-0.00177,
1.04688,-0.06760,0.28698,-0.09188,-0.20929,0.91629,0.34031,,,0.81852,0.55902,0.13236,-0.00177,
1.05469,-0.06760,0.10799,-0.05699,-0.21364,0.91290,0.35052,,,0.81852,0.55902,0.13237,-0.00177,
1.06250,0.20709,0.10799,0.01280,-0.21606,0.92260,0.34274,,,0.81851,0.55903,0.13237,-0.00176,
1.07031,0.06975,0.17959,0.04769,-0.20590,0.91047,0.34274,,,0.81851,0.55903,0.13238,-0.00175,
1.07813,0.13842,0.03640,0.08258,-0.19913,0.91387,0.35586,,,0.81850,0.55904,0.13238,-0.00175,
1.08594,0.13842,0.25118,-0.02210,-0.21509,0.91435,0.35149,,,0.81849,0.55905,0.13240,-0.00174,
1.09375,0.24142,0.21539,0.08258,-0.21945,0.91969,0.35052,,,0.81848,0.55907,0.13241,-0.00173,
1.10156,0.27576,0.10799,0.15237,-0.21848,0.90708,0.35829,,,0.81847,0.55908,0.13241,-0.00172,
1.10938,0.34443,-0.07100,-0.09188,-0.20687,0.91872,0.34565,,,0.81846,0.55910,0.13241,-0.00173,
1.11719,0.51611,-0.24998,0.08258,-0.20735,0.91290,0.34420,,,0.81844,0.55913,0.13239,-0.00174,
1.12500,0.61912,-0.24998,-0.23146,-0.20735,0.91921,0.34711,,,0.81842,0.55916,0.13238,-0.00177,
1.13281,0.48177,-0.17839,-0.23146,-0.21122,0.91872,0.35197,,,0.81840,0.55919,0.13238,-0.00179,
1.14063,0.61912,0.03640,-0.30124,-0.21122,0.91144,0.34468,,,0.81838,0.55922,0.13240,-0.00181,
1.14844,0.48177,-0.14259,-0.47571,-0.20687,0.90174,0.34760,,,0.81836,0.55924,0.13241,-0.00185,
1.15625,0.65345,-0.07100,-0.33614,-0.21219,0.91921,0.34711,,,0.81834,0.55927,0.13241,-0.00188,
1.16406,0.65345,-0.17839,-0.51060,-0.21219,0.92212,0.34031,,,0.81831,0.55931,0.13242,-0.00192,
1.17188,0.89380,-0.39318,-0.65017,-0.21171,0.91824,0.35586,,,0.81828,0.55935,0.13243,-0.00198,
1.17969,0.75646,-0.42897,-0.92932,-0.19961,0.92212,0.35246,,,0.81826,0.55938,0.13244,-0.00205,
1.18750,0.89380,-0.64376,-1.03400,-0.19575,0.91532,0.35052,,,0.81823,0.55942,0.13244,-0.00214,
1.19531,0.92814,-0.67956,-1.06889,-0.21654,0.90465,0.34711,,,0.81820,0.55947,0.13244,-0.00224,
1.20313,0.89380,-0.39318,-1.20847,-0.21461,0.91144,0.35197,,,0.81817,0.55951,0.13247,-0.00233,
1.21094,0.99681,-0.46477,-1.38293,-0.21945,0.91726,0.34954,,,0.81813,0.55955,0.13249,-0.00243,
1.21875,1.09982,-0.67956,-1.52250,-0.20397,0.92163,0.34906,,,0.81810,0.55960,0.13251,-0.00255,
1.22656,1.34017,-0.78695,-1.87144,-0.20494,0.92212,0.35100,,,0.81805,0.55965,0.13254,-0.00270,
1.23438,1.20282,-1.00174,-2.08079,-0.21074,0.92066,0.34565,,,0.81802,0.55970,0.13256,-0.00287,
1.24219,1.13415,-0.75115,-2.25526,-0.20639,0.91241,0.34079,,,0.81798,0.55974,0.13261,-0.00303,
1.25000,1.09982,-0.96594,-2.32505,-0.20590,0.91193,0.33982,,,0.81795,0.55978,0.13264,-0.00321,
1.25781,0.79080,-0.89434,-2.35994,-0.20784,0.91435,0.34322,,,0.81792,0.55981,0.13268,-0.00338,
1.26563,0.75646,-0.67956,-2.25526,-0.22573,0.91969,0.34420,,,0.81790,0.55983,0.13273,-0.00354,
1.27344,0.85947,-0.64376,-2.01101,-0.22283,0.90853,0.34809,,,0.81787,0.55986,0.13277,-0.00368,
1.28125,0.72212,-0.60796,-2.22037,-0.20880,0.91872,0.34274,,,0.81785,0.55988,0.13282,-0.00384,
1.28906,0.72212,-0.64376,-1.97612,-0.19671,0.91290,0.34906,,,0.81783,0.55990,0.13286,-0.00398,
1.29688,0.61912,-0.53637,-1.90633,-0.21461,0.92891,0.34663,,,0.81781,0.55992,0.13290,-0.00411,
1.30469,0.58478,-0.42897,-1.73186,-0.21413,0.92163,0.34517,,,0.81779,0.55993,0.13295,-0.00423,
1.31250,0.41310,-0.32158,-1.62718,-0.21171,0.91629,0.35003,,,0.81778,0.55994,0.13299,-0.00433,
1.32031,0.48177,-0.28578,-1.41782,-0.21219,0.90562,0.34274,,,0.81776,0.55996,0.13303,-0.00443,
1.32813,0.55045,-0.24998,-1.38293,-0.21896,0.91387,0.33739,,,0.81774,0.55998,0.13307,-0.00452,
1.33594,0.37877,-0.28578,-1.41782,-0.22186,0.91484,0.34809,,,0.81773,0.55998,0.13311,-0.00461,
1.34375,0.41310,-0.28578,-1.17357,-0.21558,0.92406,0.35003,,,0.81772,0.56000,0.13313,-0.00469,
1.35156,0.34443,-0.24998,-1.24336,-0.20639,0.91338,0.34760,,,0.81770,0.56000,0.13317,-0.00478,
1.35938,0.17275,-0.07100,-1.17357,-0.20348,0.92309,0.34177,,,0.81770,0.56000,0.13321,-0.00485,
1.36719,0.03541,0.00060,-0.89443,-0.20832,0.91678,0.34663,,,0.81770,0.56000,0.13324,-0.00490,
1.37500,0.13842,0.07220,-0.71996,-0.22573,0.91629,0.34177,,,0.81769,0.56000,0.13327,-0.00493,
1.38281,0.00107,0.25118,-0.47571,-0.21606,0.90902,0.35052,,,0.81769,0.55999,0.13331,-0.00495,
1.39063,0.06975,0.10799,-0.33614,-0.21219,0.92503,0.34614,,,0.81768,0.55999,0.13333,-0.00497,
1.39844,0.00107,0.17959,-0.26635,-0.22235,0.91290,0.34857,,,0.81768,0.55999,0.13335,-0.00497,
1.40625,-0.03326,0.07220,-0.16167,-0.21219,0.91726,0.34906,,,0.81768,0.55999,0.13336,-0.00498,
1.41406,0.03541,0.17959,-0.02210,-0.21122,0.90999,0.35052,,,0.81768,0.55999,0.13337,-0.00498,
1.42188,0.06975,0.10799,-0.16167,-0.20542,0.92745,0.34031,,,0.81768,0.55999,0.13338,-0.00498,
1.42969,-0.13627,0.25118,-0.16167,-0.20155,0.91241,0.34031,,,0.81768,0.55998,0.13340,-0.00498,
1.43750,0.03541,0.25118,-0.16167,-0.21364,0.90805,0.33934,,,0.81767,0.55998,0.13342,-0.00498,
1.44531,0.06975,0.25118,-0.33614,-0.21654,0.91532,0.34711,,,0.81767,0.55999,0.13345,-0.00499,
1.45313,-0.06760,0.35858,-0.44082,-0.22573,0.90659,0.34954,,,0.81767,0.55998,0.13348,-0.00500,
1.46094,-0.06760,0.10799,-0.44082,-0.21993,0.93036,0.35878,,,0.81767,0.55997,0.13351,-0.00502,
1.46875,0.17275,0.00060,-0.12678,-0.21316,0.91824,0.34420,,,0.81766,0.55998,0.13351,-0.00503,
1.47656,-0.03326,0.32278,-0.12678,-0.20155,0.91241,0.34420,,,0.81766,0.55998,0.13353,-0.00502,
1.48438,-0.03326,0.21539,-0.30124,-0.21219,0.91193,0.34468,,,0.81766,0.55997,0.13356,-0.00503,
1.49219,0.10408,0.28698,-0.44082,-0.20348,0.91484,0.33739,,,0.81765,0.55997,0.13359,-0.00504,
1.50000,0.27576,0.25118,-0.37103,-0.22186,0.91969,0.34809,,,0.81764,0.55998,0.13362,-0.00506,
1.50781,0.20709,0.14379,-0.23146,-0.21558,0.91872,0.34906,,,0.81763,0.55999,0.13363,-0.00507,
1.51563,0.27576,0.07220,-0.44082,-0.21848,0.90756,0.34809,,,0.81762,0.56001,0.13366,-0.00509,
1.52344,0.20709,0.00060,-0.61528,-0.20010,0.91872,0.34809,,,0.81761,0.56001,0.13368,-0.00513,
1.53125,0.31010,-0.24998,-0.65017,-0.20203,0.91484,0.34565,,,0.81760,0.56002,0.13369,-0.00518,
1.53906,0.20709,-0.17839,-0.58039,-0.19768,0.91775,0.34760,,,0.81760,0.56003,0.13370,-0.00522,
1.54688,0.37877,0.07220,-0.58039,-0.21606,0.91193,0.34906,,,0.81758,0.56005,0.13373,-0.00525,
1.55469,0.34443,-0.03520,-0.61528,-0.21703,0.91484,0.34420,,,0.81757,0.56006,0.13375,-0.00529,
1.56250,0.48177,-0.10679,-0.54549,-0.20735,0.91629,0.34760,,,0.81755,0.56008,0.13376,-0.00533,
1.57031,0.55045,-0.03520,-0.58039,-0.21654,0.91872,0.35100,,,0.81753,0.56011,0.13378,-0.00537,
1.57813,0.37877,-0.03520,-0.65017,-0.21558,0.92551,0.34565,,,0.81751,0.56012,0.13381,-0.00541,
1.58594,0.31010,-0.03520,-0.71996,-0.20300,0.91581,0.34128,,,0.81750,0.56013,0.13383,-0.00545,
1.59375,0.17275,-0.07100,-0.85953,-0.21026,0.90611,0.34663,,,0.81750,0.56013,0.13386,-0.00550,
1.60156,0.34443,-0.10679,-0.89443,-0.19913,0.91969,0.33691,,,0.81748,0.56014,0.13389,-0.00556,
1.60938,0.34443,-0.03520,-0.92932,-0.22186,0.91532,0.33982,,,0.81747,0.56016,0.13392,-0.00562,
1.61719,0.37877,0.03640,-1.03400,-0.21848,0.91435,0.34954,,,0.81746,0.56017,0.13396,-0.00568,
1.62500,0.37877,-0.03520,-0.85953,-0.22283,0.90902,0.35246,,,0.81744,0.56018,0.13399,-0.00573,
1.63281,0.48177,-0.07100,-0.92932,-0.20542,0.92600,0.34809,,,0.81742,0.56020,0.13403,-0.00579,
1.64063,0.55045,-0.21419,-0.99911,-0.20784,0.91824,0.35100,,,0.81740,0.56022,0.13405,-0.00586,
1.64844,0.41310,-0.21419,-0.89443,-0.22138,0.91435,0.34565,,,0.81739,0.56024,0.13407,-0.00592,
1.65625,0.48177,-0.28578,-0.82464,-0.21606,0.91387,0.35440,,,0.81737,0.56025,0.13409,-0.00598,
1.66406,0.44744,-0.28578,-0.99911,-0.20445,0.91824,0.34954,,,0.81736,0.56027,0.13411,-0.00605,
1.67188,0.58478,-0.28578,-0.89443,-0.22186,0.90853,0.35732,,,0.81734,0.56029,0.13413,-0.00612,
1.67969,0.68779,-0.21419,-0.85953,-0.22332,0.91193,0.34954,,,0.81731,0.56032,0.13415,-0.00618,
1.68750,0.68779,-0.21419,-0.85953,-0.21848,0.91047,0.34274,,,0.81729,0.56036,0.13417,-0.00624,
1.69531,0.61912,-0.50057,-1.17357,-0.21219,0.92406,0.34614,,,0.81727,0.56038,0.13419,-0.00633,
1.70313,0.58478,-0.64376,-0.75485,-0.20590,0.90514,0.34906,,,0.81725,0.56040,0.13418,-0.00640,
1.71094,0.61912,-0.53637,-0.92932,-0.21413,0.91532,0.33885,,,0.81723,0.56043,0.13418,-0.00648,
1.71875,0.41310,-0.32158,-0.85953,-0.22573,0.90562,0.34420,,,0.81722,0.56044,0.13420,-0.00655,
1.72656,0.41310,-0.17839,-0.61528,-0.22235,0.90805,0.34225,,,0.81721,0.56046,0.13421,-0.00659,
1.73438,0.31010,-0.07100,-0.44082,-0.21558,0.91096,0.33982,,,0.81719,0.56048,0.13423,-0.00662,
1.74219,0.55045,-0.17839,-0.30124,-0.21316,0.91338,0.35149,,,0.81717,0.56050,0.13423,-0.00665,
1.75000,0.34443,-0.17839,-0.19656,-0.21074,0.91824,0.35343,,,0.81716,0.56052,0.13422,-0.00667,
1.75781,0.17275,-0.17839,-0.16167,-0.20929,0.90902,0.34857,,,0.81716,0.56053,0.13422,-0.00669,
1.76563,0.24142,-0.10679,-0.05699,-0.20252,0.92503,0.34371,,,0.81715,0.56054,0.13422,-0.00670,
1.77344,0.27576,-0.10679,-0.09188,-0.21026,0.91726,0.34711,,,0.81714,0.56056,0.13421,-0.00671,
1.78125,0.20709,0.14379,0.01280,-0.22041,0.91096,0.34274,,,0.81713,0.56057,0.13422,-0.00671,
1.78906,0.24142,0.07220,0.04769,-0.21848,0.90853,0.35197,,,0.81712,0.56058,0.13422,-0.00670,
1.79688,0.17275,0.14379,-0.23146,-0.21364,0.91532,0.34857,,,0.81711,0.56059,0.13424,-0.00671,
1.80469,0.13842,0.03640,-0.26635,-0.20977,0.91872,0.34809,,,0.81711,0.56059,0.13425,-0.00673,
1.81250,0.06975,0.07220,-0.23146,-0.21122,0.91435,0.34906,,,0.81710,0.56060,0.13427,-0.00674,
1.82031,0.31010,0.07220,-0.23146,-0.21461,0.93182,0.34517,,,0.81709,0.56061,0.13428,-0.00675,
1.82813,-0.06760,0.07220,-0.23146,-0.21413,0.90416,0.34468,,,0.81709,0.56061,0.13429,-0.00676,
1.83594,-0.03326,0.25118,-0.02210,-0.21461,0.91096,0.34517,,,0.81709,0.56060,0.13431,-0.00675,
1.84375,-0.03326,0.17959,-0.16167,-0.21122,0.91824,0.34711,,,0.81709,0.56060,0.13432,-0.00675,
1.85156,0.03541,0.17959,-0.05699,-0.21703,0.91678,0.35100,,,0.81709,0.56060,0.13433,-0.00675,
1.85938,0.03541,0.10799,0.01280,-0.22815,0.91144,0.35246,,,0.81709,0.56060,0.13434,-0.00674,
1.86719,0.10408,0.07220,-0.16167,-0.20300,0.92309,0.35392,,,0.81708,0.56061,0.13435,-0.00675,
1.87500,-0.03326,0.14379,-0.23146,-0.20590,0.91921,0.34809,,,0.81708,0.56060,0.13437,-0.00676,
1.88281,0.06975,0.07220,-0.30124,-0.20977,0.92794,0.34565,,,0.81708,0.56061,0.13438,-0.00677,
1.89063,0.00107,0.17959,-0.12678,-0.21122,0.91241,0.34711,,,0.81708,0.56060,0.13440,-0.00677,
1.89844,0.10408,0.28698,-0.16167,-0.21316,0.91338,0.34517,,,0.81707,0.56061,0.13442,-0.00677,
1.90625,-0.03326,0.28698,-0.16167,-0.21461,0.90659,0.33885,,,0.81707,0.56061,0.13444,-0.00677,
1.91406,0.06975,0.28698,-0.26635,-0.21509,0.92697,0.34274,,,0.81706,0.56061,0.13447,-0.00677,
1.92188,0.03541,0.14379,-0.09188,-0.21509,0.92212,0.34420,,,0.81706,0.56061,0.13448,-0.00677,
1.92969,-0.13627,0.25118,-0.19656,-0.21026,0.91726,0.35392,,,0.81706,0.56060,0.13450,-0.00677,
1.93750,-0.13627,0.28698,-0.40592,-0.20639,0.91144,0.34809,,,0.81707,0.56059,0.13453,-0.00678,
1.94531,-0.20494,0.32278,-0.37103,-0.20107,0.91726,0.35149,,,0.81707,0.56057,0.13456,-0.00679,
1.95313,0.00107,0.32278,-0.23146,-0.21558,0.90756,0.35100,,,0.81707,0.56057,0.13459,-0.00679,
1.96094,-0.13627,0.39437,-0.19656,-0.21654,0.91338,0.33982,,,0.81707,0.56056,0.13462,-0.00679,
1.96875,-0.27361,0.35858,-0.23146,-0.21171,0.90853,0.35149,,,0.81708,0.56055,0.13465,-0.00678,
1.97656,-0.17060,0.32278,-0.12678,-0.20445,0.92212,0.35003,,,0.81708,0.56054,0.13467,-0.00678,
1.98438,-0.06760,0.32278,-0.09188,-0.21461,0.93133,0.35829,,,0.81708,0.56053,0.13469,-0.00677,
1.99219,-0.17060,0.28698,-0.12678,-0.21799,0.91629,0.35197,,,0.81708,0.56052,0.13472,-0.00676,
2.00000,-0.13627,0.28698,-0.09188,-0.21026,0.91872,0.34517,,,0.81708,0.56051,0.13473,-0.00676,
2.00781,-0.03326,0.21539,-0.05699,-0.20784,0.90999,0.34079,1021.706,24.3,0.81708,0.56051,0.13475,-0.00675,
2.01563,-0.06760,0.32278,-0.02210,-0.20348,0.91387,0.33642,,,0.81708,0.56051,0.13477,-0.00674,
2.02344,-0.10193,0.43017,0.08258,-0.21751,0.91921,0.34857,,,0.81708,0.56050,0.13479,-0.00672,
2.03125,-0.17060,0.53757,0.22216,-0.21993,0.91096,0.35392,,,0.81709,0.56049,0.13481,-0.00668,
2.03906,-0.06760,0.32278,0.08258,-0.20590,0.91629,0.34371,,,0.81708,0.56049,0.13483,-0.00666,
2.04688,-0.13627,0.35858,0.18726,-0.20397,0.91193,0.33934,,,0.81709,0.56049,0.13484,-0.00664,
2.05469,-0.27361,0.46597,0.29194,-0.20880,0.91435,0.34420,,,0.81709,0.56047,0.13485,-0.00660,
2.06250,-0.23928,0.53757,0.36173,-0.20397,0.91193,0.33739,,,0.81710,0.56046,0.13487,-0.00656,
2.07031,-0.37662,0.64496,0.22216,-0.21171,0.90999,0.34517,,,0.81711,0.56044,0.13490,-0.00652,
2.07813,-0.51396,0.71655,0.43151,-0.20977,0.91290,0.34517,,,0.81712,0.56042,0.13492,-0.00646,
2.08594,-0.44529,0.68076,0.64087,-0.21606,0.91872,0.34906,,,0.81713,0.56040,0.13493,-0.00640,
2.09375,-0.47963,0.71655,0.50130,-0.20590,0.92551,0.34954,,,0.81714,0.56038,0.13495,-0.00634,
2.10156,-0.34228,0.60916,0.46641,-0.21219,0.91921,0.35440,,,0.81715,0.56037,0.13497,-0.00629,
2.10938,-0.44529,0.50177,0.43151,-0.19961,0.92212,0.34711,,,0.81716,0.56034,0.13498,-0.00624,
2.11719,-0.20494,0.35858,0.11748,-0.20639,0.91435,0.33788,,,0.81717,0.56033,0.13500,-0.00622,
2.12500,-0.03326,0.17959,-0.16167,-0.20300,0.92454,0.35052,,,0.81717,0.56033,0.13501,-0.00622,
2.13281,0.10408,0.32278,-0.37103,-0.21896,0.91047,0.34809,,,0.81716,0.56033,0.13505,-0.00623,
2.14063,0.13842,0.17959,-0.23146,-0.21896,0.90514,0.34857,,,0.81715,0.56034,0.13507,-0.00623,
2.14844,0.37877,-0.07100,-0.23146,-0.21413,0.92600,0.34031,,,0.81714,0.56036,0.13507,-0.00625,
2.15625,0.27576,0.00060,-0.30124,-0.21558,0.91290,0.34128,,,0.81713,0.56037,0.13508,-0.00627,
2.16406,0.17275,0.03640,-0.33614,-0.20784,0.91726,0.34420,,,0.81712,0.56038,0.13510,-0.00629,
2.17188,0.17275,0.07220,-0.44082,-0.20542,0.91144,0.34225,,,0.81711,0.56038,0.13512,-0.00632,
2.17969,0.27576,0.00060,-0.58039,-0.19913,0.91241,0.35052,,,0.81710,0.56039,0.13514,-0.00635,
2.18750,0.27576,-0.14259,-0.54549,-0.20590,0.91484,0.34517,,,0.81709,0.56040,0.13515,-0.00639,
2.19531,0.27576,0.10799,-0.40592,-0.22090,0.91290,0.34322,,,0.81708,0.56042,0.13517,-0.00641,
2.20313,0.31010,0.07220,-0.51060,-0.21122,0.91387,0.34371,,,0.81707,0.56043,0.13520,-0.00644,
2.21094,0.34443,0.03640,-0.44082,-0.21896,0.91484,0.35440,,,0.81705,0.56044,0.13522,-0.00646,
2.21875,0.17275,0.00060,-0.37103,-0.20590,0.91921,0.35246,,,0.81705,0.56045,0.13523,-0.00649,
2.22656,0.37877,0.03640,-0.40592,-0.20542,0.92260,0.34274,,,0.81703,0.56047,0.13525,-0.00651,
2.23438,0.20709,0.21539,-0.47571,-0.21799,0.90611,0.35392,,,0.81702,0.56047,0.13528,-0.00653,
2.24219,0.17275,0.14379,-0.40592,-0.20687,0.91629,0.34565,,,0.81701,0.56048,0.13530,-0.00655,
2.25000,0.31010,0.00060,-0.47571,-0.20784,0.90756,0.34468,,,0.81700,0.56049,0.13532,-0.00658,
2.25781,0.24142,0.14379,-0.33614,-0.21703,0.91775,0.34614,,,0.81699,0.56050,0.13534,-0.00659,
2.26563,0.41310,0.00060,-0.47571,-0.21558,0.92018,0.34809,,,0.81698,0.56052,0.13536,-0.00663,
2.27344,0.24142,0.00060,-0.47571,-0.21267,0.91387,0.34565,,,0.81697,0.56053,0.13538,-0.00665,
2.28125,0.31010,-0.10679,-0.54549,-0.20155,0.92163,0.34711,,,0.81696,0.56054,0.13539,-0.00669,
2.28906,0.20709,-0.10679,-0.71996,-0.20494,0.91290,0.34711,,,0.81695,0.56055,0.13541,-0.00674,
2.29688,0.31010,-0.03520,-0.51060,-0.20445,0.91241,0.34954,,,0.81694,0.56056,0.13543,-0.00677,
2.30469,0.37877,0.21539,-0.19656,-0.21461,0.91921,0.34760,,,0.81692,0.56058,0.13545,-0.00678,
2.31250,0.31010,0.14379,-0.37103,-0.21316,0.91532,0.34711,,,0.81691,0.56059,0.13547,-0.00679,
2.32031,0.17275,0.17959,-0.44082,-0.21413,0.91824,0.35440,,,0.81690,0.56060,0.13550,-0.00681,
2.32813,0.17275,-0.03520,-0.44082,-0.21461,0.92018,0.34857,,,0.81689,0.56061,0.13551,-0.00684,
2.33594,0.31010,0.07220,-0.58039,-0.20735,0.92309,0.34177,,,0.81688,0.56062,0.13554,-0.00687,
2.34375,0.24142,-0.10679,-0.61528,-0.20494,0.90659,0.34711,,,0.81687,0.56062,0.13556,-0.00691,
2.35156,0.37877,-0.10679,-0.75485,-0.20494,0.91338,0.34177,,,0.81686,0.56064,0.13558,-0.00696,
2.35938,0.44744,-0.21419,-0.71996,-0.20735,0.91241,0.33788,,,0.81684,0.56066,0.13559,-0.00702,
2.36719,0.41310,0.00060,-0.75485,-0.21122,0.91338,0.33982,,,0.81682,0.56067,0.13562,-0.00706,
2.37500,0.31010,-0.03520,-0.89443,-0.21413,0.91824,0.34760,,,0.81681,0.56068,0.13565,-0.00712,
2.38281,0.48177,-0.07100,-0.99911,-0.21654,0.90319,0.33691,,,0.81679,0.56070,0.13569,-0.00718,
2.39063,0.51611,-0.17839,-0.96421,-0.20348,0.91532,0.33885,,,0.81678,0.56072,0.13571,-0.00724,
2.39844,0.41310,-0.24998,-0.99911,-0.21171,0.91872,0.34760,,,0.81676,0.56073,0.13574,-0.00731,
2.40625,0.48177,-0.17839,-0.89443,-0.20735,0.91532,0.34079,,,0.81674,0.56075,0.13576,-0.00737,
2.41406,0.48177,-0.24998,-0.99911,-0.21171,0.92794,0.34565,,,0.81673,0.56077,0.13579,-0.00744,
2.42188,0.55045,-0.46477,-1.17357,-0.21074,0.91435,0.34468,,,0.81671,0.56079,0.13581,-0.00753,
2.42969,0.72212,-0.50057,-0.99911,-0.22090,0.91678,0.34371,,,0.81669,0.56082,0.13582,-0.00761,
2.43750,0.58478,-0.24998,-0.85953,-0.21219,0.91484,0.34565,,,0.81667,0.56084,0.13583,-0.00768,
2.44531,0.55045,-0.42897,-1.17357,-0.21364,0.92066,0.34760,,,0.81665,0.56086,0.13586,-0.00776,
2.45313,0.51611,-0.57216,-1.24336,-0.19720,0.91387,0.34809,,,0.81663,0.56088,0.13587,-0.00786,
2.46094,0.51611,-0.32158,-1.24336,-0.20058,0.91969,0.34225,,,0.81662,0.56090,0.13590,-0.00794,
2.46875,0.44744,-0.39318,-0.92932,-0.20784,0.91824,0.34420,,,0.81660,0.56091,0.13591,-0.00802,
2.47656,0.41310,-0.17839,-0.89443,-0.20929,0.91144,0.34322,,,0.81659,0.56093,0.13594,-0.00808,
2.48438,0.34443,-0.10679,-0.99911,-0.21413,0.90125,0.34031,,,0.81658,0.56094,0.13597,-0.00814,
2.49219,0.31010,-0.07100,-1.03400,-0.20832,0.91338,0.33836,,,0.81656,0.56095,0.13600,-0.00820,
2.50000,0.31010,-0.10679,-0.89443,-0.21509,0.92357,0.34371,,,0.81655,0.56095,0.13603,-0.00826,
2.50781,0.10408,-0.03520,-0.82464,-0.22090,0.91144,0.34954,,,0.81655,0.56095,0.13606,-0.00831,
2.51563,0.10408,0.00060,-0.96421,-0.20977,0.90805,0.34177,,,0.81654,0.56095,0.13610,-0.00836,
2.52344,0.13842,0.00060,-0.85953,-0.20735,0.91872,0.34420,,,0.81654,0.56095,0.13613,-0.00841,
2.53125,0.20709,-0.14259,-0.71996,-0.20687,0.91969,0.35052,,,0.81653,0.56095,0.13615,-0.00846,
2.53906,0.13842,0.00060,-0.75485,-0.21316,0.91775,0.35295,,,0.81652,0.56095,0.13618,-0.00850,
2.54688,0.17275,-0.03520,-0.68507,-0.21461,0.91581,0.35343,,,0.81652,0.56096,0.13620,-0.00854,
2.55469,0.37877,-0.03520,-0.71996,-0.20977,0.91387,0.34809,,,0.81650,0.56097,0.13623,-0.00859,
2.56250,0.55045,-0.21419,-0.78975,-0.21026,0.93425,0.35635,,,0.81648,0.56100,0.13625,-0.00865,
2.57031,0.58478,-0.35738,-0.61528,-0.20252,0.92309,0.35149,,,0.81646,0.56102,0.13625,-0.00870,
2.57813,0.48177,-0.14259,-0.51060,-0.20784,0.92503,0.34079,,,0.81645,0.56104,0.13626,-0.00874,
2.58594,0.41310,-0.14259,-0.75485,-0.20107,0.90368,0.34177,,,0.81643,0.56106,0.13628,-0.00879,
2.59375,0.37877,-0.10679,-0.89443,-0.20639,0.91338,0.34031,,,0.81642,0.56107,0.13631,-0.00885,
2.60156,0.34443,-0.07100,-1.13868,-0.23154,0.91387,0.34371,,,0.81640,0.56108,0.13635,-0.00891,
2.60938,0.34443,-0.07100,-0.78975,-0.21509,0.91435,0.35003,,,0.81639,0.56109,0.13638,-0.00896,
2.61719,0.20709,0.03640,-0.47571,-0.22041,0.91193,0.34711,,,0.81638,0.56110,0.13640,-0.00899,
2.62500,0.06975,-0.10679,-0.54549,-0.19478,0.91775,0.34128,,,0.81638,0.56110,0.13641,-0.00903,
2.63281,-0.23928,0.21539,-0.75485,-0.21026,0.91775,0.34177,,,0.81639,0.56108,0.13645,-0.00906,
2.64063,-0.23928,0.03640,-0.65017,-0.21606,0.91824,0.34420,,,0.81640,0.56106,0.13648,-0.00909,
2.64844,-0.23928,0.25118,-0.33614,-0.20784,0.90950,0.34468,,,0.81640,0.56104,0.13651,-0.00910,
2.65625,-0.27361,0.25118,-0.61528,-0.20639,0.91387,0.35246,,,0.81641,0.56102,0.13654,-0.00912,
2.66406,-0.20494,0.39437,-0.12678,-0.20977,0.90902,0.35003,,,0.81641,0.56101,0.13657,-0.00911,
2.67188,0.06975,0.25118,-0.19656,-0.20639,0.92551,0.34274,,,0.81641,0.56101,0.13659,-0.00911,
2.67969,-0.10193,0.21539,-0.05699,-0.21509,0.92212,0.35052,,,0.81641,0.56101,0.13661,-0.00911,
2.68750,0.03541,0.25118,-0.16167,-0.20929,0.92066,0.34711,,,0.81641,0.56101,0.13663,-0.00911,
2.69531,-0.13627,0.14379,-0.37103,-0.20397,0.91241,0.34322,,,0.81641,0.56100,0.13665,-0.00912,
2.70313,0.17275,0.03640,-0.30124,-0.20494,0.91824,0.34517,,,0.81640,0.56100,0.13666,-0.00914,
2.71094,0.06975,0.07220,-0.40592,-0.20977,0.90902,0.34128,,,0.81640,0.56100,0.13668,-0.00916,
2.71875,0.13842,0.21539,-0.47571,-0.21509,0.90853,0.34322,,,0.81639,0.56101,0.13671,-0.00918,
2.72656,-0.03326,0.28698,-0.54549,-0.21364,0.90902,0.34711,,,0.81639,0.56100,0.13675,-0.00920,
2.73438,0.13842,0.00060,-0.51060,-0.21413,0.91824,0.34711,,,0.81639,0.56100,0.13677,-0.00922,
2.74219,0.31010,0.03640,-0.61528,-0.20639,0.92115,0.35100,,,0.81637,0.56101,0.13679,-0.00926,
2.75000,-0.03326,-0.07100,-0.65017,-0.21171,0.92551,0.34420,,,0.81637,0.56101,0.13681,-0.00930,
2.75781,0.00107,-0.07100,-0.65017,-0.21413,0.91775,0.34906,,,0.81637,0.56100,0.13684,-0.00934,
2.76563,0.27576,0.00060,-0.61528,-0.20300,0.91969,0.34954,,,0.81636,0.56101,0.13686,-0.00937,
2.77344,0.24142,-0.17839,-0.71996,-0.19284,0.92018,0.33982,,,0.81636,0.56102,0.13688,-0.00942,
2.78125,0.20709,0.03640,-0.75485,-0.21751,0.91290,0.34906,,,0.81635,0.56102,0.13691,-0.00947,
2.78906,0.37877,0.00060,-0.58039,-0.22864,0.91872,0.34906,,,0.81633,0.56104,0.13693,-0.00950,
2.79688,0.34443,-0.17839,-0.65017,-0.21896,0.91872,0.34322,,,0.81632,0.56105,0.13694,-0.00955,
2.80469,0.37877,-0.10679,-0.51060,-0.20252,0.91581,0.34079,,,0.81631,0.56107,0.13696,-0.00958,
2.81250,0.34443,-0.14259,-0.65017,-0.20107,0.91241,0.34420,,,0.81629,0.56108,0.13697,-0.00963,
2.82031,0.24142,0.07220,-0.85953,-0.20832,0.90853,0.34177,,,0.81628,0.56108,0.13701,-0.00968,
2.82813,0.34443,-0.10679,-0.54549,-0.20639,0.92018,0.34809,,,0.81627,0.56110,0.13703,-0.00971,
2.83594,0.24142,0.00060,-0.71996,-0.19961,0.91290,0.34322,,,0.81626,0.56110,0.13705,-0.00976,
2.84375,0.24142,0.00060,-0.58039,-0.21654,0.91969,0.34468,,,0.81625,0.56111,0.13707,-0.00979,
2.85156,0.20709,0.07220,-0.89443,-0.21606,0.92066,0.34663,,,0.81624,0.56112,0.13711,-0.00984,
2.85938,0.10408,0.14379,-0.68507,-0.22090,0.91338,0.34565,,,0.81624,0.56112,0.13715,-0.00987,
2.86719,-0.03326,-0.28578,-0.71996,-0.20155,0.91290,0.34128,,,0.81624,0.56111,0.13716,-0.00992,
2.87500,0.20709,-0.21419,-1.03400,-0.20590,0.92842,0.35052,,,0.81623,0.56111,0.13719,-0.00999,
2.88281,0.17275,-0.21419,-0.82464,-0.20252,0.92066,0.35246,,,0.81623,0.56111,0.13721,-0.01005,
2.89063,0.31010,0.03640,-0.82464,-0.21654,0.91775,0.34711,,,0.81622,0.56112,0.13724,-0.01010,
2.89844,0.20709,-0.10679,-0.78975,-0.20784,0.91435,0.34614,,,0.81621,0.56112,0.13726,-0.01015,
2.90625,0.34443,-0.03520,-0.82464,-0.21219,0.92454,0.34274,,,0.81619,0.56114,0.13729,-0.01020,
2.91406,0.34443,-0.14259,-0.75485,-0.21074,0.92454,0.34663,,,0.81618,0.56115,0.13731,-0.01025,
2.92188,0.34443,-0.17839,-0.85953,-0.21461,0.91921,0.34614,,,0.81617,0.56116,0.13734,-0.01030,
2.92969,0.31010,-0.14259,-0.96421,-0.20832,0.91678,0.33302,,,0.81616,0.56117,0.13736,-0.01037,
2.93750,0.37877,-0.10679,-0.89443,-0.20832,0.91241,0.34225,,,0.81615,0.56118,0.13739,-0.01042,
2.94531,0.10408,-0.24998,-1.03400,-0.20784,0.90853,0.34079,,,0.81614,0.56118,0.13742,-0.01049,
2.95313,0.24142,-0.10679,-0.71996,-0.21654,0.91338,0.34128,,,0.81613,0.56118,0.13744,-0.01054,
2.96094,0.20709,0.03640,-0.71996,-0.21413,0.91484,0.35149,,,0.81613,0.56119,0.13747,-0.01058,
2.96875,0.06975,0.03640,-0.85953,-0.21799,0.91726,0.34954,,,0.81612,0.56118,0.13750,-0.01063,
2.97656,0.03541,0.03640,-0.89443,-0.20590,0.92309,0.34663,,,0.81612,0.56118,0.13754,-0.01067,
2.98438,0.06975,0.07220,-0.68507,-0.20832,0.92066,0.35003,,,0.81612,0.56117,0.13757,-0.01071,
2.99219,-0.03326,0.25118,-0.71996,-0.21267,0.91241,0.35149,,,0.81611,0.56117,0.13761,-0.01074,
3.00000,-0.13627,0.10799,-0.71996,-0.20542,0.91290,0.34663,,,0.81612,0.56115,0.13765,-0.01078,
3.00781,-0.03326,0.21539,-0.71996,-0.20494,0.92309,0.35003,1021.717,24.3,0.81612,0.56114,0.13768,-0.01081,
3.01563,-0.03326,0.17959,-0.61528,-0.21751,0.91532,0.34711,,,0.81612,0.56113,0.13772,-0.01083,
3.02344,0.06975,0.21539,-0.58039,-0.22283,0.91581,0.34565,,,0.81611,0.56113,0.13775,-0.01086,
3.03125,0.20709,0.28698,-0.54549,-0.21558,0.91581,0.34371,,,0.81610,0.56114,0.13779,-0.01088,
3.03906,0.10408,0.07220,-0.68507,-0.21316,0.91629,0.34225,,,0.81609,0.56114,0.13782,-0.01092,
3.04688,0.17275,0.00060,-0.65017,-0.19284,0.91629,0.34031,,,0.81609,0.56114,0.13784,-0.01095,
3.05469,0.27576,-0.07100,-0.71996,-0.20252,0.92212,0.34614,,,0.81608,0.56115,0.13787,-0.01100,
3.06250,0.24142,0.28698,-0.61528,-0.21364,0.90999,0.33885,,,0.81606,0.56116,0.13791,-0.01102,
3.07031,0.06975,0.14379,-0.58039,-0.21799,0.90853,0.35538,,,0.81606,0.56116,0.13794,-0.01105,
3.07813,0.24142,-0.03520,-0.68507,-0.20929,0.90611,0.34614,,,0.81605,0.56116,0.13796,-0.01109,
3.08594,0.20709,0.10799,-0.40592,-0.21364,0.92212,0.35100,,,0.81604,0.56117,0.13798,-0.01111,
3.09375,0.24142,-0.03520,-0.61528,-0.22380,0.91872,0.34225,,,0.81603,0.56118,0.13800,-0.01115,
3.10156,-0.03326,0.21539,-0.75485,-0.20252,0.91096,0.34371,,,0.81603,0.56117,0.13804,-0.01119,
3.10938,-0.06760,-0.07100,-0.58039,-0.20590,0.91581,0.34420,,,0.81603,0.56116,0.13806,-0.01122,
3.11719,0.17275,-0.03520,-0.51060,-0.20203,0.92066,0.34517,,,0.81603,0.56117,0.13808,-0.01125,
3.12500,0.17275,0.10799,-0.44082,-0.21074,0.92018,0.34857,,,0.81602,0.56117,0.13810,-0.01127,
3.13281,0.03541,0.17959,-0.44082,-0.21558,0.92018,0.35489,,,0.81601,0.56117,0.13813,-0.01129,
3.14063,0.24142,0.14379,-0.44082,-0.21896,0.90271,0.33691,,,0.81600,0.56118,0.13815,-0.01131,
3.14844,0.34443,-0.07100,-0.44082,-0.21026,0.91629,0.33302,,,0.81599,0.56119,0.13817,-0.01134,
3.15625,0.27576,0.00060,-0.47571,-0.21558,0.91435,0.34322,,,0.81598,0.56121,0.13818,-0.01137,
3.16406,0.24142,0.07220,-0.51060,-0.20929,0.92163,0.34274,,,0.81597,0.56121,0.13821,-0.01140,
3.17188,0.34443,0.03640,-0.71996,-0.20542,0.91193,0.35100,,,0.81596,0.56123,0.13824,-0.01144,
3.17969,0.17275,0.03640,-0.68507,-0.19816,0.91726,0.34322,,,0.81595,0.56123,0.13827,-0.01148,
3.18750,0.13842,-0.10679,-0.58039,-0.21993,0.90805,0.34711,,,0.81594,0.56123,0.13828,-0.01152,
3.19531,0.17275,0.10799,-0.65017,-0.21606,0.91629,0.34517,,,0.81594,0.56124,0.13831,-0.01155,
3.20313,0.34443,0.03640,-0.47571,-0.21316,0.91678,0.35100,,,0.81592,0.56125,0.13833,-0.01158,
3.21094,0.10408,-0.10679,-0.51060,-0.20010,0.92503,0.34954,,,0.81592,0.56125,0.13835,-0.01161,
3.21875,0.31010,-0.03520,-0.61528,-0.20784,0.92503,0.35343,,,0.81591,0.56126,0.13837,-0.01165,
3.22656,0.27576,0.00060,-0.47571,-0.20107,0.92212,0.34517,,,0.81590,0.56127,0.13839,-0.01168,
3.23438,0.17275,0.00060,-0.51060,-0.21219,0.90950,0.34371,,,0.81589,0.56128,0.13840,-0.01171,
3.24219,0.31010,-0.03520,-0.54549,-0.20300,0.91629,0.33885,,,0.81588,0.56129,0.13842,-0.01175,
3.25000,0.31010,0.10799,-0.54549,-0.20445,0.91193,0.33934,,,0.81586,0.56130,0.13845,-0.01177,
3.25781,0.27576,0.03640,-0.65017,-0.21509,0.91872,0.33982,,,0.81585,0.56131,0.13848,-0.01181,
3.26563,0.20709,0.00060,-0.47571,-0.21509,0.91290,0.34954,,,0.81584,0.56132,0.13849,-0.01184,
3.27344,0.31010,-0.03520,-0.65017,-0.20058,0.92018,0.34031,,,0.81583,0.56133,0.13852,-0.01188,
3.28125,0.31010,0.00060,-0.61528,-0.20832,0.92066,0.34225,,,0.81582,0.56134,0.13854,-0.01192,
3.28906,0.20709,0.03640,-0.68507,-0.20590,0.91824,0.34177,,,0.81581,0.56135,0.13857,-0.01196,
3.29688,0.06975,0.14379,-0.58039,-0.21703,0.90805,0.35149,,,0.81581,0.56134,0.13860,-0.01198,
3.30469,0.20709,0.07220,-0.58039,-0.21703,0.91338,0.34371,,,0.81580,0.56135,0.13862,-0.01202,
3.31250,0.03541,0.14379,-0.47571,-0.21896,0.90902,0.35149,,,0.81579,0.56135,0.13865,-0.01204,
3.32031,0.00107,0.07220,-0.47571,-0.20542,0.92600,0.35003,,,0.81579,0.56134,0.13867,-0.01206,
3.32813,-0.13627,0.17959,-0.47571,-0.20687,0.91144,0.34371,,,0.81580,0.56133,0.13870,-0.01208,
3.33594,0.00107,0.07220,-0.47571,-0.21461,0.92115,0.34031,,,0.81579,0.56133,0.13872,-0.01210,
3.34375,-0.10193,0.10799,-0.51060,-0.20542,0.90853,0.35052,,,0.81580,0.56132,0.13875,-0.01213,
3.35156,0.00107,0.17959,-0.44082,-0.20880,0.91726,0.35197,,,0.81579,0.56131,0.13878,-0.01214,
3.35938,-0.13627,0.17959,-0.40592,-0.20010,0.91532,0.33788,,,0.81580,0.56130,0.13880,-0.01216,
3.36719,0.06975,0.32278,-0.26635,-0.21945,0.90805,0.34663,,,0.81579,0.56130,0.13883,-0.01216,
3.37500,-0.03326,0.32278,-0.33614,-0.21413,0.91775,0.34711,,,0.81579,0.56130,0.13886,-0.01217,
3.38281,-0.10193,0.17959,-0.44082,-0.20542,0.90853,0.35003,,,0.81579,0.56129,0.13889,-0.01218,
3.39063,-0.03326,0.14379,-0.40592,-0.20010,0.92115,0.33934,,,0.81579,0.56128,0.13891,-0.01220,
3.39844,-0.03326,0.28698,-0.33614,-0.20977,0.91484,0.34517,,,0.81579,0.56128,0.13894,-0.01221,
3.40625,-0.06760,0.39437,-0.51060,-0.20252,0.91387,0.34711,,,0.81579,0.56127,0.13898,-0.01222,
3.41406,-0.17060,0.10799,-0.54549,-0.20832,0.90950,0.34663,,,0.81579,0.56126,0.13901,-0.01224,
3.42188,-0.17060,0.10799,-0.68507,-0.20348,0.91921,0.34614,,,0.81580,0.56124,0.13904,-0.01228,
3.42969,-0.13627,0.21539,-0.51060,-0.21993,0.90999,0.35732,,,0.81580,0.56123,0.13907,-0.01230,
3.43750,0.03541,0.21539,-0.40592,-0.21219,0.91678,0.35440,,,0.81580,0.56123,0.13910,-0.01231,
3.44531,-0.03326,0.14379,-0.54549,-0.22283,0.91824,0.34614,,,0.81580,0.56122,0.13913,-0.01233,
3.45313,-0.06760,0.14379,-0.44082,-0.20590,0.92260,0.35392,,,0.81580,0.56121,0.13915,-0.01235,
3.46094,0.06975,0.07220,-0.26635,-0.19961,0.92697,0.34906,,,0.81579,0.56121,0.13917,-0.01237,
3.46875,0.13842,0.25118,-0.19656,-0.21267,0.91387,0.34468,,,0.81579,0.56122,0.13919,-0.01237,
3.47656,0.06975,0.21539,-0.19656,-0.21122,0.90708,0.34954,,,0.81578,0.56122,0.13921,-0.01237,
3.48438,0.06975,0.14379,-0.51060,-0.21703,0.91193,0.34517,,,0.81578,0.56122,0.13924,-0.01240,
3.49219,0.03541,0.07220,-0.33614,-0.21219,0.92115,0.34322,,,0.81577,0.56122,0.13925,-0.01241,
3.50000,0.03541,0.21539,-0.44082,-0.20977,0.92212,0.34954,,,0.81577,0.56122,0.13928,-0.01243,
3.50781,-0.10193,0.28698,-0.51060,-0.21267,0.91872,0.35052,,,0.81577,0.56121,0.13932,-0.01244,
3.51563,-0.13627,0.32278,-0.47571,-0.20252,0.91338,0.34371,,,0.81577,0.56120,0.13935,-0.01246,
3.52344,-0.03326,0.21539,-0.51060,-0.19671,0.92163,0.35489,,,0.81577,0.56119,0.13938,-0.01248,
3.53125,-0.10193,0.10799,-0.47571,-0.20832,0.91581,0.34614,,,0.81577,0.56118,0.13941,-0.01250,
3.53906,-0.34228,0.43017,-0.44082,-0.21896,0.91047,0.35392,,,0.81578,0.56116,0.13945,-0.01250,
3.54688,-0.13627,0.35858,-0.37103,-0.22186,0.90853,0.35927,,,0.81578,0.56115,0.13948,-0.01251,
3.55469,-0.20494,0.35858,-0.33614,-0.20929,0.91387,0.34809,,,0.81579,0.56113,0.13952,-0.01251,
3.56250,-0.13627,0.25118,-0.33614,-0.20687,0.91484,0.33739,,,0.81579,0.56112,0.13954,-0.01252,
3.57031,-0.20494,0.28698,-0.19656,-0.20542,0.92212,0.34857,,,0.81580,0.56111,0.13957,-0.01252,
3.57813,-0.06760,0.17959,-0.16167,-0.21122,0.90077,0.34274,,,0.81580,0.56110,0.13958,-0.01252,
3.58594,-0.03326,0.14379,-0.26635,-0.20397,0.90950,0.34322,,,0.81580,0.56110,0.13960,-0.01253,
3.59375,0.00107,0.21539,-0.40592,-0.20687,0.90514,0.34954,,,0.81579,0.56109,0.13963,-0.01254,
3.60156,0.03541,0.10799,-0.37103,-0.20542,0.91726,0.34565,,,0.81579,0.56109,0.13965,-0.01256,
3.60938,0.00107,0.17959,-0.51060,-0.21993,0.91824,0.36121,,,0.81579,0.56109,0.13968,-0.01258,
3.61719,0.00107,0.17959,-0.40592,-0.22041,0.90271,0.34711,,,0.81579,0.56108,0.13970,-0.01260,
3.62500,0.00107,0.10799,-0.47571,-0.20397,0.91338,0.34857,,,0.81579,0.56108,0.13973,-0.01262,
3.63281,0.00107,0.21539,-0.30124,-0.20203,0.91726,0.35197,,,0.81578,0.56108,0.13975,-0.01263,
3.64063,-0.10193,0.21539,-0.05699,-0.19720,0.92648,0.35052,,,0.81578,0.56107,0.13977,-0.01262,
3.64844,-0.10193,0.43017,-0.12678,-0.21267,0.91387,0.35392,,,0.81578,0.56107,0.13980,-0.01261,
3.65625,-0.20494,0.43017,-0.16167,-0.20542,0.91338,0.35295,,,0.81579,0.56105,0.13983,-0.01260,
3.66406,-0.03326,0.25118,-0.09188,-0.21703,0.92212,0.34371,,,0.81579,0.56105,0.13984,-0.01260,
3.67188,-0.10193,0.32278,0.15237,-0.20929,0.92115,0.34371,,,0.81579,0.56105,0.13986,-0.01258,
3.67969,-0.03326,0.32278,0.25705,-0.21606,0.91629,0.35003,,,0.81579,0.56105,0.13986,-0.01255,
3.68750,-0.03326,0.17959,0.01280,-0.20397,0.91290,0.34031,,,0.81579,0.56105,0.13987,-0.01254,
3.69531,0.00107,0.14379,-0.05699,-0.20832,0.91338,0.34517,,,0.81578,0.56105,0.13988,-0.01254,
3.70313,0.03541,0.10799,-0.19656,-0.19913,0.91581,0.34468,,,0.81578,0.56105,0.13990,-0.01254,
3.71094,0.31010,0.00060,-0.30124,-0.20977,0.90999,0.34420,,,0.81577,0.56106,0.13991,-0.01256,
3.71875,0.27576,0.14379,-0.51060,-0.21074,0.91241,0.34468,,,0.81576,0.56107,0.13994,-0.01259,
3.72656,0.24142,0.03640,-0.47571,-0.21848,0.91387,0.35197,,,0.81575,0.56108,0.13996,-0.01262,
3.73438,0.20709,-0.07100,-0.65017,-0.19865,0.92260,0.35343,,,0.81574,0.56108,0.13998,-0.01266,
3.74219,0.48177,-0.17839,-0.71996,-0.20058,0.92842,0.35829,,,0.81572,0.56110,0.13999,-0.01271,
3.75000,0.24142,-0.03520,-0.75485,-0.19816,0.91775,0.34225,,,0.81571,0.56111,0.14002,-0.01276,
3.75781,0.17275,-0.07100,-0.75485,-0.21074,0.91921,0.34565,,,0.81571,0.56111,0.14004,-0.01280,
3.76563,0.24142,-0.03520,-0.61528,-0.20058,0.91824,0.34954,,,0.81570,0.56112,0.14007,-0.01284,
3.77344,0.34443,-0.03520,-0.47571,-0.21945,0.91193,0.35149,,,0.81568,0.56114,0.14008,-0.01287,
3.78125,0.17275,0.00060,-0.54549,-0.21267,0.91338,0.35100,,,0.81568,0.56114,0.14010,-0.01290,
3.78906,0.37877,0.07220,-0.61528,-0.21316,0.91484,0.35003,,,0.81566,0.56115,0.14013,-0.01294,
3.79688,0.48177,-0.17839,-0.71996,-0.20348,0.92066,0.34128,,,0.81564,0.56117,0.14015,-0.01299,
3.80469,0.24142,0.03640,-0.58039,-0.19865,0.91338,0.34468,,,0.81563,0.56118,0.14017,-0.01302,
3.81250,0.31010,-0.10679,-0.65017,-0.20687,0.90756,0.34663,,,0.81562,0.56119,0.14019,-0.01307,
3.82031,0.27576,-0.03520,-0.68507,-0.20880,0.91047,0.34614,,,0.81561,0.56120,0.14021,-0.01311,
3.82813,0.17275,-0.14259,-0.51060,-0.21219,0.90950,0.34614,,,0.81560,0.56121,0.14023,-0.01314,
3.83594,0.24142,-0.10679,-0.78975,-0.20687,0.91775,0.34906,,,0.81560,0.56121,0.14025,-0.01319,
3.84375,0.34443,-0.17839,-0.71996,-0.20687,0.91775,0.34906,,,0.81558,0.56122,0.14027,-0.01324,
3.85156,0.31010,0.07220,-0.82464,-0.21026,0.91969,0.35440,,,0.81557,0.56123,0.14030,-0.01329,
3.85938,0.31010,-0.28578,-0.89443,-0.20639,0.90999,0.34857,,,0.81556,0.56124,0.14032,-0.01335,
3.86719,0.27576,-0.14259,-0.75485,-0.19816,0.91629,0.34322,,,0.81555,0.56125,0.14034,-0.01340,
3.87500,0.31010,-0.24998,-0.71996,-0.19623,0.92503,0.34857,,,0.81554,0.56126,0.14035,-0.01346,
3.88281,0.27576,0.03640,-0.68507,-0.21509,0.91872,0.34906,,,0.81553,0.56127,0.14038,-0.01349,
3.89063,0.41310,-0.03520,-0.61528,-0.22186,0.90708,0.35052,,,0.81551,0.56129,0.14040,-0.01353,
3.89844,0.31010,0.03640,-0.44082,-0.20880,0.90416,0.34420,,,0.81550,0.56130,0.14042,-0.01356,
3.90625,0.41310,-0.21419,-0.51060,-0.20445,0.91581,0.33788,,,0.81549,0.56132,0.14043,-0.01360,
3.91406,0.48177,-0.14259,-0.47571,-0.20832,0.92600,0.34128,,,0.81547,0.56134,0.14044,-0.01364,
3.92188,0.58478,-0.24998,-0.37103,-0.20639,0.91338,0.34079,,,0.81545,0.56137,0.14044,-0.01367,
3.92969,0.55045,-0.14259,-0.44082,-0.20107,0.91387,0.33691,,,0.81543,0.56139,0.14045,-0.01371,
3.93750,0.51611,-0.21419,-0.61528,-0.20832,0.91921,0.34420,,,0.81541,0.56142,0.14046,-0.01376,
3.94531,0.58478,-0.24998,-0.47571,-0.20687,0.91775,0.35052,,,0.81539,0.56144,0.14046,-0.01380,
3.95313,0.51611,-0.17839,-0.47571,-0.21945,0.90999,0.35586,,,0.81537,0.56147,0.14047,-0.01384,
3.96094,0.65345,-0.17839,-0.40592,-0.21848,0.92018,0.35392,,,0.81535,0.56150,0.14047,-0.01387,
3.96875,0.68779,-0.35738,-0.54549,-0.20397,0.92988,0.35003,,,0.81532,0.56153,0.14047,-0.01392,
3.97656,0.65345,-0.46477,-0.71996,-0.20203,0.92115,0.34711,,,0.81530,0.56156,0.14048,-0.01399,
3.98438,0.75646,-0.50057,-0.65017,-0.19720,0.92503,0.34274,,,0.81528,0.56160,0.14047,-0.01405,
3.99219,0.72212,-0.42897,-0.85953,-0.22912,0.90611,0.34274,,,0.81525,0.56163,0.14048,-0.01412,
4.00000,0.82513,-0.46477,-0.30124,-0.20348,0.92018,0.34954,,,0.81523,0.56167,0.14047,-0.01416,
4.00781,0.82513,-0.50057,-0.30124,-0.19865,0.91678,0.34177,1021.728,24.3,0.81520,0.56171,0.14045,-0.01421,
4.01563,0.82513,-0.42897,-0.33614,-0.21074,0.91824,0.34420,,,0.81517,0.56176,0.14044,-0.01425,
4.02344,0.79080,-0.35738,-0.40592,-0.23734,0.91775,0.35149,,,0.81514,0.56180,0.14043,-0.01429,
4.03125,0.72212,-0.60796,-0.09188,-0.20107,0.91193,0.34614,,,0.81512,0.56183,0.14040,-0.01433,
4.03906,0.72212,-0.24998,-0.30124,-0.19429,0.92406,0.33545,,,0.81510,0.56187,0.14040,-0.01436,
4.04688,0.48177,-0.17839,-0.51060,-0.20058,0.91726,0.35295,,,0.81508,0.56189,0.14041,-0.01440,
4.05469,0.34443,-0.17839,-0.54549,-0.21654,0.91241,0.35975,,,0.81507,0.56191,0.14042,-0.01444,
4.06250,0.41310,-0.28578,-0.71996,-0.20397,0.90853,0.33788,,,0.81505,0.56192,0.14043,-0.01450,
4.07031,0.34443,-0.07100,-0.99911,-0.20929,0.91484,0.33788,,,0.81504,0.56193,0.14046,-0.01456,
4.07813,0.34443,-0.14259,-0.96421,-0.21413,0.92260,0.34274,,,0.81503,0.56194,0.14049,-0.01462,
4.08594,0.34443,-0.17839,-0.85953,-0.20735,0.92309,0.34614,,,0.81501,0.56195,0.14051,-0.01468,
4.09375,0.37877,-0.21419,-0.92932,-0.21267,0.92454,0.34954,,,0.81500,0.56197,0.14054,-0.01474,
4.10156,0.27576,-0.21419,-0.96421,-0.20107,0.91387,0.34274,,,0.81499,0.56197,0.14056,-0.01481,
4.10938,0.24142,-0.24998,-0.99911,-0.20348,0.90174,0.33982,,,0.81498,0.56197,0.14059,-0.01487,
4.11719,0.27576,-0.14259,-0.82464,-0.19768,0.91338,0.34177,,,0.81497,0.56198,0.14061,-0.01493,
4.12500,0.31010,-0.10679,-0.61528,-0.21219,0.90805,0.34079,,,0.81496,0.56199,0.14063,-0.01497,
4.13281,0.24142,-0.14259,-0.71996,-0.21122,0.92018,0.34565,,,0.81495,0.56200,0.14065,-0.01502,
4.14063,0.24142,-0.14259,-0.44082,-0.19913,0.92018,0.35100,,,0.81495,0.56201,0.14065,-0.01505,
4.14844,0.31010,-0.24998,-0.71996,-0.20107,0.92503,0.34274,,,0.81494,0.56202,0.14067,-0.01510,
4.15625,0.27576,-0.28578,-0.68507,-0.20252,0.91435,0.34857,,,0.81493,0.56203,0.14068,-0.01515,
4.16406,0.37877,0.00060,-0.78975,-0.21122,0.91678,0.34517,,,0.81491,0.56204,0.14071,-0.01520,
4.17188,0.27576,0.00060,-0.82464,-0.21267,0.90271,0.33788,,,0.81490,0.56205,0.14074,-0.01525,
4.17969,0.51611,-0.17839,-1.06889,-0.20300,0.91193,0.33739,,,0.81488,0.56207,0.14077,-0.01532,
4.18750,0.31010,-0.21419,-0.75485,-0.21945,0.90999,0.34663,,,0.81487,0.56208,0.14079,-0.01537,
4.19531,0.27576,-0.03520,-0.89443,-0.21751,0.91678,0.34565,,,0.81486,0.56208,0.14082,-0.01543,
4.20313,0.06975,-0.14259,-0.92932,-0.20929,0.91241,0.34420,,,0.81486,0.56208,0.14085,-0.01548,
4.21094,0.10408,-0.03520,-0.92932,-0.20203,0.91824,0.34760,,,0.81485,0.56207,0.14088,-0.01554,
4.21875,0.13842,0.07220,-0.78975,-0.20397,0.92600,0.34420,,,0.81485,0.56207,0.14091,-0.01558,
4.22656,0.17275,0.17959,-0.71996,-0.21896,0.91193,0.34954,,,0.81484,0.56208,0.14095,-0.01561,
4.23438,0.20709,0.07220,-0.75485,-0.21751,0.90853,0.35003,,,0.81483,0.56208,0.14098,-0.01566,
4.24219,-0.06760,0.35858,-0.68507,-0.21606,0.91047,0.34468,,,0.81483,0.56207,0.14103,-0.01568,
4.25000,0.03541,-0.03520,-0.44082,-0.20735,0.91824,0.34517,,,0.81482,0.56207,0.14104,-0.01571,
4.25781,-0.06760,0.07220,-0.44082,-0.21606,0.91775,0.34954,,,0.81483,0.56206,0.14106,-0.01573,
4.26563,0.17275,0.25118,-0.65017,-0.21606,0.93036,0.35003,,,0.81482,0.56206,0.14110,-0.01576,
4.27344,0.03541,0.07220,-0.68507,-0.20494,0.91144,0.34468,,,0.81481,0.56206,0.14113,-0.01579,
4.28125,0.06975,0.14379,-0.54549,-0.19526,0.91387,0.33739,,,0.81481,0.56206,0.14116,-0.01582,
4.28906,-0.03326,0.14379,-0.68507,-0.20832,0.91532,0.33982,,,0.81481,0.56205,0.14120,-0.01585,
4.29688,-0.06760,0.32278,-0.75485,-0.21219,0.91581,0.35246,,,0.81481,0.56204,0.14124,-0.01588,
4.30469,0.03541,0.10799,-0.78975,-0.22041,0.91193,0.35246,,,0.81480,0.56203,0.14128,-0.01592,
4.31250,0.00107,0.10799,-0.75485,-0.20687,0.91241,0.33934,,,0.81480,0.56203,0.14131,-0.01595,
4.32031,0.13842,-0.03520,-0.71996,-0.21026,0.92454,0.34663,,,0.81480,0.56203,0.14134,-0.01600,
4.32813,0.17275,0.03640,-0.68507,-0.21122,0.92260,0.34468,,,0.81479,0.56203,0.14137,-0.01604,
4.33594,0.24142,0.07220,-0.75485,-0.20639,0.91338,0.34079,,,0.81478,0.56204,0.14140,-0.01608,
4.34375,0.20709,0.00060,-0.71996,-0.19913,0.91726,0.34322,,,0.81477,0.56204,0.14143,-0.01612,
4.35156,0.10408,0.07220,-0.61528,-0.20977,0.92212,0.35003,,,0.81476,0.56204,0.14146,-0.01615,
4.35938,0.13842,0.14379,-0.54549,-0.21509,0.92066,0.34420,,,0.81476,0.56204,0.14148,-0.01618,
4.36719,0.31010,0.00060,-0.47571,-0.22138,0.91047,0.34760,,,0.81474,0.56206,0.14150,-0.01621,
4.37500,0.34443,0.17959,-0.40592,-0.21267,0.91338,0.34274,,,0.81473,0.56207,0.14153,-0.01623,
4.38281,0.31010,-0.03520,-0.68507,-0.20058,0.91824,0.34760,,,0.81472,0.56208,0.14155,-0.01627,
4.39063,0.31010,0.07220,-0.65017,-0.20445,0.91872,0.34663,,,0.81470,0.56209,0.14158,-0.01630,
4.39844,0.37877,-0.03520,-0.65017,-0.20929,0.92648,0.34274,,,0.81469,0.56211,0.14160,-0.01635,
4.40625,0.24142,0.10799,-0.65017,-0.21122,0.91047,0.34565,,,0.81468,0.56212,0.14163,-0.01638,
4.41406,0.10408,0.17959,-0.54549,-0.21267,0.91290,0.35003,,,0.81467,0.56212,0.14166,-0.01640,
4.42188,0.20709,0.10799,-0.54549,-0.20832,0.92357,0.35149,,,0.81466,0.56212,0.14169,-0.01643,
4.42969,0.34443,-0.14259,-0.54549,-0.21413,0.92551,0.34760,,,0.81465,0.56214,0.14170,-0.01647,
4.43750,0.17275,0.03640,-0.58039,-0.20929,0.91824,0.34760,,,0.81464,0.56214,0.14173,-0.01650,
4.44531,0.24142,-0.03520,-0.54549,-0.20542,0.91824,0.34711,,,0.81463,0.56215,0.14175,-0.01654,
4.45313,0.10408,-0.10679,-0.47571,-0.19526,0.92115,0.35003,,,0.81463,0.56215,0.14176,-0.01657,
4.46094,0.10408,0.07220,-0.40592,-0.19478,0.91969,0.35197,,,0.81462,0.56215,0.14178,-0.01659,
4.46875,0.13842,0.10799,-0.12678,-0.20784,0.91435,0.34079,,,0.81462,0.56216,0.14179,-0.01659,
4.47656,0.24142,0.21539,-0.37103,-0.21413,0.91775,0.34420,,,0.81460,0.56217,0.14181,-0.01661,
4.48438,0.13842,0.14379,-0.30124,-0.21896,0.90465,0.34225,,,0.81460,0.56217,0.14183,-0.01662,
4.49219,0.27576,-0.07100,-0.40592,-0.20107,0.91435,0.34565,,,0.81459,0.56219,0.14184,-0.01665,
4.50000,0.31010,-0.03520,-0.65017,-0.21026,0.92745,0.34322,,,0.81457,0.56220,0.14187,-0.01669,
4.50781,0.20709,0.03640,-0.68507,-0.21364,0.91435,0.34371,,,0.81457,0.56220,0.14189,-0.01673,
4.51563,0.03541,0.17959,-0.89443,-0.21509,0.90514,0.33691,,,0.81456,0.56219,0.14194,-0.01677,
4.52344,0.20709,0.00060,-0.71996,-0.20010,0.91969,0.34128,,,0.81455,0.56220,0.14197,-0.01681,
4.53125,0.20709,0.21539,-0.61528,-0.21316,0.91629,0.34371,,,0.81454,0.56220,0.14200,-0.01684,
4.53906,0.06975,0.14379,-0.61528,-0.20977,0.92503,0.34906,,,0.81454,0.56220,0.14203,-0.01687,
4.54688,0.13842,0.14379,-0.58039,-0.21945,0.90950,0.35100,,,0.81453,0.56221,0.14206,-0.01690,
4.55469,0.24142,0.00060,-0.61528,-0.20348,0.91824,0.33642,,,0.81452,0.56221,0.14209,-0.01694,
4.56250,0.10408,0.00060,-0.54549,-0.20348,0.90999,0.34906,,,0.81451,0.56221,0.14211,-0.01697,
4.57031,0.13842,-0.03520,-0.61528,-0.20010,0.91629,0.34371,,,0.81451,0.56221,0.14213,-0.01700,
4.57813,0.06975,0.14379,-0.61528,-0.21703,0.90514,0.34177,,,0.81450,0.56221,0.14216,-0.01703,
4.58594,0.20709,0.07220,-0.61528,-0.20348,0.91193,0.33934,,,0.81449,0.56222,0.14219,-0.01707,
4.59375,0.20709,0.10799,-0.51060,-0.20590,0.90271,0.34906,,,0.81449,0.56223,0.14221,-0.01709,
4.60156,0.34443,0.00060,-0.47571,-0.21122,0.91096,0.33447,,,0.81447,0.56224,0.14223,-0.01712,
4.60938,0.31010,0.14379,-0.47571,-0.21509,0.92260,0.34420,,,0.81446,0.56225,0.14226,-0.01715,
4.61719,0.17275,0.03640,-0.51060,-0.20445,0.91581,0.33982,,,0.81445,0.56226,0.14228,-0.01717,
4.62500,0.27576,0.07220,-0.47571,-0.19429,0.91872,0.35100,,,0.81444,0.56227,0.14230,-0.01720,
4.63281,0.10408,0.03640,-0.71996,-0.20494,0.91775,0.34809,,,0.81443,0.56227,0.14233,-0.01724,
4.64063,0.10408,0.17959,-0.58039,-0.20832,0.91775,0.35100,,,0.81443,0.56227,0.14236,-0.01727,
4.64844,0.10408,0.17959,-0.85953,-0.21413,0.90805,0.35100,,,0.81442,0.56226,0.14240,-0.01731,
4.65625,0.17275,0.10799,-0.71996,-0.21026,0.91581,0.35489,,,0.81441,0.56227,0.14244,-0.01735,
4.66406,0.24142,-0.07100,-0.71996,-0.21074,0.92503,0.34225,,,0.81440,0.56227,0.14246,-0.01739,
4.67188,0.10408,-0.03520,-0.75485,-0.20977,0.91969,0.34420,,,0.81440,0.56227,0.14249,-0.01744,
4.67969,0.03541,0.14379,-0.54549,-0.20977,0.91921,0.34906,,,0.81439,0.56227,0.14252,-0.01746,
4.68750,0.06975,0.14379,-0.58039,-0.20542,0.90708,0.34468,,,0.81439,0.56227,0.14255,-0.01749,
4.69531,0.17275,0.21539,-0.68507,-0.20397,0.91581,0.34128,,,0.81438,0.56227,0.14258,-0.01752,
4.70313,0.17275,0.07220,-0.58039,-0.21606,0.92454,0.34371,,,0.81437,0.56227,0.14261,-0.01755,
4.71094,0.13842,0.10799,-0.37103,-0.21848,0.91338,0.34760,,,0.81437,0.56228,0.14263,-0.01757,
4.71875,0.27576,0.03640,-0.51060,-0.21364,0.91096,0.34225,,,0.81435,0.56229,0.14265,-0.01760,
4.72656,0.24142,0.00060,-0.51060,-0.20687,0.91872,0.34954,,,0.81434,0.56230,0.14267,-0.01763,
4.73438,0.06975,0.03640,-0.47571,-0.20300,0.91435,0.34420,,,0.81434,0.56230,0.14269,-0.01765,
4.74219,0.27576,0.00060,-0.58039,-0.20107,0.92406,0.34663,,,0.81433,0.56231,0.14271,-0.01769,
4.75000,0.20709,-0.03520,-0.61528,-0.21316,0.91532,0.33982,,,0.81432,0.56231,0.14273,-0.01773,
4.75781,0.20709,0.00060,-0.40592,-0.19913,0.92260,0.34371,,,0.81431,0.56232,0.14275,-0.01775,
4.76563,0.24142,0.10799,-0.68507,-0.20494,0.91678,0.33982,,,0.81430,0.56233,0.14278,-0.01779,
4.77344,0.20709,-0.03520,-0.51060,-0.20445,0.92018,0.34079,,,0.81429,0.56233,0.14280,-0.01782,
4.78125,0.24142,0.03640,-0.58039,-0.22090,0.91726,0.34711,,,0.81428,0.56234,0.14282,-0.01785,
4.78906,0.24142,-0.07100,-0.61528,-0.21267,0.91629,0.34614,,,0.81427,0.56235,0.14284,-0.01789,
4.79688,0.27576,-0.10679,-0.47571,-0.20735,0.91532,0.34079,,,0.81426,0.56236,0.14285,-0.01792,
4.80469,0.27576,-0.10679,-0.44082,-0.19429,0.91338,0.34079,,,0.81425,0.56237,0.14286,-0.01796,
4.81250,0.27576,0.03640,-0.30124,-0.21219,0.90659,0.34517,,,0.81424,0.56238,0.14288,-0.01797,
4.82031,0.41310,-0.03520,-0.51060,-0.20687,0.91921,0.34711,,,0.81423,0.56240,0.14289,-0.01801,
4.82813,0.34443,-0.03520,-0.44082,-0.21848,0.91047,0.35246,,,0.81421,0.56241,0.14291,-0.01804,
4.83594,0.37877,0.00060,-0.61528,-0.20784,0.92600,0.34809,,,0.81420,0.56243,0.14293,-0.01807,
4.84375,0.34443,-0.10679,-0.44082,-0.21026,0.91484,0.34128,,,0.81418,0.56244,0.14294,-0.01811,
4.85156,0.37877,-0.07100,-0.44082,-0.20542,0.92018,0.34468,,,0.81417,0.56246,0.14295,-0.01814,
4.85938,0.27576,-0.07100,-0.58039,-0.20784,0.91581,0.34760,,,0.81416,0.56247,0.14297,-0.01817,
4.86719,0.34443,-0.17839,-0.51060,-0.19333,0.92066,0.35246,,,0.81415,0.56248,0.14298,-0.01821,
4.87500,0.51611,-0.24998,-0.47571,-0.19623,0.93376,0.34954,,,0.81413,0.56251,0.14299,-0.01825,
4.88281,0.48177,-0.14259,-0.40592,-0.20639,0.91435,0.34079,,,0.81411,0.56253,0.14299,-0.01829,
4.89063,0.44744,-0.07100,-0.54549,-0.21461,0.91969,0.34517,,,0.81409,0.56255,0.14301,-0.01832,
4.89844,0.27576,-0.14259,-0.71996,-0.19526,0.91872,0.34565,,,0.81408,0.56256,0.14303,-0.01837,
4.90625,0.37877,-0.28578,-0.61528,-0.21896,0.92066,0.34517,,,0.81407,0.56257,0.14304,-0.01842,
4.91406,0.55045,-0.10679,-0.16167,-0.21171,0.91969,0.34079,,,0.81405,0.56260,0.14304,-0.01844,
4.92188,0.51611,-0.17839,-0.30124,-0.20639,0.91338,0.34225,,,0.81403,0.56263,0.14304,-0.01847,
4.92969,0.37877,-0.17839,-0.47571,-0.20010,0.91144,0.34031,,,0.81402,0.56264,0.14304,-0.01850,
4.93750,0.44744,-0.17839,-0.61528,-0.19768,0.91921,0.34177,,,0.81400,0.56266,0.14306,-0.01855,
4.94531,0.31010,-0.03520,-0.44082,-0.21267,0.90902,0.34663,,,0.81399,0.56268,0.14307,-0.01858,
4.95313,0.44744,-0.14259,-0.37103,-0.22138,0.90902,0.34420,,,0.81397,0.56270,0.14308,-0.01861,
4.96094,0.31010,0.00060,-0.33614,-0.21799,0.91387,0.34760,,,0.81396,0.56271,0.14309,-0.01863,
4.96875,0.34443,-0.14259,-0.44082,-0.20107,0.92600,0.34614,,,0.81395,0.56273,0.14310,-0.01866,
4.97656,0.31010,-0.17839,-0.47571,-0.20058,0.92066,0.34711,,,0.81394,0.56274,0.14311,-0.01870,
4.98438,0.37877,0.00060,-0.40592,-0.21171,0.91824,0.35295,,,0.81392,0.56275,0.14312,-0.01873,
4.99219,0.31010,-0.17839,-0.65017,-0.22235,0.91435,0.34322,,,0.81391,0.56277,0.14314,-0.01877,
5.00000,0.41310,-0.10679,-0.44082,-0.20687,0.91435,0.34468,,,0.81390,0.56278,0.14315,-0.01880,
5.00781,0.51611,-0.32158,-0.33614,-0.20010,0.91581,0.33885,1021.708,24.4,0.81388,0.56281,0.14314,-0.01884,
5.01563,0.27576,-0.10679,-0.51060,-0.21074,0.92212,0.33934,,,0.81387,0.56282,0.14315,-0.01888,
5.02344,0.31010,-0.07100,-0.51060,-0.21751,0.91629,0.34809,,,0.81386,0.56283,0.14317,-0.01891,
5.03125,0.34443,-0.07100,-0.68507,-0.20203,0.91824,0.34225,,,0.81385,0.56284,0.14319,-0.01895,
5.03906,0.20709,-0.17839,-0.71996,-0.20445,0.91290,0.34128,,,0.81384,0.56285,0.14321,-0.01900,
5.04688,0.20709,-0.17839,-0.65017,-0.20494,0.91775,0.34711,,,0.81383,0.56285,0.14322,-0.01905,
5.05469,0.34443,-0.07100,-0.54549,-0.21703,0.91435,0.34906,,,0.81382,0.56287,0.14324,-0.01908,
5.06250,0.48177,-0.03520,-0.65017,-0.20880,0.91338,0.34274,,,0.81380,0.56289,0.14326,-0.01913,
5.07031,0.41310,-0.07100,-0.85953,-0.20300,0.91824,0.34079,,,0.81378,0.56290,0.14329,-0.01918,
5.07813,0.48177,-0.21419,-0.85953,-0.19575,0.92260,0.34225,,,0.81377,0.56292,0.14331,-0.01924,
5.08594,0.37877,-0.24998,-0.96421,-0.20929,0.92260,0.35489,,,0.81375,0.56293,0.14333,-0.01931,
5.09375,0.48177,-0.14259,-0.89443,-0.20542,0.90902,0.33885,,,0.81373,0.56295,0.14336,-0.01937,
5.10156,0.41310,-0.17839,-0.89443,-0.20155,0.91484,0.34517,,,0.81372,0.56296,0.14338,-0.01943,
5.10938,0.31010,-0.07100,-0.99911,-0.20348,0.90853,0.34225,,,0.81371,0.56297,0.14342,-0.01949,
5.11719,0.37877,-0.17839,-0.82464,-0.21654,0.91726,0.34857,,,0.81369,0.56298,0.14344,-0.01955,
5.12500,0.55045,-0.21419,-1.06889,-0.20929,0.91775,0.34274,,,0.81367,0.56300,0.14347,-0.01962,
5.13281,0.44744,-0.28578,-1.24336,-0.21558,0.92357,0.34468,,,0.81366,0.56301,0.14350,-0.01970,
5.14063,0.44744,-0.50057,-1.41782,-0.20107,0.91775,0.33885,,,0.81364,0.56302,0.14352,-0.01980,
5.14844,0.65345,-0.57216,-1.48761,-0.20155,0.92988,0.34225,,,0.81362,0.56305,0.14355,-0.01992,
5.15625,0.48177,-0.60796,-1.45272,-0.21799,0.91775,0.34468,,,0.81361,0.56306,0.14357,-0.02002,
5.16406,0.51611,-0.53637,-1.34804,-0.21461,0.91193,0.34663,,,0.81359,0.56307,0.14359,-0.02012,
5.17188,0.72212,-0.39318,-1.13868,-0.21848,0.91629,0.33885,,,0.81356,0.56310,0.14361,-0.02021,
5.17969,0.68779,-0.53637,-1.06889,-0.20687,0.92406,0.34420,,,0.81354,0.56313,0.14362,-0.02030,
5.18750,0.58478,-0.32158,-0.96421,-0.21558,0.91435,0.35392,,,0.81352,0.56315,0.14364,-0.02037,
5.19531,0.48177,-0.24998,-0.89443,-0.21267,0.91678,0.35295,,,0.81350,0.56317,0.14366,-0.02043,
5.20313,0.55045,-0.21419,-0.92932,-0.20058,0.91581,0.34031,,,0.81348,0.56319,0.14368,-0.02050,
5.21094,0.31010,-0.32158,-1.13868,-0.19720,0.92066,0.34274,,,0.81347,0.56319,0.14371,-0.02058,
5.21875,0.20709,-0.28578,-1.10379,-0.19865,0.92309,0.34468,,,0.81347,0.56319,0.14373,-0.02065,
5.22656,0.31010,-0.03520,-0.89443,-0.21219,0.90756,0.34614,,,0.81345,0.56320,0.14377,-0.02070,
5.23438,0.13842,-0.10679,-0.85953,-0.21606,0.91775,0.34614,,,0.81345,0.56320,0.14379,-0.02076,
5.24219,0.06975,-0.03520,-1.06889,-0.21509,0.91193,0.34322,,,0.81344,0.56320,0.14383,-0.02082,
5.25000,0.13842,-0.17839,-0.96421,-0.20784,0.91824,0.34760,,,0.81344,0.56319,0.14386,-0.02088,
5.25781,0.17275,-0.10679,-0.71996,-0.20880,0.91969,0.34614,,,0.81343,0.56320,0.14388,-0.02093,
5.26563,0.00107,0.10799,-0.82464,-0.20832,0.91484,0.33691,,,0.81343,0.56319,0.14392,-0.02097,
5.27344,-0.03326,0.03640,-0.71996,-0.20977,0.90368,0.34177,,,0.81343,0.56318,0.14395,-0.02101,
5.28125,0.03541,0.10799,-0.65017,-0.20832,0.92115,0.34565,,,0.81343,0.56317,0.14398,-0.02104,
5.28906,0.03541,0.32278,-0.54549,-0.21364,0.91241,0.35100,,,0.81342,0.56317,0.14402,-0.02106,
5.29688,0.00107,0.28698,-0.26635,-0.21896,0.91532,0.34663,,,0.81342,0.56317,0.14404,-0.02106,
5.30469,0.00107,0.28698,-0.33614,-0.22235,0.91338,0.34468,,,0.81341,0.56317,0.14407,-0.02107,
5.31250,-0.06760,0.28698,-0.37103,-0.19768,0.92988,0.34857,,,0.81341,0.56316,0.14410,-0.02108,
5.32031,-0.20494,0.17959,-0.19656,-0.20445,0.91775,0.34857,,,0.81342,0.56315,0.14412,-0.02108,
5.32813,-0.13627,0.14379,-0.23146,-0.20445,0.90999,0.34225,,,0.81342,0.56314,0.14414,-0.02108,
5.33594,-0.27361,0.35858,-0.30124,-0.20832,0.91338,0.33788,,,0.81343,0.56312,0.14417,-0.02108,
5.34375,-0.30795,0.43017,-0.30124,-0.20687,0.91290,0.33982,,,0.81344,0.56310,0.14420,-0.02108,
5.35156,-0.23928,0.57336,-0.23146,-0.20832,0.90902,0.34468,,,0.81344,0.56309,0.14425,-0.02107,
5.35938,-0.27361,0.50177,-0.05699,-0.20687,0.91435,0.33545,,,0.81345,0.56307,0.14428,-0.02105,
5.36719,-0.41095,0.68076,-0.12678,-0.21122,0.92018,0.34711,,,0.81345,0.56305,0.14432,-0.02103,
5.37500,-0.58263,0.68076,-0.19656,-0.20300,0.91290,0.34371,,,0.81347,0.56301,0.14437,-0.02101,
5.38281,-0.85732,0.78815,0.01280,-0.21848,0.88282,0.34711,,,0.81349,0.56297,0.14441,-0.02097,
5.39063,-0.41095,0.82395,0.32683,-0.21606,0.93279,0.33496,,,0.81350,0.56295,0.14444,-0.02091,
5.39844,-0.96033,1.32512,0.11748,-0.21654,0.91532,0.34031,,,0.81353,0.56290,0.14451,-0.02085,
5.40625,-1.26935,1.32512,0.74555,-0.21896,0.89931,0.34565,,,0.81356,0.56284,0.14456,-0.02074,
5.41406,-1.33802,1.57570,0.95491,-0.20832,0.90659,0.34517,,,0.81360,0.56278,0.14461,-0.02061,
5.42188,-1.26935,1.64730,0.95491,-0.21219,0.91872,0.33593,,,0.81363,0.56272,0.14467,-0.02049,
5.42969,-1.68138,1.79049,1.40852,-0.21074,0.92309,0.34760,,,0.81368,0.56264,0.14472,-0.02032,
5.43750,-1.75005,2.00527,1.72256,-0.21364,0.92794,0.35149,,,0.81373,0.56256,0.14476,-0.02013,
5.44531,-1.88739,1.96948,1.58299,-0.19575,0.92115,0.34663,,,0.81379,0.56248,0.14482,-0.01995,
5.45313,-2.19641,2.14846,1.51320,-0.21026,0.91678,0.34614,,,0.81385,0.56237,0.14488,-0.01976,
5.46094,-2.19641,2.22006,1.61788,-0.20977,0.91678,0.34371,,,0.81392,0.56227,0.14494,-0.01957,
5.46875,-2.23075,2.22006,1.61788,-0.21703,0.91581,0.34468,,,0.81398,0.56216,0.14501,-0.01937,
5.47656,-2.23075,2.36325,1.54810,-0.21945,0.91290,0.34079,,,0.81405,0.56206,0.14508,-0.01917,
5.48438,-2.29942,2.25586,1.51320,-0.20107,0.92260,0.34177,,,0.81412,0.56195,0.14515,-0.01898,
5.49219,-2.57410,2.29166,1.75746,-0.20348,0.91484,0.34954,,,0.81419,0.56183,0.14522,-0.01877,
5.50000,-2.43676,2.36325,2.00171,-0.21461,0.93133,0.35586,,,0.81427,0.56171,0.14527,-0.01854,
5.50781,-2.71145,2.57804,2.17617,-0.21074,0.91387,0.34663,,,0.81435,0.56159,0.14534,-0.01829,
5.51563,-2.47110,2.54224,2.38553,-0.20542,0.91387,0.34954,,,0.81442,0.56148,0.14539,-0.01804,
5.52344,-2.60844,2.79282,2.59489,-0.20590,0.91096,0.35100,,,0.81449,0.56136,0.14545,-0.01776,
5.53125,-2.64278,2.79282,2.87404,-0.21558,0.91387,0.35440,,,0.81457,0.56125,0.14550,-0.01747,
5.53906,-2.67711,2.93601,2.90893,-0.20155,0.91824,0.35295,,,0.81465,0.56113,0.14555,-0.01717,
5.54688,-2.09340,2.64963,2.03660,-0.19575,0.92697,0.35149,,,0.81470,0.56104,0.14562,-0.01693,
5.55469,-1.92173,2.43485,1.30384,-0.19478,0.92309,0.34517,,,0.81476,0.56095,0.14571,-0.01675,
5.56250,-1.68138,1.96948,0.74555,-0.18704,0.91532,0.35635,,,0.81480,0.56086,0.14579,-0.01662,
5.57031,-1.16634,1.82628,0.32683,-0.19865,0.91824,0.34517,,,0.81483,0.56080,0.14588,-0.01652,
5.57813,-0.85732,1.32512,-0.71996,-0.19865,0.91969,0.34468,,,0.81485,0.56075,0.14599,-0.01650,
5.58594,-0.65130,1.11033,-1.31314,-0.20880,0.91726,0.34954,,,0.81486,0.56070,0.14610,-0.01652,
5.59375,-0.85732,1.18193,-1.73186,-0.19575,0.92842,0.35149,,,0.81488,0.56064,0.14623,-0.01656,
5.60156,-0.75431,0.96714,-2.46462,-0.19236,0.92454,0.35343,,,0.81489,0.56057,0.14638,-0.01666,
5.60938,-0.68564,0.68076,-3.75567,-0.18752,0.92309,0.35246,,,0.81491,0.56050,0.14656,-0.01683,
5.61719,-0.78865,0.53757,-4.27907,-0.18849,0.92503,0.34906,,,0.81493,0.56041,0.14676,-0.01704,
5.62500,-1.02900,0.35858,-5.22118,-0.17930,0.91726,0.35003,,,0.81496,0.56030,0.14698,-0.01731,
5.63281,-1.02900,0.17959,-5.98883,-0.19768,0.92648,0.34565,,,0.81499,0.56019,0.14722,-0.01762,
5.64063,-0.92599,0.10799,-6.26798,-0.19961,0.93376,0.34517,,,0.81502,0.56007,0.14746,-0.01796,
5.64844,-1.13200,-0.14259,-7.24499,-0.20203,0.94055,0.34954,,,0.81505,0.55994,0.14773,-0.01835,
5.65625,-1.33802,-0.10679,-7.62881,-0.19381,0.94686,0.34274,,,0.81509,0.55979,0.14802,-0.01877,
5.66406,-1.71571,-0.03520,-8.01264,-0.21026,0.93231,0.34565,,,0.81515,0.55961,0.14833,-0.01920,
5.67188,-1.99040,0.35858,-7.87306,-0.20107,0.93522,0.34711,,,0.81521,0.55942,0.14865,-0.01960,
5.67969,-2.43676,0.57336,-8.01264,-0.19961,0.92018,0.33934,,,0.81529,0.55920,0.14899,-0.02000,
5.68750,-3.60418,1.71889,-8.43135,-0.20832,0.90756,0.34906,,,0.81540,0.55892,0.14941,-0.02037,
5.69531,-3.94753,1.89788,-8.74539,-0.21364,0.89931,0.35586,,,0.81551,0.55861,0.14985,-0.02074,
5.70313,-3.84453,2.14846,-8.36157,-0.23589,0.89543,0.35343,,,0.81563,0.55832,0.15030,-0.02108,
5.71094,-3.70718,2.50644,-7.00073,-0.24847,0.89931,0.35343,,,0.81573,0.55804,0.15071,-0.02134,
5.71875,-3.81019,2.61384,-5.39565,-0.24363,0.88912,0.35975,,,0.81584,0.55778,0.15107,-0.02150,
5.72656,-3.53550,2.43485,-5.11650,-0.22864,0.90174,0.36218,,,0.81594,0.55753,0.15140,-0.02166,
5.73438,-3.08914,2.18426,-3.82545,-0.23009,0.89543,0.35975,,,0.81603,0.55733,0.15167,-0.02176,
5.74219,-2.88313,2.18426,-3.23227,-0.23831,0.87505,0.36267,,,0.81612,0.55713,0.15192,-0.02182,
5.75000,-2.23075,2.04107,-2.04590,-0.23686,0.89252,0.35683,,,0.81618,0.55699,0.15211,-0.02184,
5.75781,-1.37235,1.86208,-0.58039,-0.23734,0.89495,0.35732,,,0.81621,0.55691,0.15224,-0.02178,
5.76563,-1.09767,1.86208,0.15237,-0.23251,0.90659,0.35295,,,0.81623,0.55686,0.15234,-0.02169,
5.77344,-0.96033,1.96948,1.47831,-0.24411,0.90902,0.35635,,,0.81625,0.55682,0.15240,-0.02152,
5.78125,-0.61697,1.93368,2.00171,-0.22960,0.89204,0.36315,,,0.81626,0.55681,0.15243,-0.02133,
5.78906,-0.41095,1.82628,2.24596,-0.21461,0.89349,0.36558,,,0.81626,0.55681,0.15245,-0.02114,
5.79688,0.13842,1.64730,2.56000,-0.22622,0.89931,0.34468,,,0.81624,0.55685,0.15244,-0.02093,
5.80469,0.51611,1.25352,3.60679,-0.23299,0.89883,0.36121,,,0.81621,0.55692,0.15237,-0.02069,
5.81250,1.03115,1.39671,4.37444,-0.24556,0.88912,0.35829,,,0.81616,0.55702,0.15228,-0.02040,
5.82031,1.58052,0.96714,5.87485,-0.24363,0.89204,0.34954,,,0.81610,0.55717,0.15211,-0.02006,
5.82813,1.44317,1.18193,7.65440,-0.24702,0.90465,0.34760,,,0.81604,0.55733,0.15188,-0.01960,
5.83594,1.30583,0.78815,8.21269,-0.20929,0.92842,0.34954,,,0.81600,0.55749,0.15161,-0.01913,
5.84375,1.03115,0.89554,7.93355,-0.18414,0.94492,0.34760,,,0.81596,0.55763,0.15136,-0.01866,
5.85156,0.85947,0.71655,6.64250,-0.15947,0.93133,0.34906,,,0.81593,0.55775,0.15115,-0.01827,
5.85938,0.61912,0.75235,3.43233,-0.16140,0.92988,0.35343,,,0.81590,0.55782,0.15106,-0.01806,
5.86719,0.61912,0.46597,-0.16167,-0.16624,0.91726,0.35392,,,0.81587,0.55785,0.15109,-0.01806,
5.87500,0.75646,0.32278,-1.52250,-0.18946,0.91387,0.35295,,,0.81584,0.55788,0.15116,-0.01814,
5.88281,0.92814,0.10799,-3.99992,-0.19961,0.91387,0.36121,,,0.81580,0.55789,0.15132,-0.01837,
5.89063,1.13415,-0.14259,-5.43054,-0.19623,0.92309,0.34809,,,0.81575,0.55790,0.15152,-0.01868,
5.89844,0.85947,-0.28578,-6.09351,-0.20590,0.91969,0.35489,,,0.81571,0.55788,0.15173,-0.01904,
5.90625,0.72212,-0.35738,-6.61691,-0.21364,0.91775,0.35927,,,0.81568,0.55785,0.15196,-0.01943,
5.91406,0.75646,-0.32158,-6.68670,-0.22186,0.91532,0.35732,,,0.81564,0.55783,0.15220,-0.01982,
5.92188,0.75646,-0.39318,-6.75648,-0.21461,0.89640,0.35295,,,0.81561,0.55780,0.15243,-0.02022,
5.92969,0.75646,-0.28578,-7.31477,-0.22767,0.90222,0.35538,,,0.81557,0.55776,0.15269,-0.02065,
5.93750,0.96247,-0.46477,-7.38456,-0.21219,0.91629,0.36121,,,0.81553,0.55774,0.15295,-0.02109,
5.94531,1.20282,-0.53637,-6.93095,-0.23299,0.90465,0.35003,,,0.81548,0.55773,0.15318,-0.02150,
5.95313,1.34017,-0.67956,-6.37266,-0.22332,0.90999,0.34809,,,0.81543,0.55774,0.15338,-0.02190,
5.96094,1.13415,-0.67956,-6.23308,-0.23154,0.90853,0.35343,,,0.81538,0.55774,0.15358,-0.02228,
5.96875,1.44317,-0.96594,-5.70969,-0.21896,0.93231,0.35440,,,0.81533,0.55776,0.15374,-0.02265,
5.97656,1.09982,-0.85855,-5.15140,-0.21751,0.90708,0.34906,,,0.81529,0.55776,0.15389,-0.02298,
5.98438,1.27150,-0.71536,-4.69778,-0.23154,0.90562,0.34906,,,0.81524,0.55778,0.15402,-0.02328,
5.99219,0.99681,-0.93014,-4.20928,-0.24363,0.90562,0.35392,,,0.81520,0.55779,0.15413,-0.02356,
6.00000,0.85947,-1.21652,-3.30206,-0.23396,0.90853,0.34371,,,0.81518,0.55780,0.15419,-0.02380,
6.00781,0.85947,-1.25232,-2.98802,-0.22525,0.91969,0.34663,1021.713,24.4,0.81515,0.55782,0.15423,-0.02403,
6.01563,0.68779,-1.25232,-2.56930,-0.22912,0.90416,0.35440,,,0.81514,0.55783,0.15426,-0.02422,
6.02344,0.31010,-1.32392,-2.49951,-0.22864,0.89737,0.35197,,,0.81514,0.55781,0.15428,-0.02442,
6.03125,-0.10193,-1.35971,-2.32505,-0.22380,0.90756,0.34857,,,0.81515,0.55778,0.15429,-0.02460,
6.03906,-0.61697,-1.10913,-2.84845,-0.20590,0.91144,0.34711,,,0.81518,0.55772,0.15434,-0.02479,
6.04688,-0.96033,-0.93014,-3.61610,-0.20155,0.92018,0.34663,,,0.81522,0.55762,0.15442,-0.02502,
6.05469,-1.85305,-0.67956,-5.25607,-0.21896,0.90659,0.35829,,,0.81529,0.55746,0.15459,-0.02531,
6.06250,-2.67711,-0.42897,-6.58202,-0.22428,0.91532,0.35003,,,0.81538,0.55725,0.15482,-0.02567,
6.07031,-3.32949,-0.39318,-7.17520,-0.21074,0.92988,0.35440,,,0.81550,0.55698,0.15508,-0.02605,
6.07813,-4.22222,0.03640,-8.81518,-0.19865,0.94395,0.34857,,,0.81565,0.55666,0.15542,-0.02649,
6.08594,-5.38963,0.78815,-10.59473,-0.20639,0.93570,0.36218,,,0.81582,0.55624,0.15588,-0.02699,
6.09375,-5.62998,1.07453,-11.39727,-0.21848,0.93861,0.35878,,,0.81600,0.55581,0.15638,-0.02753,
6.10156,-5.87033,1.43251,-13.17683,-0.21267,0.94201,0.35829,,,0.81619,0.55535,0.15697,-0.02814,
6.10938,-5.87033,1.75469,-14.32830,-0.22380,0.93764,0.35732,,,0.81636,0.55487,0.15762,-0.02881,
6.11719,-5.83600,2.00527,-14.71213,-0.23057,0.94686,0.35295,,,0.81653,0.55439,0.15830,-0.02949,
6.12500,-6.35103,2.22006,-14.99127,-0.23589,0.93667,0.35683,,,0.81672,0.55388,0.15900,-0.03017,
6.13281,-6.93474,2.50644,-15.86360,-0.20880,0.91726,0.36656,,,0.81692,0.55333,0.15975,-0.03089,
6.14063,-6.72872,2.68543,-17.29422,-0.20929,0.89009,0.36510,,,0.81710,0.55277,0.16057,-0.03167,
6.14844,-6.38537,2.72123,-18.75974,-0.23057,0.88718,0.35781,,,0.81727,0.55221,0.16144,-0.03255,
6.15625,-6.07635,2.86442,-18.96910,-0.24508,0.88864,0.36947,,,0.81743,0.55167,0.16233,-0.03343,
6.16406,-5.49264,2.90022,-18.79463,-0.25475,0.89495,0.37628,,,0.81756,0.55116,0.16321,-0.03431,
6.17188,-4.63425,3.29399,-18.55038,-0.23879,0.90562,0.36996,,,0.81765,0.55071,0.16410,-0.03516,
6.17969,-4.18788,3.43718,-18.96910,-0.21558,0.93716,0.37531,,,0.81773,0.55027,0.16502,-0.03605,
6.18750,-4.08488,5.01228,-21.83034,-0.18849,0.96287,0.39086,,,0.81777,0.54981,0.16612,-0.03703,
6.19531,-4.22222,7.91190,-27.69239,-0.14206,0.98810,0.37774,,,0.81777,0.54928,0.16761,-0.03823,
6.20313,-4.35956,9.70179,-32.15872,-0.12464,1.06039,0.37045,,,0.81773,0.54869,0.16937,-0.03961,
6.21094,-7.86180,16.71815,-43.56879,-0.05064,1.05748,0.37482,,,0.81771,0.54779,0.17195,-0.04132,
6.21875,-9.99062,21.87302,-51.17550,-0.03274,0.97500,0.38746,,,0.81768,0.54669,0.17511,-0.04324,
6.22656,-11.77607,27.56486,-66.17957,-0.05741,1.15063,0.39621,,,0.81758,0.54532,0.17914,-0.04576,
6.23438,-16.58307,37.65983,-83.73084,0.03884,1.12880,0.34468,,,0.81746,0.54348,0.18440,-0.04882,
6.24219,-19.81063,42.31354,-93.15200,0.08818,1.14578,0.36558,,,0.81733,0.54133,0.19027,-0.05219,
6.25000,-26.12840,53.58982,-113.25048,-0.02210,1.18072,0.39183,,,0.81717,0.53858,0.19752,-0.05619,
6.25781,-33.09855,59.46066,-129.61538,0.00063,1.21613,0.39767,,,0.81705,0.53519,0.20571,-0.06077,
6.26563,-37.97422,64.15016,-132.72087,0.13268,1.07737,0.34177,,,0.81694,0.53145,0.21427,-0.06529,
6.27344,-42.67821,71.91827,-116.28618,-0.25814,1.52907,0.53231,,,0.81688,0.52767,0.22267,-0.06853,
6.28125,-65.40845,68.73227,-65.51660,-0.03758,0.98810,0.42246,,,0.81785,0.52334,0.22915,-0.06871,
6.28906,-66.64454,72.13306,-58.32861,-0.14351,1.06476,0.43607,,,0.81881,0.51903,0.23556,-0.06835,
6.29688,-72.37860,75.10427,-36.10165,-0.27313,0.92163,0.37628,,,0.81997,0.51475,0.24136,-0.06654,
6.30469,-73.27133,76.24980,-39.10246,-0.47532,1.02983,0.36170,,,0.82109,0.51034,0.24732,-0.06484,
6.31250,-74.71343,74.24512,-38.92800,-0.39841,1.18072,0.34711,,,0.82224,0.50581,0.25315,-0.06318,
6.32031,-85.08281,76.10661,-34.95017,-0.61800,1.44611,0.41565,,,0.82368,0.50075,0.25898,-0.06104,
6.32813,-92.01863,71.45290,-33.86848,-0.50095,1.52519,0.39669,,,0.82539,0.49527,0.26452,-0.05888,
6.33594,-106.88599,69.01865,-21.96991,-0.62671,1.56692,0.48857,,,0.82763,0.48912,0.26957,-0.05585,
6.34375,-118.14810,65.72526,-14.15384,-0.24702,1.40341,0.54738,,,0.83028,0.48242,0.27419,-0.05229,
6.35156,-118.93782,70.09259,-13.31640,-0.11062,1.21322,0.46815,,,0.83279,0.47567,0.27900,-0.04851,
6.35938,-117.83908,93.82649,-27.20389,-0.09611,1.24573,0.55419,,,0.83470,0.46874,0.28558,-0.04476,
6.36719,-116.15663,108.25298,-45.03430,-0.22380,0.98907,0.58190,,,0.83611,0.46156,0.29352,-0.04160,
6.37500,-109.28949,110.54404,-50.47764,-0.06999,0.83915,0.46815,,,0.83714,0.45460,0.30170,-0.03881,
6.38281,-72.65329,119.77986,-32.78680,1.04056,0.10411,-0.68535,,,0.83680,0.45008,0.30973,-0.03547,
6.39063,-23.45022,136.99857,9.64331,-0.86468,1.55867,0.09580,,,0.83461,0.44926,0.31729,-0.03022,
6.39844,-28.80659,97.72845,-7.07052,-0.35488,0.96530,-0.10398,,,0.83335,0.44766,0.32312,-0.02701,
6.40625,18.47369,68.15951,30.96305,0.08286,0.27441,-0.45348,,,0.83133,0.44951,0.32601,-0.02357,
6.41406,50.33722,61.28634,36.51107,-0.09756,0.80810,-0.31106,,,0.82846,0.45327,0.32828,-0.02075,
6.42188,71.72837,32.14698,54.58573,-0.17785,1.09484,-0.23960,,,0.82559,0.45858,0.32830,-0.01827,
6.42969,73.10180,2.22006,66.20516,-0.10723,1.15112,-0.21821,,,0.82332,0.46417,0.32625,-0.01611,
6.43750,69.25620,-10.20176,70.70639,-0.08111,1.17732,-0.18905,,,0.82141,0.46961,0.32336,-0.01401,
6.44531,56.65499,-31.03605,76.70801,-0.00904,0.99538,-0.19780,,,0.82033,0.47443,0.31910,-0.01195,
6.45313,51.53897,-45.03296,82.32582,0.03836,0.78384,-0.22259,,,0.81969,0.47906,0.31387,-0.00992,
6.46094,52.60338,-49.82986,84.55898,0.03497,0.69894,-0.24398,,,0.81907,0.48376,0.30828,-0.00795,
6.46875,61.29031,-56.16606,86.47810,0.04271,0.57473,-0.27752,,,0.81825,0.48895,0.30225,-0.00626,
6.47656,74.92159,-58.45712,85.43131,0.02530,0.51360,-0.27995,,,0.81696,0.49485,0.29610,-0.00499,
6.48438,82.54412,-58.63611,84.55898,0.01417,0.51942,-0.29064,,,0.81536,0.50112,0.28994,-0.00392,
6.49219,96.07239,-58.27813,82.11646,0.01708,0.53398,-0.28432,,,0.81321,0.50804,0.28385,-0.00325,
6.50000,101.87512,-57.24000,82.22114,0.01659,0.54125,-0.27363,,,0.81077,0.51525,0.27780,-0.00264,
6.50781,111.07709,-54.37618,86.82704,0.01659,0.55823,-0.25419,,,0.80787,0.52299,0.27171,-0.00186,
6.51563,118.18458,-49.61508,94.15460,0.00692,0.58152,-0.23085,,,0.80454,0.53121,0.26558,-0.00063,
6.52344,121.17179,-46.50067,97.15542,-0.00179,0.60821,-0.22405,,,0.80094,0.53958,0.25949,0.00082,
6.53125,125.73844,-38.94735,101.48217,-0.04435,0.63829,-0.20120,,,0.79695,0.54821,0.25362,0.00271,
6.53906,130.13341,-30.49908,104.76213,-0.06950,0.66837,-0.17155,,,0.79254,0.55706,0.24806,0.00501,
6.54688,132.15922,-25.59479,106.40211,-0.07821,0.68778,-0.16231,,,0.78786,0.56597,0.24266,0.00755,
6.55469,135.48978,-14.53328,109.40293,-0.11013,0.77947,-0.08454,,,0.78276,0.57503,0.23771,0.01063,
6.56250,134.90607,-2.89902,109.05399,-0.14544,0.85953,-0.01600,,,0.77739,0.58396,0.23337,0.01415,
6.57031,133.73866,2.68543,107.48380,-0.15560,0.88961,0.02240,,,0.77187,0.59271,0.22934,0.01782,
6.57813,130.09908,13.03098,105.14596,-0.13964,0.96384,0.10407,,,0.76623,0.60115,0.22592,0.02184,
6.58594,125.29208,23.87770,107.93741,-0.18559,1.02934,0.19691,,,0.76051,0.60928,0.22292,0.02653,
6.59375,122.95725,28.56720,111.46162,-0.22138,1.04826,0.24552,,,0.75472,0.61726,0.21998,0.03163,
6.60156,118.25326,38.12520,115.19519,-0.38051,1.07543,0.33788,,,0.74887,0.62495,0.21733,0.03738,
6.60938,116.67381,41.49019,114.74158,-0.48692,1.08465,0.38600,,,0.74295,0.63245,0.21484,0.04328,
6.61719,113.96129,45.10576,110.76376,-0.67798,1.11910,0.48662,,,0.73700,0.63967,0.21268,0.04916,
6.62500,110.49339,45.14156,103.50598,-0.81293,1.17004,0.58530,,,0.73114,0.64654,0.21079,0.05472,
6.63281,108.46758,43.92443,99.21412,-0.86613,1.16713,0.63002,,,0.72532,0.65317,0.20900,0.06004,
6.64063,105.48037,40.70264,91.67719,-0.90435,1.09678,0.70391,,,0.71963,0.65949,0.20735,0.06488,
6.64844,107.12849,36.94387,84.73345,-0.90531,1.08853,0.77439,,,0.71389,0.66575,0.20582,0.06918,
6.65625,108.19289,34.90340,80.26712,-0.88887,1.12589,0.81036,,,0.70808,0.67194,0.20438,0.07315,
6.66406,106.20142,31.86059,69.52002,-0.82164,1.21225,0.87696,,,0.70239,0.67785,0.20325,0.07648,
6.67188,97.61749,30.03491,60.09886,-0.71184,1.27775,0.93820,,,0.69713,0.68318,0.20242,0.07939,
6.67969,91.29972,30.14230,56.05125,-0.65138,1.30152,0.95376,,,0.69214,0.68810,0.20173,0.08219,
6.68750,76.02033,32.50495,48.89815,-0.56915,1.29619,0.96640,,,0.68784,0.69216,0.20139,0.08498,
6.69531,68.15746,33.86527,46.24626,-0.54642,1.28018,0.97029,,,0.68388,0.69578,0.20119,0.08781,
6.70313,53.39310,36.55010,42.40801,-0.56673,1.25834,0.97709,,,0.68059,0.69862,0.20119,0.09078,
6.71094,38.59441,35.58356,41.08207,-0.65912,1.20303,0.97758,,,0.67800,0.70075,0.20113,0.09385,
6.71875,31.55559,33.39990,40.13996,-0.69297,1.18702,0.99265,,,0.67578,0.70254,0.20095,0.09687,
6.72656,16.51655,26.77731,35.25491,-0.75924,1.17538,1.02376,,,0.67439,0.70360,0.20061,0.09955,
6.73438,-1.06333,17.54150,27.99713,-0.83179,1.18508,1.05584,,,0.67401,0.70381,0.20006,0.10169,
6.74219,-10.88335,12.35082,24.89164,-0.86323,1.16859,1.08500,,,0.67419,0.70356,0.19936,0.10357,
6.75000,-31.45044,0.85975,18.57597,-0.87871,1.10406,1.12632,,,0.67556,0.70235,0.19829,0.10489,
6.75781,-50.06039,-8.48347,9.99225,-0.82792,0.95462,1.13604,,,0.67800,0.70024,0.19706,0.10562,
6.76563,-55.82879,-12.20643,6.50293,-0.80519,0.86147,1.12049,,,0.68078,0.69782,0.19578,0.10609,
6.77344,-59.36537,-18.72162,4.47912,-0.82696,0.76735,1.10445,,,0.68382,0.69525,0.19427,0.10620,
6.78125,-58.85033,-23.05315,4.61870,-0.84872,0.75473,1.10639,,,0.68688,0.69273,0.19255,0.10610,
6.78906,-58.16362,-32.53955,1.16427,-0.85936,0.72950,1.08598,,,0.69004,0.69024,0.19055,0.10537,
6.79688,-56.96187,-42.52712,-9.40836,-0.85888,0.70282,1.05778,,,0.69333,0.68774,0.18858,0.10367,
6.80469,-55.82879,-47.03764,-16.59636,-0.82696,0.67904,1.02764,,,0.69667,0.68520,0.18674,0.10139,
6.81250,-52.49822,-54.55516,-30.34427,-0.76117,0.68875,0.97417,,,0.70001,0.68269,0.18520,0.09807,
6.82031,-53.42529,-60.42599,-38.85821,-1.10217,2.82934,1.41944,,,0.70351,0.68004,0.18377,0.09407,
6.82813,-99.53815,-67.08438,-74.76330,-0.91789,2.07198,1.21819,,,0.70942,0.67472,0.18337,0.08862,
6.83594,-249.48219,-60.35440,-110.98242,0.39532,-0.23406,0.24552,,,0.72219,0.66151,0.18401,0.08358,
6.84375,-251.64534,-34.75901,-129.26645,0.20765,0.80276,0.00879,,,0.73457,0.64757,0.18666,0.07879,
6.85156,-242.58071,-27.70686,-122.60185,-0.19381,1.25737,-0.40342,,,0.74616,0.63391,0.18935,0.07450,
6.85938,-245.46491,-24.27027,-105.05058,0.02240,1.69597,-0.62313,,,0.75749,0.62009,0.19138,0.07127,
6.86719,-259.95458,-19.79555,-109.44712,-0.22477,1.20934,-0.02378,,,0.76913,0.60522,0.19368,0.06816,
6.87500,-249.27617,-21.12007,-106.13227,-0.28765,0.97015,0.28149,,,0.78005,0.59074,0.19576,0.06500,
6.88281,-215.04347,-15.67881,-83.76574,-0.76069,0.56018,0.59842,,,0.78919,0.57818,0.19733,0.06277,
6.89063,-190.93980,-17.82668,-63.66726,-0.53239,0.52864,0.56051,,,0.79716,0.56707,0.19804,0.06121,
6.89844,-142.21743,-13.49515,-35.29911,-0.36165,0.44907,0.60377,,,0.80295,0.55889,0.19807,0.06069,
6.90625,-92.12163,-6.76517,-23.12138,-0.10868,0.63295,0.56731,,,0.80663,0.55356,0.19820,0.06040,
6.91406,-72.99664,-4.25933,-22.77245,-0.12077,0.77608,0.51919,,,0.80952,0.54924,0.19852,0.05998,
6.92188,-52.77291,-2.11147,-25.28476,-0.11981,0.85807,0.36607,,,0.81162,0.54599,0.19913,0.05922,
6.92969,-43.02157,6.98116,-22.94692,-0.01340,0.79937,0.37142,,,0.81322,0.54327,0.20019,0.05879,
6.93750,-38.59226,13.46055,-21.16737,-0.07531,0.67759,0.39232,,,0.81455,0.54078,0.20157,0.05864,
6.94531,-26.88379,16.86134,-18.86442,-0.30022,0.61306,0.54544,,,0.81538,0.53896,0.20309,0.05859,
6.95313,-17.09811,9.80918,-12.89768,-0.28426,0.77220,0.44385,,,0.81592,0.53779,0.20404,0.05847,
6.96094,-14.04223,7.08855,-11.15302,-0.20929,0.91775,0.35149,,,0.81638,0.53683,0.20479,0.05830,
6.96875,-17.30412,5.62085,-13.21172,-0.13915,0.96578,0.40156,,,0.81699,0.53566,0.20552,0.05801,
6.97656,-17.78482,6.37260,-14.57255,-0.24508,0.85662,0.43607,,,0.81761,0.53443,0.20633,0.05768,
6.98438,-11.19237,4.65431,-11.29260,-0.29103,0.88864,0.38940,,,0.81799,0.53363,0.20696,0.05738,
6.99219,-8.41117,3.47298,-7.80328,-0.18946,0.93716,0.36802,,,0.81828,0.53304,0.20740,0.05719,
7.00000,-7.69012,3.58037,-8.88497,-0.21364,0.96821,0.37433,,,0.81854,0.53247,0.20790,0.05693,
7.00781,-6.28236,2.90022,-8.43135,-0.21654,0.88282,0.43169,1021.704,24.4,0.81876,0.53199,0.20834,0.05666,
7.01563,-0.13627,2.39905,-5.29097,-0.24750,0.94783,0.37433,,,0.81875,0.53190,0.20866,0.05645,
7.02344,-0.06760,1.96948,-5.11650,-0.21896,0.95414,0.41128,,,0.81875,0.53181,0.20896,0.05624,
7.03125,-0.23928,2.00527,-3.82545,-0.30506,0.89446,0.38308,,,0.81874,0.53174,0.20921,0.05610,
7.03906,0.41310,0.03640,0.92002,-0.25040,0.96045,0.38163,,,0.81872,0.53177,0.20918,0.05615,
7.04688,-0.34228,-0.42897,1.37363,-0.24411,0.91144,0.34809,,,0.81874,0.53178,0.20910,0.05621,
7.05469,0.41310,-1.46711,3.22297,-0.26927,0.87894,0.43121,,,0.81873,0.53185,0.20891,0.05634,
7.06250,3.94968,-1.75349,5.21188,-0.25137,0.87991,0.35246,,,0.81859,0.53215,0.20863,0.05651,
7.07031,4.32737,-2.21886,6.78207,-0.21848,0.85080,0.33107,,,0.81844,0.53250,0.20828,0.05674,
7.07813,2.26723,-2.50524,5.70038,-0.16334,0.84206,0.43461,,,0.81837,0.53272,0.20794,0.05694,
7.08594,3.77800,-1.64610,4.68848,-0.24024,0.86923,0.41565,,,0.81824,0.53300,0.20770,0.05709,
7.09375,4.60206,-2.36205,3.74637,-0.19429,0.93036,0.37239,,,0.81809,0.53332,0.20745,0.05714,
7.10156,3.64066,-2.14726,2.42043,-0.22525,0.92357,0.37774,,,0.81798,0.53356,0.20725,0.05715,
7.10938,2.88527,-2.89902,1.19916,-0.17930,0.89543,0.40982,,,0.81791,0.53375,0.20706,0.05707,
7.11719,4.19003,-2.36205,0.01280,-0.21364,0.86729,0.40544,,,0.81779,0.53400,0.20694,0.05693,
7.12500,5.08276,-2.57684,0.57109,-0.19188,0.90853,0.41808,,,0.81764,0.53430,0.20680,0.05679,
7.13281,4.15569,-2.61264,-0.89443,-0.18946,0.89155,0.47058,,,0.81753,0.53453,0.20670,0.05659,
7.14063,5.49479,-2.21886,-1.87144,-0.22138,0.85807,0.39281,,,0.81737,0.53481,0.20666,0.05633,
7.14844,4.84241,-2.50524,-2.18547,-0.16479,0.85904,0.40204,,,0.81724,0.53506,0.20662,0.05605,
7.15625,5.18577,-1.57450,-3.47652,-0.22283,0.88718,0.36558,,,0.81708,0.53531,0.20668,0.05572,
7.16406,3.57199,-2.14726,-3.05780,-0.19671,0.89495,0.42926,,,0.81699,0.53547,0.20669,0.05542,
7.17188,2.88527,-2.11147,-3.99992,-0.20445,0.81926,0.36364,,,0.81693,0.53558,0.20673,0.05508,
7.17969,4.43038,-2.46944,-2.67398,-0.18462,0.94929,0.34031,,,0.81682,0.53580,0.20670,0.05478,
7.18750,1.06548,-1.78929,-4.69778,-0.20010,0.86778,0.40593,,,0.81682,0.53580,0.20678,0.05444,
7.19531,2.54192,-1.28812,-5.08161,-0.24170,0.92260,0.39135,,,0.81676,0.53588,0.20690,0.05407,
7.20313,2.64492,-1.50291,-4.83736,-0.21026,0.94346,0.36802,,,0.81671,0.53596,0.20700,0.05371,
7.21094,2.37024,-1.28812,-5.22118,-0.23976,0.93716,0.39864,,,0.81666,0.53602,0.20713,0.05334,
7.21875,1.16849,-1.43131,-5.36075,-0.22815,0.85759,0.41808,,,0.81665,0.53602,0.20725,0.05297,
7.22656,4.29304,-1.71769,-3.05780,-0.21751,0.91096,0.36461,,,0.81653,0.53622,0.20728,0.05268,
7.23438,3.36597,-1.28812,-4.87225,-0.22235,0.92648,0.36510,,,0.81645,0.53634,0.20740,0.05231,
7.24219,2.37024,-1.43131,-4.24417,-0.21703,0.89689,0.41711,,,0.81639,0.53642,0.20748,0.05199,
7.25000,3.88101,-1.07333,-6.02372,-0.22960,0.88524,0.34711,,,0.81629,0.53655,0.20766,0.05156,
7.25781,4.80807,-0.96594,-5.50033,-0.23928,0.95171,0.34565,,,0.81615,0.53675,0.20782,0.05115,
7.26563,3.40031,-0.93014,-4.76757,-0.21219,0.95220,0.36413,,,0.81605,0.53687,0.20796,0.05081,
7.27344,2.26723,-0.71536,-6.23308,-0.23734,0.89495,0.36558,,,0.81600,0.53691,0.20815,0.05040,
7.28125,3.19430,-1.32392,-6.09351,-0.23686,0.92212,0.33934,,,0.81592,0.53701,0.20831,0.04997,
7.28906,2.47325,-1.43131,-5.39565,-0.22622,0.95802,0.34225,,,0.81587,0.53707,0.20844,0.04958,
7.29688,-1.06333,-2.03987,-5.46543,-0.18462,0.85856,0.41468,,,0.81596,0.53694,0.20852,0.04922,
7.30469,0.17275,-1.28812,-6.61691,-0.26975,0.92697,0.40253,,,0.81599,0.53686,0.20869,0.04880,
7.31250,-0.13627,-1.82509,-4.48842,-0.28619,0.97791,0.38406,,,0.81604,0.53680,0.20875,0.04849,
7.32031,-1.40669,-2.29046,-4.17439,-0.26491,0.98567,0.40593,,,0.81614,0.53667,0.20878,0.04819,
7.32813,-3.12348,-2.75583,-3.33695,-0.24024,0.95171,0.41031,,,0.81630,0.53646,0.20873,0.04795,
7.33594,-2.23075,-2.79162,-3.51142,-0.28184,1.07543,0.36170,,,0.81643,0.53629,0.20870,0.04768,
7.34375,-7.27810,-3.68657,-2.04590,-0.32344,1.09872,0.45260,,,0.81676,0.53587,0.20854,0.04754,
7.35156,-11.84475,-5.26167,-1.90633,-0.31909,0.95802,0.44628,,,0.81727,0.53520,0.20828,0.04741,
7.35938,-14.21391,-8.05389,0.22216,-0.43178,1.06815,0.38454,,,0.81790,0.53444,0.20778,0.04733,
7.36719,-16.92643,-10.59553,2.45532,-0.50724,1.20352,0.38260,,,0.81866,0.53356,0.20705,0.04732,
7.37500,-28.77225,-18.39944,3.22297,-0.42937,1.26028,0.39913,,,0.81995,0.53206,0.20581,0.04723,
7.38281,-39.82835,-24.23447,3.32765,-0.35343,1.31608,0.43218,,,0.82172,0.52995,0.20420,0.04710,
7.39063,-44.29199,-25.98856,7.16590,-0.28668,1.29473,0.35781,,,0.82366,0.52765,0.20234,0.04718,
7.39844,-56.54984,-28.06483,3.92083,-0.30699,1.41214,0.42489,,,0.82606,0.52462,0.20044,0.04717,
7.40625,-68.97937,-28.74499,-1.31314,-0.36745,1.36605,0.49197,,,0.82891,0.52080,0.19865,0.04701,
7.41406,-72.48161,-30.24850,-4.06971,-0.29006,1.43010,0.42829,,,0.83190,0.51674,0.19685,0.04669,
7.42188,-85.83820,-30.74966,-2.49951,-0.30312,1.49462,0.45648,,,0.83532,0.51193,0.19491,0.04661,
7.42969,-97.75269,-30.71387,-8.91986,-0.24460,1.49754,0.45891,,,0.83915,0.50633,0.19316,0.04633,
7.43750,-104.03612,-31.82360,-7.24499,-0.24895,1.54605,0.46523,,,0.84316,0.50037,0.19126,0.04619,
7.44531,-113.06642,-31.14344,-8.08242,-0.33650,1.64212,0.42149,,,0.84742,0.49385,0.18938,0.04613,
7.45313,-121.82202,-32.86173,-7.07052,-0.28668,1.56789,0.41419,,,0.85194,0.48680,0.18733,0.04619,
7.46094,-135.55630,-33.14811,-8.29178,-0.36987,1.65522,0.48225,,,0.85685,0.47891,0.18524,0.04634,
7.46875,-150.01164,-36.72789,-7.03563,-0.33795,1.78379,0.34711,,,0.86218,0.47015,0.18284,0.04662,
7.47656,-158.66424,-37.05007,-5.63990,-0.41776,1.95215,0.40690,,,0.86769,0.46084,0.18033,0.04708,
7.48438,-182.25287,-39.73490,-7.41945,-0.32054,2.13651,0.44871,,,0.87386,0.45007,0.17761,0.04763,
7.49219,-208.34801,-40.95202,-6.54712,-0.27846,2.30002,0.35392,,,0.88067,0.43767,0.17468,0.04850,
7.50000,-220.74320,-41.20261,-4.94204,-0.28087,2.53193,0.25816,,,0.88766,0.42444,0.17160,0.04960,
7.50781,-256.76136,-40.70144,-5.08161,-0.26104,2.71775,0.12837,,,0.89544,0.40893,0.16839,0.05111,
7.51563,-295.90407,-42.59872,-1.90633,-0.08546,3.04088,0.15705,,,0.90399,0.39091,0.16478,0.05319,
7.52344,-317.67291,-39.34112,-2.22037,-0.01630,3.10832,0.18330,,,0.91269,0.37137,0.16122,0.05556,
7.53125,-360.90156,-32.79014,-12.47896,0.11285,3.06611,0.05303,,,0.92195,0.34881,0.15808,0.05791,
7.53906,-400.25029,-23.69751,-14.29341,0.07028,3.13695,0.17601,,,0.93143,0.32348,0.15529,0.06074,
7.54688,-419.30660,-19.93874,-14.60745,-0.14883,3.01517,0.26253,,,0.94056,0.29667,0.15255,0.06379,
7.55469,-446.43181,-30.71387,-6.47734,-0.20252,2.88271,0.23628,,,0.94949,0.26799,0.14870,0.06736,
7.56250,-460.74980,-36.51310,0.22216,-0.10239,2.79684,0.25087,,,0.95780,0.23823,0.14414,0.07135,
7.57031,-488.69907,-38.33879,13.37689,-0.30699,2.30390,0.11087,,,0.96551,0.20653,0.13897,0.07636,
7.57813,-505.45490,-44.13802,12.12073,-0.36697,1.88374,-0.25710,,,0.97240,0.17350,0.13318,0.08128,
7.58594,-506.00427,-43.81584,-2.08079,-0.31231,1.89489,-0.36988,,,0.97820,0.14011,0.12743,0.08516,
7.59375,-499.17146,-40.30766,-46.67428,0.17863,1.04535,-0.85597,,,0.98301,0.10659,0.12221,0.08595,
7.60156,-425.41836,-2.46944,-82.78873,0.64684,-0.05842,-1.21130,,,0.98618,0.07737,0.12010,0.08389,
7.60938,-375.18522,24.37886,-73.43735,0.84321,-0.56010,-1.27790,,,0.98804,0.05138,0.11994,0.08213,
7.61719,-245.77393,55.23652,-61.85282,-0.10917,-2.03309,-0.91722,,,0.98864,0.03400,0.12248,0.08015,
7.62500,-54.73005,37.30185,-27.37835,-0.48402,-0.35923,-0.88902,,,0.98860,0.02987,0.12476,0.07885,
7.63281,-3.63851,28.60300,-32.08893,-0.35536,-0.35923,-0.92013,,,0.98853,0.02920,0.12674,0.07678,
7.64063,85.66867,19.36718,-81.00918,-0.30941,0.23462,-0.82097,,,0.98858,0.03417,0.12865,0.07061,
7.64844,114.71668,14.42709,-100.20043,-0.30603,0.58249,-0.73785,,,0.98862,0.04096,0.13041,0.06288,
7.65625,138.92335,-0.67956,-96.78089,-0.12948,0.80131,-0.70820,,,0.98858,0.04946,0.13122,0.05512,
7.66406,144.82909,-13.13717,-60.91070,0.05674,0.77996,-0.70382,,,0.98838,0.05873,0.13108,0.04967,
7.67188,145.44714,-17.86248,-40.04458,0.10849,0.73581,-0.69118,,,0.98804,0.06823,0.13052,0.04560,
7.67969,146.78623,-25.16522,-5.39565,0.11720,0.60433,-0.67660,,,0.98755,0.07815,0.12930,0.04381,
7.68750,152.96666,-29.28196,10.75990,0.08479,0.44616,-0.65618,,,0.98690,0.08863,0.12772,0.04303,
7.69531,158.97541,-29.78312,10.82968,0.04465,0.36902,-0.64743,,,0.98611,0.09951,0.12611,0.04219,
7.70313,176.79564,-29.13877,-0.51060,-0.02500,0.25160,-0.63139,,,0.98509,0.11146,0.12466,0.04044,
7.71094,202.47875,-27.77845,-19.03888,-0.04097,0.21036,-0.64306,,,0.98374,0.12497,0.12348,0.03722,
7.71875,217.55213,-26.91930,-27.37835,-0.02113,0.22055,-0.64257,,,0.98207,0.13938,0.12245,0.03332,
7.72656,248.72895,-24.44926,-35.82250,0.02385,0.28945,-0.63869,,,0.97985,0.15577,0.12170,0.02861,
7.73438,264.24869,-23.16054,-35.05485,0.06496,0.34427,-0.62216,,,0.97714,0.17315,0.12102,0.02383,
7.74219,292.60999,-19.15119,-25.94773,0.13751,0.50486,-0.57501,,,0.97369,0.19243,0.12050,0.01945,
7.75000,314.99687,-13.56675,-12.02535,0.15686,0.68778,-0.51327,,,0.96946,0.21321,0.12015,0.01589,
7.75781,323.75247,-10.48814,-5.77947,0.14767,0.76977,-0.47779,,,0.96461,0.23452,0.11986,0.01270,
7.76563,337.28074,-4.47412,2.03660,0.12397,0.88524,-0.39467,,,0.95900,0.25666,0.11979,0.01000,
7.77344,347.85614,1.96948,6.46803,0.14574,1.01818,-0.30474,,,0.95262,0.27938,0.12001,0.00762,
7.78125,351.59873,6.30100,8.56163,0.19024,1.13123,-0.27509,,,0.94559,0.30220,0.12041,0.00542,
7.78906,354.51727,19.61776,10.58543,0.17718,1.27435,-0.21919,,,0.93785,0.32505,0.12155,0.00359,
7.79688,354.03657,31.93219,11.80669,0.14961,1.38158,-0.15454,,,0.92946,0.34768,0.12338,0.00212,
7.80469,353.17818,38.19679,13.41178,0.13365,1.41700,-0.12634,,,0.92049,0.37006,0.12549,0.00091,
7.81250,352.45713,50.51122,15.81941,0.11140,1.48783,-0.08794,,,0.91090,0.39220,0.12824,0.00016,
7.82031,353.62454,62.64665,19.16915,0.10366,1.58244,-0.04468,,,0.90062,0.41421,0.13159,-0.00006,
7.82813,355.10098,68.48169,23.07719,0.10462,1.65279,-0.01017,,,0.88970,0.43609,0.13509,0.00010,
7.83594,358.08818,80.83191,36.05745,0.10704,1.76826,0.06372,,,0.87803,0.45801,0.13888,0.00140,
7.84375,359.87364,87.56189,43.55949,0.10317,1.82746,0.10844,,,0.86568,0.47980,0.14275,0.00333,
7.85156,363.75357,102.45375,56.95847,0.03691,2.01134,0.22559,,,0.85248,0.50163,0.14697,0.00650,
7.85938,365.64204,115.69891,65.12348,-0.16479,2.11177,0.40933,,,0.83849,0.52330,0.15157,0.01058,
7.86719,366.77512,119.06390,67.25196,-0.29925,2.16271,0.52065,,,0.82383,0.54469,0.15618,0.01488,
7.87500,368.45757,117.48880,67.70557,-0.65718,2.31506,0.79529,,,0.80854,0.56578,0.16059,0.01911,
7.88281,364.92099,99.73312,64.77454,-0.86130,2.39123,1.10979,,,0.79302,0.58627,0.16400,0.02252,
7.89063,361.35008,87.88407,63.72775,-0.89274,2.37231,1.28722,,,0.77724,0.60619,0.16671,0.02543,
7.89844,350.94636,64.40074,62.36691,-0.85791,2.37667,1.64304,,,0.76167,0.62518,0.16810,0.02740,
7.90625,332.16472,44.46140,58.84270,-0.76408,2.33786,1.95463,,,0.74670,0.64284,0.16848,0.02854,
7.91406,319.73520,36.62169,54.44616,-0.68088,2.28983,2.08587,,,0.73198,0.65950,0.16853,0.02923,
7.92188,290.00047,27.09949,40.17485,-0.55464,2.15689,2.24482,,,0.71842,0.67424,0.16862,0.02912,
7.92969,273.31332,23.59131,33.30089,-0.49757,2.06907,2.30170,,,0.70540,0.68783,0.16876,0.02869,
7.93750,238.49691,17.68469,27.57841,-0.43952,1.82697,2.34836,,,0.69387,0.69948,0.16876,0.02810,
7.94531,205.98099,10.41774,35.22002,-0.45355,1.57080,2.41058,,,0.68380,0.70953,0.16795,0.02789,
7.95313,191.21664,6.19361,41.08207,-0.47241,1.45921,2.46065,,,0.67436,0.71883,0.16659,0.02791,
7.96094,163.26737,-0.60796,46.10669,-0.39115,1.28600,2.56224,,,0.66624,0.72680,0.16461,0.02814,
7.96875,134.90607,-1.78929,36.65064,-0.39841,1.16907,2.66189,,,0.65949,0.73330,0.16296,0.02820,
7.97656,119.90137,-2.86322,30.54433,-0.31183,1.20303,2.65703,,,0.65346,0.73900,0.16152,0.02810,
7.98438,86.25238,-0.82275,20.70445,-0.42259,1.03904,2.68279,,,0.64908,0.74304,0.16061,0.02803,
7.99219,53.59912,-4.83210,17.07556,-0.27459,1.02400,2.69495,,,0.64639,0.74560,0.15963,0.02795,
8.00000,36.15658,-4.93949,14.70283,-0.17737,0.97791,2.66043,,,0.64459,0.74735,0.15873,0.02796,
8.00781,4.01835,-1.18073,6.43314,-0.04774,1.00169,2.56710,1021.634,24.4,0.64440,0.74759,0.15835,0.02814,
8.01563,-12.22244,1.00294,2.56000,0.00160,1.00848,2.50731,,,0.64502,0.74706,0.15824,0.02843,
8.02344,-43.46793,4.40372,-2.63909,0.07318,1.01867,2.34544,,,0.64720,0.74510,0.15848,0.02901,
8.03125,-71.34853,5.87143,-1.24336,0.12639,0.99780,2.15101,,,0.65076,0.74191,0.15866,0.03003,
8.03906,-83.84673,6.69478,1.09448,0.14719,0.95899,2.04115,,,0.65493,0.73817,0.15872,0.03132,
8.04688,-102.59402,8.98583,8.14291,0.02046,1.32093,1.69359,,,0.65997,0.73363,0.15849,0.03325,
8.05469,-294.66798,-36.87108,-106.34163,-2.16773,3.13549,1.41312,,,0.67520,0.71914,0.16145,0.02979,
8.06250,-414.67128,-72.16766,-150.44661,0.14864,-1.50910,-0.96972,,,0.69630,0.69822,0.16458,0.02388,
8.07031,-386.20698,-37.22906,-156.51802,-0.06708,1.61834,-1.06596,,,0.71506,0.67792,0.16957,0.01900,
8.07813,-364.09478,-87.27430,-150.09768,-0.87726,2.09382,-1.48206,,,0.73281,0.65830,0.17172,0.01186,
8.08594,-361.93163,-106.67668,-131.88344,-0.69104,1.85317,-0.97312,,,0.75013,0.63853,0.17195,0.00471,
8.09375,-364.19779,-105.99652,-95.35027,-0.55029,0.71883,0.32281,,,0.76698,0.61860,0.17051,-0.00051,
8.10156,-325.39844,-80.75911,-57.21202,-0.16189,0.49468,0.88182,,,0.78143,0.60075,0.16866,-0.00312,
8.10938,-299.44064,-61.46413,-46.95343,0.01853,0.35349,0.67717,,,0.79422,0.58411,0.16734,-0.00470,
8.11719,-236.46895,-19.90295,-34.11274,0.18008,0.45586,0.63585,,,0.80375,0.57084,0.16767,-0.00464,
8.12500,-203.88437,-3.79396,-29.82088,0.08141,0.53155,0.65627,,,0.81164,0.55926,0.16867,-0.00409,
8.13281,-145.51366,16.18118,-25.49412,-0.44968,0.69311,0.63537,,,0.81695,0.55089,0.17057,-0.00321,
8.14063,-94.52513,11.31269,-11.88578,-0.48741,0.61403,0.60037,,,0.82035,0.54548,0.17166,-0.00235,
8.14844,-70.79916,7.26754,-7.66370,-0.40421,0.60869,0.58335,,,0.82289,0.54142,0.17236,-0.00168,
8.15625,-33.71659,7.87610,-1.52250,-0.17108,0.66303,0.58433,,,0.82404,0.53951,0.17286,-0.00107,
8.16406,-17.99084,12.45822,-0.92932,-0.12464,0.66837,0.46329,,,0.82456,0.53849,0.17360,-0.00046,
8.17188,-13.25251,15.10725,-0.96421,-0.15173,0.75764,0.42246,,,0.82486,0.53773,0.17448,0.00020,
8.17969,-14.86629,13.35316,-2.95312,-0.12077,0.71543,0.52405,,,0.82525,0.53686,0.17534,0.00070,
8.18750,-10.23097,8.59206,-11.43217,-0.04774,0.76104,0.51287,,,0.82552,0.53615,0.17624,0.00050,
8.19531,-7.14075,7.05276,-15.82871,-0.13383,0.77753,0.44773,,,0.82570,0.53555,0.17721,-0.00005,
8.20313,-3.22648,5.01228,-16.00318,-0.30119,0.84837,0.39572,,,0.82576,0.53518,0.17808,-0.00073,
8.21094,-2.88313,4.11734,-12.47896,-0.34907,0.86195,0.43412,,,0.82581,0.53486,0.17877,-0.00125,
8.21875,-0.06760,1.71889,-5.84926,-0.24315,0.89786,0.37920,,,0.82579,0.53479,0.17908,-0.00151,
8.22656,0.51611,0.68076,-1.59229,-0.22283,0.94638,0.35878,,,0.82576,0.53480,0.17917,-0.00158,
8.23438,-0.41095,1.07453,0.95491,-0.29151,0.91775,0.39281,,,0.82577,0.53479,0.17920,-0.00149,
8.24219,-0.37662,-0.10679,6.25868,-0.33311,0.87894,0.46718,,,0.82578,0.53484,0.17897,-0.00113,
8.25000,2.81660,-1.71769,12.53945,-0.27797,0.92066,0.42440,,,0.82570,0.53515,0.17841,-0.00052,
8.25781,3.64066,-2.57684,13.62114,-0.20590,0.94007,0.40933,,,0.82560,0.53552,0.17777,0.00011,
8.26563,3.94968,-3.22120,12.78370,-0.17785,0.91629,0.46280,,,0.82549,0.53590,0.17712,0.00066,
8.27344,5.18577,-3.54338,11.28329,-0.19575,0.84109,0.42878,,,0.82535,0.53633,0.17651,0.00110,
8.28125,7.45192,-3.40019,11.66712,-0.25524,0.92406,0.38989,,,0.82511,0.53689,0.17589,0.00155,
8.28906,6.31884,-4.08034,12.29520,-0.17688,0.89737,0.41905,,,0.82493,0.53739,0.17521,0.00201,
8.29688,6.86822,-3.97295,9.57353,-0.13674,0.85565,0.43364,,,0.82472,0.53789,0.17464,0.00232,
8.30469,8.89402,-3.14960,7.61951,-0.15657,0.87748,0.38551,,,0.82443,0.53848,0.17418,0.00253,
8.31250,9.16871,-2.93482,5.10720,-0.11110,0.97452,0.39232,,,0.82413,0.53906,0.17383,0.00260,
8.32031,6.28451,-3.14960,1.65278,-0.10143,0.86875,0.41371,,,0.82394,0.53943,0.17359,0.00251,
8.32813,7.76094,-2.61264,-3.44163,-0.13964,0.90611,0.35538,,,0.82368,0.53983,0.17357,0.00213,
8.33594,6.18150,-2.29046,-6.40755,-0.11158,0.95268,0.32329,,,0.82348,0.54010,0.17368,0.00161,
8.34375,4.94542,-1.71769,-7.90796,-0.16672,0.96433,0.37190,,,0.82332,0.54028,0.17387,0.00104,
8.35156,2.47325,-1.61030,-12.23471,-0.17978,0.87263,0.38163,,,0.82325,0.54028,0.17423,0.00027,
8.35938,1.75220,-1.78929,-12.19982,-0.18462,0.94007,0.40496,,,0.82321,0.54023,0.17458,-0.00050,
8.36719,0.03541,-1.43131,-13.49087,-0.19091,0.86778,0.40885,,,0.82322,0.54007,0.17500,-0.00131,
8.37500,0.00107,-1.10913,-13.45597,-0.21751,0.89252,0.44822,,,0.82324,0.53991,0.17543,-0.00211,
8.38281,1.75220,-0.96594,-13.10704,-0.20494,0.93279,0.35781,,,0.82318,0.53985,0.17586,-0.00290,
8.39063,1.20282,-1.00174,-12.02535,-0.19139,0.95899,0.35489,,,0.82315,0.53978,0.17624,-0.00363,
8.39844,-2.05907,-0.67956,-13.70023,-0.17978,0.87651,0.39281,,,0.82323,0.53949,0.17671,-0.00439,
8.40625,-1.95606,-0.35738,-14.36320,-0.20687,0.91290,0.44530,,,0.82330,0.53921,0.17722,-0.00519,
8.41406,-1.16634,0.17959,-14.67723,-0.26878,0.83770,0.34857,,,0.82333,0.53897,0.17777,-0.00599,
8.42188,-0.75431,0.46597,-10.80409,-0.28281,0.92745,0.42926,,,0.82335,0.53879,0.17819,-0.00657,
8.42969,-2.95180,-0.10679,-10.55984,-0.21799,0.79791,0.42392,,,0.82346,0.53850,0.17857,-0.00713,
8.43750,1.30583,0.25118,-8.29178,-0.24315,0.88524,0.33691,,,0.82340,0.53847,0.17889,-0.00761,
8.44531,-0.58263,0.43017,-6.37266,-0.18801,0.84983,0.35538,,,0.82341,0.53836,0.17915,-0.00794,
8.45313,-0.44529,0.93134,-7.27988,-0.22477,0.82508,0.37482,,,0.82341,0.53825,0.17947,-0.00831,
8.46094,-0.85732,0.75235,-7.07052,-0.17833,0.78918,0.41371,,,0.82343,0.53811,0.17977,-0.00867,
8.46875,3.22863,1.75469,-9.44326,-0.18172,0.96821,0.35100,,,0.82329,0.53818,0.18021,-0.00917,
8.47656,1.27150,2.00527,-9.82708,-0.18510,0.94249,0.37288,,,0.82321,0.53813,0.18068,-0.00967,
8.48438,-1.54403,2.29166,-13.90958,-0.16285,0.88718,0.45746,,,0.82323,0.53788,0.18132,-0.01034,
8.49219,-1.92173,1.96948,-16.17764,-0.14834,0.87069,0.42100,,,0.82326,0.53757,0.18202,-0.01115,
8.50000,-1.57837,1.53990,-20.99290,-0.05161,0.97597,0.35586,,,0.82329,0.53722,0.18288,-0.01226,
8.50781,-4.80593,3.07921,-32.61233,0.14284,1.02206,0.45454,,,0.82339,0.53655,0.18425,-0.01391,
8.51563,-7.24376,5.83563,-40.56798,-0.01001,0.96918,0.45551,,,0.82354,0.53563,0.18606,-0.01588,
8.52344,-8.10215,9.70179,-44.12708,-0.53433,0.86438,0.31454,,,0.82367,0.53463,0.18823,-0.01790,
8.53125,-10.02495,5.87143,-28.18090,-0.70313,0.83964,0.41079,,,0.82392,0.53371,0.18960,-0.01915,
8.53906,-9.64726,3.65197,-18.68995,-0.59334,0.79888,0.44044,,,0.82420,0.53293,0.19050,-0.01994,
8.54688,-4.90893,0.10799,-4.31396,-0.42937,1.04438,0.33642,,,0.82437,0.53260,0.19067,-0.02011,
8.55469,-13.32118,-1.68189,3.29276,-0.36987,1.12783,0.33302,,,0.82488,0.53189,0.19047,-0.01982,
8.56250,-15.89636,-1.96828,3.92083,-0.31715,0.99053,0.32864,,,0.82548,0.53104,0.19024,-0.01946,
8.57031,-19.26126,-2.82742,8.24759,-0.28910,1.10357,0.37190,,,0.82623,0.53006,0.18981,-0.01885,
8.57813,-25.68204,-5.76284,8.03823,-0.37132,1.37187,0.38697,,,0.82724,0.52871,0.18923,-0.01827,
8.58594,-36.56646,-9.48580,7.06122,-0.38535,1.35538,0.45551,,,0.82869,0.52673,0.18848,-0.01774,
8.59375,-47.79423,-14.78387,5.83996,-0.43517,1.24330,0.51822,,,0.83059,0.52408,0.18749,-0.01733,
8.60156,-52.56690,-18.04146,0.32683,-0.48692,1.28842,0.34517,,,0.83270,0.52108,0.18652,-0.01728,
8.60938,-63.17663,-23.08895,2.38553,-0.47000,1.47037,0.49197,,,0.83523,0.51750,0.18520,-0.01716,
8.61719,-74.98811,-27.20569,-1.62718,-0.40180,1.61543,0.56245,,,0.83820,0.51317,0.18379,-0.01727,
8.62500,-84.08708,-27.27728,-1.62718,-0.45162,1.61398,0.49489,,,0.84147,0.50830,0.18238,-0.01726,
8.63281,-96.55094,-29.85472,-2.67398,-0.59914,1.75371,0.38843,,,0.84516,0.50269,0.18087,-0.01725,
8.64063,-117.01502,-34.40103,1.75746,-0.60059,1.88325,0.52113,,,0.84957,0.49591,0.17896,-0.01688,
8.64844,-127.89944,-38.94735,2.35064,-0.55948,1.90994,0.55759,,,0.85433,0.48847,0.17677,-0.01650,
8.65625,-147.43646,-43.24308,2.14128,-0.58076,2.07150,0.47058,,,0.85971,0.47984,0.17433,-0.01604,
8.66406,-171.91782,-50.36683,4.40934,-0.46129,2.23985,0.44919,,,0.86588,0.46973,0.17141,-0.01538,
8.67188,-184.82805,-52.40730,4.82806,-0.38196,2.34417,0.38114,,,0.87233,0.45878,0.16834,-0.01461,
8.67969,-214.52844,-54.19719,5.00252,-0.27265,2.54212,0.16580,,,0.87957,0.44599,0.16515,-0.01354,
8.68750,-230.21985,-53.91081,5.42124,-0.18414,2.81139,0.15511,,,0.88706,0.43215,0.16195,-0.01226,
8.69531,-272.83047,-49.32869,3.25786,-0.18172,3.06805,0.19837,,,0.89548,0.41558,0.15906,-0.01050,
8.70313,-319.66438,-46.50067,5.94464,-0.14544,3.30239,0.09191,,,0.90482,0.39601,0.15625,-0.00798,
8.71094,-341.43322,-44.24541,13.06285,-0.11062,3.46589,-0.05343,,,0.91426,0.37498,0.15331,-0.00473,
8.71875,-396.02699,-40.09288,-4.76757,-0.02694,3.23835,-0.14141,,,0.92445,0.35012,0.15100,-0.00191,
8.72656,-432.80054,-35.86874,-21.09758,0.35711,3.36207,-0.04128,,,0.93473,0.32249,0.14923,0.00037,
8.73438,-455.66812,-27.99324,-19.28313,0.00305,3.01226,0.13858,,,0.94458,0.29313,0.14778,0.00316,
8.74219,-480.90487,-37.73022,-10.97856,-0.04629,2.68816,0.22024,,,0.95405,0.26193,0.14539,0.00654,
8.75000,-503.90979,-40.02128,12.57434,-0.14931,2.61684,0.15268,,,0.96286,0.22918,0.14225,0.01164,
8.75781,-516.92302,-38.83995,8.87566,-0.29829,2.29322,-0.09961,,,0.97070,0.19526,0.13907,0.01662,
8.76563,-530.14227,-47.75359,-6.23308,-0.41727,2.32476,-0.35821,,,0.97757,0.16008,0.13530,0.02058,
8.77344,-539.41291,-51.65555,-17.95719,0.25457,2.24374,-0.44814,,,0.98329,0.12396,0.13121,0.02378,
8.78125,-522.89744,-34.93800,-47.23257,0.46304,0.87748,-1.18943,,,0.98746,0.08850,0.12834,0.02499,
8.78906,-425.89906,19.65356,-31.46086,1.09763,-0.66344,-1.63615,,,0.98949,0.05949,0.12906,0.02670,
8.79688,-361.82863,58.60151,-11.81599,0.74793,-1.85503,-1.57976,,,0.99015,0.03484,0.13236,0.02931,
8.80469,-149.90863,75.14007,-36.17144,-0.31135,-2.00980,-1.16075,,,0.98984,0.02423,0.13722,0.02840,
8.81250,31.38391,51.69254,-11.01345,-0.45500,-0.13751,-1.04992,,,0.98931,0.02615,0.14079,0.02745,
8.82031,78.11481,39.84349,-22.00480,-0.23637,0.14001,-1.01589,,,0.98881,0.03113,0.14366,0.02528,
8.82813,136.62286,26.66992,-56.16523,-0.33795,0.92212,-0.85111,,,0.98831,0.03975,0.14581,0.02022,
8.83594,142.87196,1.28932,-46.60450,-0.24073,1.07980,-0.77674,,,0.98792,0.04892,0.14622,0.01566,
8.84375,138.64867,-12.09904,-27.69239,-0.11352,0.95705,-0.79861,,,0.98756,0.05800,0.14564,0.01237,
8.85156,132.94894,-32.43216,18.54108,0.02482,0.71592,-0.78986,,,0.98730,0.06716,0.14349,0.01217,
8.85938,133.87600,-45.42674,58.52866,0.02191,0.53058,-0.75778,,,0.98702,0.07678,0.14027,0.01459,
8.86719,137.58426,-49.32869,70.84596,-0.00130,0.42772,-0.75438,,,0.98664,0.08677,0.13671,0.01779,
8.87500,153.17267,-52.01352,75.62632,-0.05644,0.25112,-0.74757,,,0.98606,0.09783,0.13294,0.02114,
8.88281,164.91548,-51.29757,69.38044,-0.09030,0.20066,-0.73445,,,0.98524,0.10962,0.12926,0.02396,
8.89063,193.20811,-47.43141,48.51432,-0.12948,0.17155,-0.71014,,,0.98404,0.12309,0.12601,0.02516,
8.89844,224.07591,-41.73957,29.56732,-0.12851,0.22686,-0.68243,,,0.98235,0.13844,0.12334,0.02487,
8.90625,239.56132,-38.66097,23.80995,-0.12222,0.27635,-0.66299,,,0.98023,0.15473,0.12091,0.02408,
8.91406,268.30030,-32.57535,20.59977,-0.10191,0.37726,-0.62167,,,0.97747,0.17286,0.11894,0.02290,
8.92188,294.49845,-26.13175,25.24057,-0.08014,0.46993,-0.59445,,,0.97397,0.19269,0.11734,0.02188,
8.92969,306.79063,-22.62358,28.90435,-0.09320,0.51942,-0.57792,,,0.96986,0.21329,0.11589,0.02104,
8.93750,328.69682,-15.24924,34.41747,-0.10917,0.67225,-0.54779,,,0.96491,0.23526,0.11483,0.02049,
8.94531,345.48698,-7.51693,34.69662,-0.15366,0.85468,-0.51230,,,0.95911,0.25821,0.11423,0.01995,
8.95313,351.70174,-3.72237,32.74260,-0.17833,0.95074,-0.48459,,,0.95262,0.28139,0.11385,0.01928,
8.96094,359.35860,3.58037,26.70608,-0.18849,1.09678,-0.42189,,,0.94537,0.30485,0.11401,0.01829,
8.96875,361.72777,7.33914,23.70527,-0.16914,1.16131,-0.38737,,,0.93748,0.32825,0.11441,0.01715,
8.97656,364.98966,16.32437,19.76234,-0.09369,1.29279,-0.31495,,,0.92887,0.35161,0.11540,0.01593,
8.98438,367.56484,29.24736,19.27383,-0.02355,1.39322,-0.24495,,,0.91951,0.37489,0.11716,0.01495,
8.99219,369.48764,37.08706,20.32063,0.00547,1.46066,-0.20801,,,0.90946,0.39806,0.11930,0.01422,
9.00000,373.60792,54.95014,22.55379,0.02240,1.65667,-0.12586,,,0.89855,0.42123,0.12242,0.01407,
9.00781,375.97709,73.77975,26.00822,-0.01630,1.84929,-0.01892,1021.658,24.4,0.88680,0.44426,0.12650,0.01464,
9.01563,376.35478,82.58600,28.93924,-0.04387,1.92158,0.02726,,,0.87435,0.46703,0.13095,0.01564,
9.02344,377.38485,99.12456,37.83701,-0.14254,2.09867,0.14441,,,0.86110,0.48959,0.13601,0.01768,
9.03125,376.86982,113.15727,47.57220,-0.39019,2.18746,0.32184,,,0.84710,0.51183,0.14147,0.02075,
9.03906,377.52219,116.55806,49.73558,-0.56673,2.20541,0.45114,,,0.83243,0.53376,0.14694,0.02404,
9.04688,381.02444,112.54871,48.89815,-0.84243,2.30487,0.77731,,,0.81705,0.55548,0.15212,0.02708,
9.05469,382.50087,99.94791,46.90923,-1.00205,2.28109,1.17590,,,0.80115,0.57687,0.15656,0.02950,
9.06250,383.22192,91.49964,45.40883,-1.00108,2.26897,1.38395,,,0.78472,0.59788,0.16049,0.03147,
9.07031,381.05877,75.03267,38.46508,-0.94014,2.29516,1.84866,,,0.76802,0.61830,0.16369,0.03241,
9.07813,376.86982,67.51515,32.04474,-0.83953,2.36503,2.08636,,,0.75106,0.63801,0.16665,0.03271,
9.08594,356.09671,55.59450,11.42287,-0.46709,2.43247,2.45433,,,0.73471,0.65604,0.16974,0.03166,
9.09375,321.07429,52.80227,-11.11813,-0.10868,2.36843,2.65898,,,0.71960,0.67170,0.17353,0.02974,
9.10156,299.95783,52.62329,-17.01508,-0.02887,2.31748,2.72606,,,0.70514,0.68595,0.17745,0.02777,
9.10938,252.95224,48.11277,-5.67479,0.00498,2.09188,2.80140,,,0.69265,0.69782,0.18047,0.02668,
9.11719,206.42736,36.04893,30.54433,-0.12851,1.80223,2.90834,,,0.68227,0.70779,0.18107,0.02730,
9.12500,184.65852,27.85125,49.91005,-0.22864,1.71101,2.97785,,,0.67289,0.71687,0.18029,0.02869,
9.13281,139.61007,11.38428,73.42805,-0.45597,1.47716,3.05174,,,0.66576,0.72409,0.17748,0.03089,
9.14063,94.04658,-1.18073,69.79916,-0.62526,1.01770,3.00410,,,0.66098,0.72917,0.17417,0.03286,
9.14844,76.77572,-7.80331,62.75074,-0.74763,0.88961,3.02209,,,0.65712,0.73336,0.17087,0.03439,
9.15625,46.42295,-23.16054,45.26925,-0.64896,0.80616,3.00605,,,0.65498,0.73599,0.16767,0.03471,
9.16406,31.45258,-26.99090,36.44128,-0.51014,0.73047,2.96424,,,0.65364,0.73786,0.16471,0.03463,
9.17188,5.76947,-22.65937,21.47210,-0.29393,0.75182,2.86605,,,0.65357,0.73839,0.16263,0.03438,
9.17969,-21.18406,-9.37841,4.86295,-0.16285,0.86292,2.70807,,,0.65474,0.73750,0.16191,0.03436,
9.18750,-36.32611,-0.57216,-6.65180,-0.10868,0.89883,2.60453,,,0.65661,0.73579,0.16213,0.03443,
9.19531,-65.75181,18.15006,-28.11111,-0.24943,2.13845,2.08490,,,0.65978,0.73248,0.16420,0.03481,
9.20313,-266.75305,8.26988,-89.31375,-1.60666,5.12811,2.69689,,,0.67312,0.71931,0.16836,0.03419,
9.21094,-434.82634,-18.68582,-115.13471,0.72664,-1.64010,-0.04857,,,0.69459,0.69775,0.17206,0.03296,
9.21875,-409.62393,36.51430,-150.83044,0.26085,1.35732,-0.41703,,,0.71367,0.67620,0.17996,0.03235,
9.22656,-377.69172,22.12361,-143.29351,-0.73264,1.81193,-1.21471,,,0.73084,0.65577,0.18674,0.03102,
9.23438,-368.73010,-0.14259,-129.72006,-0.53481,1.81824,-1.04360,,,0.74733,0.63553,0.19169,0.02923,
9.24219,-371.09927,-15.46403,-111.36625,-0.52707,0.95753,0.08462,,,0.76357,0.61498,0.19492,0.02773,
9.25000,-361.82863,-16.43057,-92.24478,-0.75392,0.62519,0.64412,,,0.77888,0.59476,0.19718,0.02703,
9.25781,-319.76738,-14.13951,-46.36024,-0.74763,0.41850,0.69418,,,0.79193,0.57703,0.19768,0.02829,
9.26563,-257.07038,-26.59713,-20.57418,-0.03129,0.39764,0.65092,,,0.80232,0.56284,0.19652,0.02959,
9.27344,-223.69607,-19.75976,-19.66696,0.08576,0.40298,0.68884,,,0.81111,0.55031,0.19572,0.03075,
9.28125,-155.19633,-0.67956,-28.63451,-0.24798,0.68001,0.68106,,,0.81696,0.54131,0.19642,0.03121,
9.28906,-101.08325,2.25586,-23.60989,-0.38777,0.60433,0.62856,,,0.82069,0.53535,0.19720,0.03133,
9.29688,-77.73497,5.37026,-18.62016,-0.21026,0.54077,0.58190,,,0.82349,0.53072,0.19801,0.03153,
9.30469,-39.24464,13.35316,-10.59473,-0.21558,0.60918,0.59016,,,0.82475,0.52834,0.19906,0.03195,
9.31250,-17.61314,14.96406,-6.44244,-0.14254,0.69505,0.49440,,,0.82519,0.52723,0.20009,0.03236,
9.32031,-14.21391,14.71347,-7.17520,-0.04242,0.72125,0.46475,,,0.82552,0.52630,0.20114,0.03268,
9.32813,-14.38559,13.85433,-15.93339,-0.06370,0.76735,0.40642,,,0.82588,0.52524,0.20246,0.03248,
9.33594,-15.96503,11.49168,-22.21416,-0.16672,0.73241,0.50266,,,0.82634,0.52401,0.20386,0.03186,
9.34375,-13.66454,9.91658,-22.31884,-0.27023,0.67371,0.51482,,,0.82674,0.52290,0.20519,0.03115,
9.35156,-5.14928,6.12201,-16.66615,-0.31425,0.83187,0.45746,,,0.82687,0.52237,0.20612,0.03050,
9.35938,-3.91320,4.04575,-12.06025,-0.23299,0.86923,0.42149,,,0.82698,0.52197,0.20677,0.03002,
9.36719,-1.64704,2.68543,-12.30450,-0.19720,0.96045,0.44725,,,0.82703,0.52170,0.20735,0.02945,
9.37500,-0.78865,1.86208,-11.29260,-0.29974,0.90902,0.43607,,,0.82705,0.52149,0.20786,0.02889,
9.38281,0.82513,1.21772,-8.29178,-0.35488,0.92600,0.41662,,,0.82702,0.52141,0.20822,0.02845,
9.39063,1.27150,-0.24998,-0.51060,-0.34375,0.90708,0.50120,,,0.82698,0.52148,0.20823,0.02840,
9.39844,3.91534,-0.42897,5.97953,-0.37568,0.85177,0.45503,,,0.82684,0.52178,0.20800,0.02866,
9.40625,6.31884,-1.50291,9.53864,-0.28136,0.91969,0.43169,,,0.82661,0.52228,0.20759,0.02906,
9.41406,6.45619,-2.11147,12.64413,-0.21945,0.92406,0.40107,,,0.82639,0.52282,0.20703,0.02960,
9.42188,6.66220,-2.61264,10.89947,-0.17301,0.92018,0.44530,,,0.82617,0.52336,0.20651,0.03003,
9.42969,6.00982,-3.00641,10.89947,-0.18123,0.86632,0.44287,,,0.82597,0.52386,0.20596,0.03045,
9.43750,8.24164,-3.25700,8.84077,-0.17591,0.93182,0.37142,,,0.82570,0.52445,0.20548,0.03072,
9.44531,7.62360,-2.97061,8.98034,-0.15898,0.91872,0.43169,,,0.82545,0.52501,0.20500,0.03101,
9.45313,7.45192,-2.14726,4.93273,-0.21993,0.83236,0.43072,,,0.82521,0.52550,0.20472,0.03111,
9.46094,9.85542,-2.32625,4.58380,-0.16624,0.94298,0.39135,,,0.82488,0.52613,0.20444,0.03115,
9.46875,8.24164,-2.25466,2.21107,-0.13141,0.88330,0.38746,,,0.82461,0.52663,0.20425,0.03108,
9.47656,7.96696,-1.61030,-1.62718,-0.18027,0.93279,0.42537,,,0.82435,0.52706,0.20424,0.03082,
9.48438,7.82962,-1.50291,-5.04672,-0.23251,0.88379,0.38308,,,0.82410,0.52743,0.20435,0.03037,
9.49219,8.37899,-1.75349,-4.66289,-0.23057,0.92163,0.37774,,,0.82383,0.52784,0.20444,0.02993,
9.50000,5.11709,-1.93248,-5.88415,-0.19284,0.87797,0.41905,,,0.82369,0.52805,0.20455,0.02946,
9.50781,4.94542,-1.82509,-7.90796,-0.21026,0.87991,0.37676,,,0.82355,0.52822,0.20474,0.02888,
9.51563,5.70080,-1.50291,-7.76838,-0.21364,0.94492,0.36364,,,0.82338,0.52843,0.20495,0.02831,
9.52344,2.88527,-1.46711,-8.36157,-0.23879,0.92357,0.38357,,,0.82331,0.52848,0.20517,0.02775,
9.53125,2.06122,-1.64610,-7.59392,-0.27217,0.88670,0.37579,,,0.82328,0.52849,0.20535,0.02724,
9.53906,1.78653,-2.11147,-6.30287,-0.24750,0.85807,0.33253,,,0.82325,0.52851,0.20547,0.02678,
9.54688,1.64919,-2.50524,-2.91823,-0.22041,0.89689,0.33934,,,0.82323,0.52857,0.20543,0.02650,
9.55469,0.51611,-2.11147,-2.77866,-0.25137,0.89543,0.41225,,,0.82325,0.52856,0.20542,0.02627,
9.56250,2.02688,-1.82509,-1.55740,-0.30990,0.83381,0.39767,,,0.82320,0.52865,0.20537,0.02608,
9.57031,3.88101,-2.46944,2.90893,-0.26008,0.94055,0.34760,,,0.82309,0.52892,0.20514,0.02610,
9.57813,2.71360,-2.36205,2.83914,-0.25524,0.89398,0.35538,,,0.82302,0.52911,0.20491,0.02614,
9.58594,1.47751,-2.29046,3.11829,-0.20397,0.86390,0.41857,,,0.82300,0.52924,0.20467,0.02621,
9.59375,3.09129,-1.96828,1.02470,-0.15753,0.92018,0.33399,,,0.82291,0.52944,0.20452,0.02616,
9.60156,2.81660,-1.89668,-0.30124,-0.12174,0.95462,0.34954,,,0.82284,0.52959,0.20443,0.02603,
9.60938,-2.05907,-0.89434,-5.91905,-0.10384,0.75085,0.42197,,,0.82293,0.52940,0.20459,0.02570,
9.61719,2.30157,-0.17839,-9.96665,-0.16285,0.90950,0.35781,,,0.82287,0.52939,0.20494,0.02510,
9.62500,1.75220,0.21539,-10.62962,-0.20252,0.94540,0.37725,,,0.82282,0.52934,0.20534,0.02449,
9.63281,0.51611,0.28698,-13.87469,-0.16866,0.95074,0.43315,,,0.82282,0.52917,0.20586,0.02371,
9.64063,-1.40669,-0.71536,-15.16574,-0.06031,0.81538,0.46912,,,0.82291,0.52888,0.20636,0.02286,
9.64844,2.47325,0.64496,-27.27367,0.00112,0.92454,0.36461,,,0.82285,0.52863,0.20738,0.02132,
9.65625,-1.20068,2.47064,-32.08893,-0.58511,0.93958,0.32961,,,0.82291,0.52811,0.20867,0.01962,
9.66406,-5.49264,1.53990,-25.00562,-0.69684,0.79063,0.41128,,,0.82311,0.52744,0.20966,0.01835,
9.67188,-1.92173,-2.29046,-3.09270,-0.55899,0.85419,0.36218,,,0.82322,0.52729,0.20964,0.01812,
9.67969,-1.54403,-4.00875,10.13182,-0.28813,1.01333,0.35440,,,0.82332,0.52735,0.20905,0.01857,
9.68750,-4.11921,-3.72237,9.67821,-0.25669,1.05263,0.37871,,,0.82351,0.52726,0.20848,0.01904,
9.69531,-6.79740,-4.68890,8.38716,-0.24992,0.97888,0.40156,,,0.82381,0.52701,0.20791,0.01944,
9.70313,-5.59565,-6.58619,7.58462,-0.19042,1.10891,0.38989,,,0.82409,0.52681,0.20726,0.01971,
9.71094,-8.06782,-7.23054,5.17699,-0.17737,1.10066,0.35635,,,0.82448,0.52644,0.20665,0.01985,
9.71875,-10.36831,-6.55039,-1.52250,-0.12513,1.05020,0.38746,,,0.82494,0.52585,0.20632,0.01968,
9.72656,-10.12796,-5.97762,-5.25607,-0.15850,1.19139,0.36267,,,0.82539,0.52521,0.20616,0.01931,
9.73438,-18.47154,-5.15428,-14.36320,-0.26298,1.40050,0.48371,,,0.82615,0.52398,0.20636,0.01858,
9.74219,-32.06848,-7.12315,-26.19198,-0.47677,1.78767,0.51968,,,0.82742,0.52181,0.20685,0.01730,
9.75000,-44.42933,-9.48580,-30.34427,-0.56190,1.80950,0.54738,,,0.82916,0.51889,0.20734,0.01588,
9.75781,-65.58013,-19.72396,-31.91447,-0.41340,1.70082,0.42926,,,0.83179,0.51475,0.20728,0.01431,
9.76563,-85.52918,-23.23214,-27.16899,-0.52417,2.06956,0.64801,,,0.83512,0.50953,0.20683,0.01316,
9.77344,-102.45668,-27.06250,-30.97235,-0.41050,1.73818,0.56002,,,0.83907,0.50327,0.20626,0.01190,
9.78125,-117.63306,-27.67106,-29.50684,-0.64412,2.14233,0.45454,,,0.84348,0.49613,0.20559,0.01092,
9.78906,-145.96002,-36.51310,-25.73837,-0.55222,2.16126,0.44385,,,0.84890,0.48739,0.20424,0.01025,
9.79688,-155.29934,-37.44384,-23.78435,-0.57157,2.28304,0.44919,,,0.85455,0.47807,0.20274,0.00980,
