Gait Up - Physilog data export
Created on: YYYY-MM-DD hh:mm:ss
Total data points: 22091

Time [128 hz],Gyro [128 hz],,,Accel [128 hz],,,Baro [1 hz],,Event [128 hz],Quaternion [128 hz],,,,
Time,Gyro X,Gyro Y,Gyro Z,Accel X,Accel Y,Accel Z,Pressure,Temperature,Quat W,Quat X,Quat Y,Quat Z,
[s],[deg/s],[deg/s],[deg/s],[g],[g],[g],[mBar],[degree C],[],[],[],[],
0.00781,-0.27834,-0.51451,-0.01574,-0.12655,0.97477,0.16718,1022.085,26.4,0.76210,0.64107,0.09070,-0.00109,
0.01563,0.03176,-0.44383,0.01911,-0.13911,0.96416,0.16718,,,0.76210,0.64107,0.09068,-0.00111,
0.02344,-0.07161,-0.51451,-0.15514,-0.12848,0.96705,0.17305,,,0.76211,0.64107,0.09066,-0.00114,
0.03125,0.13513,-0.83254,0.08881,-0.12896,0.97043,0.16620,,,0.76211,0.64108,0.09061,-0.00117,
0.03906,0.27295,-0.65586,-0.15514,-0.13814,0.96512,0.16718,,,0.76210,0.64109,0.09058,-0.00121,
0.04688,0.16958,-1.15058,0.08881,-0.12945,0.97043,0.17158,,,0.76210,0.64110,0.09052,-0.00126,
0.05469,0.27295,-0.76187,0.12366,-0.12800,0.96995,0.16424,,,0.76209,0.64111,0.09047,-0.00128,
0.06250,0.30741,0.05090,0.22820,-0.13428,0.97139,0.17011,,,0.76208,0.64113,0.09047,-0.00127,
0.07031,0.23849,-0.65586,0.05396,-0.14056,0.96850,0.17011,,,0.76207,0.64114,0.09043,-0.00130,
0.07813,0.20404,-0.79721,0.01911,-0.13476,0.97091,0.17060,,,0.76207,0.64115,0.09039,-0.00133,
0.08594,0.30741,-0.83254,0.05396,-0.13186,0.97381,0.16816,,,0.76206,0.64117,0.09034,-0.00137,
0.09375,0.27295,-0.33782,-0.05059,-0.12993,0.96753,0.17207,,,0.76205,0.64118,0.09033,-0.00139,
0.10156,0.34186,-0.58518,0.01911,-0.12655,0.97670,0.16375,,,0.76204,0.64120,0.09029,-0.00142,
0.10938,0.34186,-0.26714,0.08881,-0.12655,0.97381,0.17207,,,0.76203,0.64122,0.09028,-0.00142,
0.11719,0.30741,-0.23180,-0.05059,-0.13428,0.97718,0.16767,,,0.76201,0.64124,0.09027,-0.00144,
0.12500,0.27295,0.12157,-0.05059,-0.12800,0.96512,0.16277,,,0.76200,0.64125,0.09028,-0.00144,
0.13281,0.20404,-0.30248,-0.05059,-0.13089,0.96705,0.16326,,,0.76199,0.64126,0.09026,-0.00146,
0.14063,0.44523,-0.44383,-0.12029,-0.13138,0.96995,0.17550,,,0.76198,0.64128,0.09024,-0.00148,
0.14844,0.41077,-0.33782,0.01911,-0.12945,0.97091,0.17109,,,0.76196,0.64130,0.09023,-0.00150,
0.15625,0.27295,-0.62052,0.05396,-0.13089,0.97139,0.16914,,,0.76195,0.64132,0.09019,-0.00153,
0.16406,0.41077,-0.79721,0.22820,-0.13089,0.96995,0.16620,,,0.76194,0.64134,0.09014,-0.00155,
0.17188,0.34186,-0.37315,0.01911,-0.12171,0.97477,0.17109,,,0.76193,0.64136,0.09012,-0.00157,
0.17969,0.03176,-0.26714,0.15850,-0.12993,0.96995,0.15299,,,0.76193,0.64136,0.09010,-0.00157,
0.18750,0.37632,0.26292,-0.08544,-0.12703,0.97767,0.18528,,,0.76191,0.64138,0.09012,-0.00157,
0.19531,0.10067,-0.44383,-0.05059,-0.12703,0.97429,0.17109,,,0.76191,0.64139,0.09009,-0.00159,
0.20313,0.03176,-0.01978,-0.22484,-0.12945,0.97429,0.17158,,,0.76191,0.64139,0.09010,-0.00160,
0.21094,-0.07161,-0.01978,-0.32939,-0.13138,0.97574,0.16620,,,0.76191,0.64138,0.09012,-0.00162,
0.21875,-0.07161,0.43961,-0.08544,-0.13621,0.97236,0.17745,,,0.76191,0.64138,0.09014,-0.00161,
0.22656,0.10067,-0.23180,-0.29454,-0.13621,0.96995,0.16816,,,0.76191,0.64138,0.09014,-0.00163,
0.23438,0.03176,-0.37315,-0.32939,-0.12848,0.97429,0.16131,,,0.76191,0.64138,0.09014,-0.00167,
0.24219,-0.00270,-0.83254,-0.25969,-0.11930,0.97139,0.16180,,,0.76191,0.64138,0.09011,-0.00172,
0.25000,-0.07161,0.12157,-0.53848,-0.13041,0.97284,0.16718,,,0.76192,0.64137,0.09014,-0.00174,
0.25781,-0.27834,-0.33782,-0.60818,-0.12316,0.97381,0.16962,,,0.76193,0.64135,0.09015,-0.00178,
0.26563,-0.07161,-0.12579,-0.67788,-0.13476,0.96946,0.17109,,,0.76193,0.64134,0.09017,-0.00182,
0.27344,-0.24389,-0.40849,-0.46878,-0.12703,0.97381,0.17403,,,0.76195,0.64133,0.09017,-0.00186,
0.28125,0.03176,-0.23180,-0.46878,-0.12993,0.97188,0.16816,,,0.76195,0.64133,0.09018,-0.00190,
0.28906,-0.17498,-0.09045,-0.67788,-0.13234,0.96657,0.16375,,,0.76196,0.64131,0.09020,-0.00194,
0.29688,-0.14052,-0.16113,-0.71273,-0.12800,0.96609,0.17354,,,0.76196,0.64130,0.09023,-0.00198,
0.30469,0.03176,-0.26714,-0.64303,-0.12413,0.97091,0.17305,,,0.76196,0.64130,0.09024,-0.00202,
0.31250,-0.17498,0.12157,-0.81728,-0.12848,0.96995,0.17354,,,0.76197,0.64129,0.09028,-0.00206,
0.32031,-0.10607,0.05090,-0.78243,-0.13524,0.97188,0.16816,,,0.76197,0.64128,0.09032,-0.00210,
0.32813,0.16958,-0.26714,-0.88698,-0.12655,0.97525,0.17109,,,0.76197,0.64128,0.09034,-0.00216,
0.33594,0.06621,-0.01978,-0.85213,-0.12075,0.97912,0.16865,,,0.76197,0.64128,0.09038,-0.00220,
0.34375,-0.00270,0.36894,-0.95667,-0.12558,0.97815,0.16082,,,0.76196,0.64127,0.09044,-0.00224,
0.35156,-0.03715,0.40427,-1.02637,-0.12703,0.97332,0.16277,,,0.76196,0.64126,0.09051,-0.00227,
0.35938,0.13513,0.96967,-1.02637,-0.12993,0.96898,0.17598,,,0.76195,0.64126,0.09060,-0.00228,
0.36719,-0.27834,0.51029,-0.92183,-0.12558,0.97043,0.16326,,,0.76196,0.64124,0.09067,-0.00231,
0.37500,-0.14052,0.05090,-0.78243,-0.12848,0.97332,0.17403,,,0.76196,0.64123,0.09071,-0.00234,
0.38281,-0.31280,0.26292,-0.71273,-0.12606,0.96850,0.16718,,,0.76198,0.64121,0.09075,-0.00237,
0.39063,-0.03715,0.40427,-0.71273,-0.12510,0.97429,0.17060,,,0.76198,0.64120,0.09080,-0.00239,
0.39844,-0.24389,0.54562,-0.53848,-0.13476,0.96802,0.16816,,,0.76198,0.64119,0.09085,-0.00239,
0.40625,-0.31280,0.61630,-0.36424,-0.13428,0.96705,0.17501,,,0.76199,0.64117,0.09090,-0.00238,
0.41406,-0.07161,0.40427,-0.36424,-0.13524,0.97091,0.16816,,,0.76199,0.64116,0.09094,-0.00238,
0.42188,-0.24389,1.07569,-0.25969,-0.12993,0.96898,0.16522,,,0.76200,0.64115,0.09101,-0.00235,
0.42969,-0.34726,0.89900,-0.25969,-0.12655,0.96753,0.16865,,,0.76201,0.64113,0.09106,-0.00232,
0.43750,-0.45062,1.21704,-0.01574,-0.12606,0.97477,0.16375,,,0.76202,0.64111,0.09113,-0.00226,
0.44531,-0.65736,1.14636,-0.05059,-0.14249,0.97574,0.16914,,,0.76204,0.64107,0.09119,-0.00221,
0.45313,-0.51954,0.22758,0.08881,-0.13669,0.97863,0.17158,,,0.76206,0.64105,0.09120,-0.00219,
0.46094,-0.51954,-0.37315,0.29790,-0.13138,0.96705,0.16326,,,0.76209,0.64102,0.09117,-0.00219,
0.46875,-0.38171,-0.30248,0.26305,-0.13138,0.96898,0.16914,,,0.76211,0.64100,0.09114,-0.00219,
0.47656,-0.31280,-0.33782,0.33275,-0.13283,0.97236,0.17354,,,0.76212,0.64099,0.09111,-0.00218,
0.48438,-0.38171,-0.37315,0.40245,-0.12558,0.97381,0.16865,,,0.76214,0.64097,0.09107,-0.00218,
0.49219,-0.24389,-0.16113,0.47215,-0.12268,0.96753,0.16718,,,0.76215,0.64096,0.09104,-0.00216,
0.50000,-0.31280,-0.09045,0.61155,-0.12171,0.97574,0.17598,,,0.76217,0.64095,0.09101,-0.00213,
0.50781,-0.38171,0.22758,0.47215,-0.13186,0.96946,0.16767,,,0.76218,0.64093,0.09100,-0.00209,
0.51563,-0.31280,-0.16113,0.47215,-0.12558,0.97043,0.17207,,,0.76220,0.64092,0.09097,-0.00207,
0.52344,-0.45062,0.19225,0.47215,-0.12655,0.96705,0.17158,,,0.76221,0.64090,0.09096,-0.00204,
0.53125,-0.45062,0.65164,0.33275,-0.12606,0.96946,0.17403,,,0.76223,0.64088,0.09098,-0.00199,
0.53906,-0.69182,0.54562,0.36760,-0.12751,0.97091,0.16375,,,0.76226,0.64084,0.09099,-0.00194,
0.54688,-0.45062,0.72231,0.22820,-0.12220,0.97960,0.17696,,,0.76227,0.64082,0.09102,-0.00189,
0.55469,-0.65736,0.72231,0.26305,-0.12945,0.97477,0.17305,,,0.76230,0.64079,0.09105,-0.00184,
0.56250,-0.72627,0.54562,0.05396,-0.13428,0.96995,0.17647,,,0.76232,0.64075,0.09107,-0.00181,
0.57031,-0.79518,-0.30248,0.22820,-0.12993,0.96995,0.16962,,,0.76236,0.64071,0.09105,-0.00181,
0.57813,-0.72627,0.01556,0.19335,-0.13766,0.96705,0.16718,,,0.76239,0.64068,0.09104,-0.00179,
0.58594,-0.96746,-0.62052,0.12366,-0.12703,0.97091,0.17354,,,0.76244,0.64063,0.09100,-0.00181,
0.59375,-1.07083,-0.83254,0.08881,-0.12413,0.96753,0.17158,,,0.76249,0.64057,0.09096,-0.00183,
0.60156,-1.10529,-0.44383,0.01911,-0.11688,0.96850,0.16767,,,0.76254,0.64051,0.09093,-0.00185,
0.60938,-1.41539,0.19225,-0.01574,-0.12268,0.97284,0.17501,,,0.76260,0.64044,0.09094,-0.00183,
0.61719,-1.55321,0.08623,-0.18999,-0.11930,0.97622,0.16669,,,0.76267,0.64036,0.09096,-0.00183,
0.62500,-1.86332,1.04035,-0.05059,-0.12800,0.96609,0.16620,,,0.76275,0.64026,0.09101,-0.00177,
0.63281,-1.62212,1.18170,-0.15514,-0.14008,0.96609,0.16816,,,0.76281,0.64018,0.09108,-0.00172,
0.64063,-1.51876,1.07569,-0.01574,-0.14588,0.97477,0.17598,,,0.76287,0.64010,0.09114,-0.00166,
0.64844,-1.31202,-0.83254,0.33275,-0.12896,0.97525,0.16522,,,0.76293,0.64003,0.09108,-0.00167,
0.65625,-1.31202,-1.15058,0.12366,-0.12413,0.97284,0.17647,,,0.76300,0.63996,0.09101,-0.00171,
0.66406,-1.44984,-0.01978,-0.12029,-0.12268,0.97574,0.17843,,,0.76306,0.63989,0.09102,-0.00171,
0.67188,-1.69104,0.01556,-0.29454,-0.12848,0.97188,0.17501,,,0.76313,0.63980,0.09103,-0.00171,
0.67969,-1.69104,0.12157,-0.36424,-0.12220,0.96222,0.16424,,,0.76321,0.63971,0.09105,-0.00171,
0.68750,-1.44984,0.58096,-0.57333,-0.12461,0.96995,0.16865,,,0.76326,0.63963,0.09111,-0.00171,
0.69531,-1.48430,1.21704,-0.74758,-0.13428,0.97091,0.16865,,,0.76332,0.63955,0.09121,-0.00169,
0.70313,-1.41539,0.75765,-0.92183,-0.12510,0.97236,0.16816,,,0.76338,0.63947,0.09129,-0.00169,
0.71094,-1.38093,0.40427,-0.85213,-0.12316,0.97718,0.17403,,,0.76344,0.63939,0.09134,-0.00171,
0.71875,-1.79440,0.86366,-1.16577,-0.12413,0.96850,0.16718,,,0.76351,0.63929,0.09144,-0.00172,
0.72656,-1.69104,1.28771,-1.23547,-0.12220,0.97381,0.16865,,,0.76357,0.63919,0.09156,-0.00172,
0.73438,-1.69104,1.95913,-1.40972,-0.12751,0.96753,0.17354,,,0.76364,0.63910,0.09173,-0.00170,
0.74219,-1.72549,1.85312,-1.44457,-0.12220,0.97284,0.17452,,,0.76370,0.63900,0.09188,-0.00168,
0.75000,-1.69104,1.74710,-1.47942,-0.12558,0.96560,0.17011,,,0.76376,0.63890,0.09204,-0.00167,
0.75781,-1.72549,2.73656,-1.61881,-0.13379,0.97284,0.18088,,,0.76382,0.63880,0.09225,-0.00163,
0.76563,-1.69104,2.10048,-1.65366,-0.12606,0.96995,0.17501,,,0.76388,0.63870,0.09244,-0.00161,
0.77344,-1.58767,2.41852,-1.72336,-0.13041,0.96946,0.17990,,,0.76393,0.63861,0.09264,-0.00158,
0.78125,-1.55321,2.84257,-1.61881,-0.13234,0.97139,0.18479,,,0.76398,0.63852,0.09286,-0.00154,
0.78906,-1.24311,1.71177,-1.34002,-0.13428,0.96560,0.17354,,,0.76403,0.63845,0.09300,-0.00152,
0.79688,-1.10529,1.99447,-1.40972,-0.12461,0.97043,0.19262,,,0.76406,0.63838,0.09317,-0.00150,
0.80469,-0.86409,2.06514,-1.54911,-0.13959,0.96560,0.18381,,,0.76409,0.63832,0.09334,-0.00149,
0.81250,-0.62290,1.00501,-1.34002,-0.12800,0.96802,0.18430,,,0.76411,0.63828,0.09345,-0.00151,
0.82031,-0.48508,1.49974,-1.13092,-0.12558,0.96705,0.17550,,,0.76412,0.63825,0.09358,-0.00150,
0.82813,-0.41617,1.67643,-1.09607,-0.14346,0.96319,0.17011,,,0.76412,0.63822,0.09372,-0.00148,
0.83594,-0.38171,1.64109,-1.13092,-0.15264,0.96319,0.18528,,,0.76413,0.63820,0.09385,-0.00147,
0.84375,0.16958,-0.37315,-0.95667,-0.13476,0.96367,0.18137,,,0.76413,0.63820,0.09387,-0.00153,
0.85156,0.37632,-0.01978,-0.81728,-0.13718,0.97091,0.18430,,,0.76411,0.63821,0.09391,-0.00158,
0.85938,0.23849,0.05090,-0.71273,-0.13089,0.96995,0.17843,,,0.76410,0.63822,0.09394,-0.00162,
0.86719,0.47969,-0.44383,-0.64303,-0.12703,0.96609,0.17990,,,0.76408,0.63824,0.09395,-0.00167,
0.87500,0.51414,-0.19647,-0.67788,-0.13041,0.97284,0.17843,,,0.76406,0.63826,0.09397,-0.00172,
0.88281,0.54860,-0.05512,-0.53848,-0.12945,0.96946,0.18430,,,0.76404,0.63829,0.09399,-0.00175,
0.89063,0.78979,-0.40849,-0.53848,-0.13234,0.97332,0.17011,,,0.76400,0.63833,0.09399,-0.00180,
0.89844,0.85870,-1.18592,-0.36424,-0.13138,0.96946,0.17501,,,0.76397,0.63837,0.09394,-0.00188,
0.90625,0.92761,-1.29193,-0.15514,-0.12800,0.97332,0.17354,,,0.76394,0.63842,0.09388,-0.00195,
0.91406,0.78979,-1.22126,-0.29454,-0.12993,0.97622,0.18186,,,0.76392,0.63846,0.09383,-0.00202,
0.92188,1.03098,-1.68065,-0.18999,-0.12703,0.96995,0.17598,,,0.76388,0.63851,0.09375,-0.00211,
0.92969,1.06544,-1.25660,-0.18999,-0.12220,0.97429,0.17501,,,0.76384,0.63856,0.09369,-0.00218,
0.93750,0.89316,-1.11525,-0.22484,-0.12655,0.97043,0.16326,,,0.76381,0.63861,0.09365,-0.00225,
0.94531,0.82424,-0.72653,-0.50363,-0.13476,0.97332,0.17843,,,0.76378,0.63865,0.09363,-0.00231,
0.95313,0.82424,-0.86788,-0.36424,-0.12268,0.97188,0.17354,,,0.76375,0.63869,0.09360,-0.00238,
0.96094,0.72088,-0.79721,-0.43393,-0.13331,0.97525,0.17501,,,0.76372,0.63872,0.09358,-0.00244,
0.96875,0.51414,-0.65586,-0.25969,-0.12316,0.97332,0.17011,,,0.76370,0.63875,0.09355,-0.00248,
0.97656,0.47969,-0.86788,0.05396,-0.13186,0.97863,0.16816,,,0.76369,0.63877,0.09351,-0.00252,
0.98438,0.41077,-0.09045,-0.22484,-0.12800,0.97284,0.16669,,,0.76367,0.63879,0.09351,-0.00254,
0.99219,0.34186,-0.19647,0.05396,-0.13524,0.96705,0.17011,,,0.76366,0.63881,0.09350,-0.00255,
1.00000,0.37632,-0.58518,0.01911,-0.12848,0.97236,0.17011,,,0.76365,0.63883,0.09347,-0.00257,
1.00781,0.44523,-0.26714,0.08881,-0.13138,0.97429,0.16767,1022.102,26.4,0.76363,0.63885,0.09345,-0.00258,
1.01563,0.47969,-0.37315,0.12366,-0.13089,0.97912,0.17745,,,0.76361,0.63888,0.09342,-0.00260,
1.02344,0.30741,-0.51451,0.12366,-0.12606,0.97574,0.16962,,,0.76360,0.63890,0.09339,-0.00262,
1.03125,0.23849,-0.44383,-0.01574,-0.12993,0.96898,0.17696,,,0.76359,0.63891,0.09337,-0.00264,
1.03906,-0.03715,-0.44383,0.01911,-0.12751,0.96946,0.17256,,,0.76360,0.63891,0.09335,-0.00265,
1.04688,-0.00270,-0.16113,0.08881,-0.13573,0.97574,0.17452,,,0.76360,0.63891,0.09333,-0.00266,
1.05469,-0.17498,-0.47917,0.15850,-0.12558,0.96609,0.16718,,,0.76361,0.63890,0.09330,-0.00267,
1.06250,-0.20943,-0.47917,0.15850,-0.12171,0.97139,0.17305,,,0.76362,0.63889,0.09327,-0.00268,
1.07031,-0.41617,0.19225,0.26305,-0.13476,0.96946,0.17452,,,0.76364,0.63887,0.09327,-0.00266,
1.07813,-0.58845,-0.05512,0.29790,-0.12703,0.96946,0.17403,,,0.76366,0.63884,0.09325,-0.00264,
1.08594,-0.65736,-0.05512,0.29790,-0.12896,0.96802,0.17598,,,0.76369,0.63881,0.09324,-0.00262,
1.09375,-0.45062,-0.51451,0.47215,-0.12703,0.96946,0.17843,,,0.76372,0.63879,0.09319,-0.00262,
1.10156,-0.72627,-0.47917,0.22820,-0.13863,0.97718,0.18626,,,0.76375,0.63875,0.09316,-0.00262,
1.10938,-0.62290,-0.83254,0.36760,-0.12316,0.97284,0.17256,,,0.76378,0.63872,0.09310,-0.00263,
1.11719,-0.45062,-0.76187,0.29790,-0.12123,0.97043,0.17794,,,0.76381,0.63870,0.09304,-0.00265,
1.12500,-0.58845,-0.51451,0.36760,-0.13428,0.96946,0.17843,,,0.76384,0.63867,0.09300,-0.00265,
1.13281,-0.55399,-0.90322,0.40245,-0.12461,0.97284,0.17843,,,0.76387,0.63864,0.09294,-0.00266,
1.14063,-0.48508,-0.83254,0.36760,-0.12316,0.96802,0.17598,,,0.76389,0.63862,0.09288,-0.00268,
1.14844,-0.31280,-0.58518,0.36760,-0.12703,0.97139,0.17990,,,0.76391,0.63861,0.09283,-0.00268,
1.15625,-0.41617,-0.65586,0.33275,-0.12751,0.97139,0.17696,,,0.76393,0.63859,0.09278,-0.00269,
1.16406,-0.24389,-0.01978,0.43730,-0.12703,0.96946,0.17892,,,0.76394,0.63858,0.09276,-0.00267,
1.17188,-0.20943,0.08623,0.40245,-0.12365,0.96657,0.18822,,,0.76395,0.63857,0.09275,-0.00264,
1.17969,-0.00270,-0.69119,0.43730,-0.12896,0.96898,0.17794,,,0.76396,0.63857,0.09269,-0.00265,
1.18750,-0.03715,-0.69119,0.50700,-0.12365,0.96416,0.17354,,,0.76396,0.63857,0.09264,-0.00265,
1.19531,-0.03715,-1.04457,0.47215,-0.12075,0.96609,0.18137,,,0.76397,0.63857,0.09256,-0.00267,
1.20313,0.13513,-0.62052,0.47215,-0.11978,0.97139,0.17501,,,0.76397,0.63858,0.09251,-0.00267,
1.21094,0.20404,-0.86788,0.54185,-0.12655,0.97429,0.18039,,,0.76397,0.63860,0.09244,-0.00269,
1.21875,0.20404,-0.69119,0.47215,-0.12461,0.97284,0.17892,,,0.76396,0.63861,0.09238,-0.00269,
1.22656,0.23849,-0.58518,0.26305,-0.12558,0.96995,0.18088,,,0.76395,0.63862,0.09234,-0.00271,
1.23438,0.16958,-0.16113,0.01911,-0.13041,0.97091,0.17403,,,0.76395,0.63863,0.09233,-0.00271,
1.24219,0.16958,0.05090,-0.08544,-0.13041,0.97429,0.17647,,,0.76394,0.63864,0.09234,-0.00272,
1.25000,-0.03715,-0.69119,0.01911,-0.12461,0.97381,0.17794,,,0.76395,0.63864,0.09230,-0.00275,
1.25781,0.20404,-0.47917,0.05396,-0.13138,0.96946,0.17647,,,0.76394,0.63865,0.09227,-0.00276,
1.26563,0.20404,-0.72653,-0.15514,-0.12751,0.96946,0.17696,,,0.76394,0.63866,0.09224,-0.00281,
1.27344,0.27295,-1.32727,-0.08544,-0.12751,0.97043,0.18088,,,0.76393,0.63867,0.09218,-0.00287,
1.28125,0.27295,-0.83254,-0.29454,-0.11108,0.97139,0.17501,,,0.76393,0.63869,0.09215,-0.00292,
1.28906,0.06621,-0.26714,-0.32939,-0.12606,0.96609,0.17011,,,0.76392,0.63869,0.09215,-0.00295,
1.29688,0.30741,-0.26714,-0.29454,-0.13138,0.97429,0.17060,,,0.76391,0.63870,0.09215,-0.00298,
1.30469,0.20404,-0.76187,-0.18999,-0.12123,0.96609,0.16962,,,0.76391,0.63871,0.09211,-0.00303,
1.31250,0.27295,-0.79721,-0.25969,-0.12461,0.96995,0.18283,,,0.76390,0.63872,0.09208,-0.00308,
1.32031,0.06621,-0.47917,-0.43393,-0.12800,0.97574,0.18235,,,0.76390,0.63872,0.09208,-0.00312,
1.32813,0.37632,-0.93856,-0.29454,-0.11785,0.97574,0.17550,,,0.76389,0.63874,0.09204,-0.00318,
1.33594,0.23849,-0.47917,-0.46878,-0.11688,0.96995,0.17305,,,0.76388,0.63875,0.09204,-0.00322,
1.34375,0.16958,-0.12579,-0.53848,-0.13138,0.97332,0.17892,,,0.76388,0.63876,0.09205,-0.00326,
1.35156,-0.00270,0.01556,-0.60818,-0.13186,0.97139,0.17941,,,0.76388,0.63875,0.09208,-0.00329,
1.35938,0.03176,-0.26714,-0.64303,-0.12655,0.97912,0.17256,,,0.76388,0.63875,0.09210,-0.00334,
1.36719,0.13513,-0.01978,-0.67788,-0.12606,0.97284,0.18528,,,0.76387,0.63875,0.09212,-0.00337,
1.37500,0.06621,-0.05512,-0.85213,-0.12945,0.97622,0.17696,,,0.76387,0.63875,0.09216,-0.00342,
1.38281,0.20404,-0.40849,-0.67788,-0.12123,0.97139,0.17256,,,0.76386,0.63876,0.09217,-0.00347,
1.39063,-0.07161,0.12157,-0.74758,-0.12848,0.97043,0.17647,,,0.76386,0.63875,0.09220,-0.00351,
1.39844,-0.10607,0.22758,-0.67788,-0.13283,0.96946,0.17354,,,0.76387,0.63874,0.09225,-0.00353,
1.40625,-0.03715,-0.30248,-0.57333,-0.12558,0.96705,0.16718,,,0.76387,0.63873,0.09226,-0.00357,
1.41406,-0.07161,-0.12579,-0.50363,-0.12703,0.97091,0.16962,,,0.76387,0.63873,0.09227,-0.00361,
1.42188,-0.07161,-0.19647,-0.46878,-0.12510,0.96753,0.17354,,,0.76388,0.63872,0.09228,-0.00364,
1.42969,-0.17498,0.01556,-0.57333,-0.12413,0.97429,0.17403,,,0.76389,0.63871,0.09231,-0.00367,
1.43750,-0.00270,0.08623,-0.29454,-0.12123,0.97622,0.17647,,,0.76388,0.63870,0.09232,-0.00368,
1.44531,-0.07161,0.05090,-0.18999,-0.12316,0.96657,0.17109,,,0.76389,0.63870,0.09234,-0.00369,
1.45313,0.03176,0.12157,-0.18999,-0.12896,0.97525,0.17207,,,0.76389,0.63870,0.09235,-0.00369,
1.46094,-0.07161,0.05090,-0.29454,-0.12510,0.97043,0.18283,,,0.76389,0.63869,0.09237,-0.00370,
1.46875,-0.20943,0.19225,-0.36424,-0.12606,0.96995,0.18137,,,0.76390,0.63868,0.09239,-0.00371,
1.47656,0.03176,0.54562,-0.36424,-0.13186,0.97477,0.17109,,,0.76389,0.63868,0.09244,-0.00371,
1.48438,-0.03715,0.19225,-0.46878,-0.11881,0.97381,0.17403,,,0.76389,0.63868,0.09247,-0.00372,
1.49219,0.06621,0.01556,-0.46878,-0.11785,0.97091,0.17647,,,0.76389,0.63868,0.09249,-0.00375,
1.50000,0.13513,0.68697,-0.57333,-0.12075,0.97284,0.17843,,,0.76388,0.63868,0.09255,-0.00375,
1.50781,-0.17498,0.61630,-0.64303,-0.12848,0.97043,0.17892,,,0.76388,0.63867,0.09261,-0.00375,
1.51563,-0.14052,0.79299,-0.60818,-0.12220,0.96512,0.16962,,,0.76388,0.63866,0.09268,-0.00375,
1.52344,0.03176,0.93434,-0.53848,-0.12268,0.96512,0.16669,,,0.76388,0.63865,0.09275,-0.00374,
1.53125,-0.03715,1.35839,-0.71273,-0.12848,0.97139,0.17843,,,0.76387,0.63865,0.09285,-0.00371,
1.53906,-0.00270,1.04035,-0.57333,-0.12171,0.96946,0.17598,,,0.76386,0.63864,0.09293,-0.00370,
1.54688,-0.14052,1.25238,-0.67788,-0.12800,0.96705,0.18479,,,0.76386,0.63863,0.09302,-0.00368,
1.55469,-0.07161,1.53508,-0.50363,-0.12655,0.96898,0.18430,,,0.76385,0.63863,0.09313,-0.00364,
1.56250,0.06621,1.07569,-0.60818,-0.12800,0.97139,0.17501,,,0.76384,0.63863,0.09321,-0.00362,
1.57031,-0.07161,0.93434,-0.50363,-0.12026,0.97863,0.18235,,,0.76384,0.63862,0.09328,-0.00361,
1.57813,-0.17498,0.79299,-0.36424,-0.12413,0.97525,0.17305,,,0.76384,0.63861,0.09334,-0.00359,
1.58594,0.06621,1.04035,-0.57333,-0.13669,0.97091,0.17892,,,0.76383,0.63861,0.09341,-0.00358,
1.59375,-0.03715,0.58096,-0.46878,-0.12945,0.97381,0.17550,,,0.76383,0.63860,0.09347,-0.00358,
1.60156,-0.24389,0.68697,-0.39909,-0.12461,0.97091,0.18039,,,0.76384,0.63859,0.09352,-0.00357,
1.60938,-0.20943,0.65164,-0.36424,-0.12993,0.96898,0.17843,,,0.76384,0.63858,0.09357,-0.00355,
1.61719,-0.17498,0.19225,-0.43393,-0.12413,0.96946,0.17745,,,0.76385,0.63856,0.09360,-0.00357,
1.62500,0.06621,-0.12579,-0.12029,-0.12510,0.97332,0.17403,,,0.76385,0.63857,0.09360,-0.00358,
1.63281,-0.03715,0.08623,-0.25969,-0.12510,0.97381,0.17501,,,0.76385,0.63856,0.09361,-0.00359,
1.64063,-0.10607,0.22758,-0.15514,-0.13089,0.97622,0.18235,,,0.76385,0.63856,0.09363,-0.00359,
1.64844,-0.10607,-0.01978,-0.25969,-0.12413,0.97284,0.17647,,,0.76385,0.63855,0.09364,-0.00360,
1.65625,0.06621,0.12157,-0.12029,-0.12655,0.97139,0.17501,,,0.76385,0.63855,0.09365,-0.00360,
1.66406,-0.10607,0.26292,-0.29454,-0.12703,0.97284,0.17794,,,0.76385,0.63854,0.09368,-0.00360,
1.67188,-0.03715,-0.01978,-0.18999,-0.12655,0.96271,0.17501,,,0.76386,0.63854,0.09369,-0.00362,
1.67969,0.23849,0.15691,-0.22484,-0.12220,0.97477,0.17452,,,0.76384,0.63855,0.09370,-0.00362,
1.68750,0.10067,0.36894,-0.25969,-0.12026,0.97188,0.17403,,,0.76384,0.63856,0.09373,-0.00362,
1.69531,0.20404,0.40427,-0.25969,-0.11881,0.97236,0.17207,,,0.76383,0.63857,0.09377,-0.00362,
1.70313,-0.14052,0.68697,-0.43393,-0.12606,0.97574,0.17843,,,0.76383,0.63856,0.09382,-0.00361,
1.71094,0.06621,0.36894,-0.53848,-0.11930,0.96705,0.17550,,,0.76382,0.63856,0.09386,-0.00362,
1.71875,0.03176,0.36894,-0.50363,-0.13041,0.97622,0.17745,,,0.76382,0.63855,0.09391,-0.00363,
1.72656,-0.00270,0.12157,-0.46878,-0.12413,0.96802,0.17403,,,0.76382,0.63855,0.09393,-0.00365,
1.73438,-0.03715,-0.01978,-0.60818,-0.12751,0.97188,0.17354,,,0.76382,0.63855,0.09396,-0.00368,
1.74219,-0.07161,-0.16113,-0.39909,-0.12365,0.96657,0.17403,,,0.76382,0.63854,0.09397,-0.00371,
1.75000,-0.10607,0.08623,-0.43393,-0.12558,0.96898,0.17256,,,0.76383,0.63853,0.09399,-0.00373,
1.75781,-0.07161,0.22758,-0.39909,-0.13138,0.97477,0.17892,,,0.76383,0.63852,0.09402,-0.00374,
1.76563,-0.27834,0.01556,-0.43393,-0.12510,0.97381,0.17598,,,0.76384,0.63851,0.09404,-0.00376,
1.77344,-0.34726,0.47495,-0.50363,-0.13138,0.97091,0.17011,,,0.76385,0.63849,0.09409,-0.00376,
1.78125,-0.31280,0.19225,-0.53848,-0.13331,0.97477,0.18186,,,0.76386,0.63847,0.09412,-0.00378,
1.78906,-0.34726,-0.26714,-0.53848,-0.12026,0.97043,0.17892,,,0.76388,0.63844,0.09413,-0.00382,
1.79688,-0.14052,0.47495,-0.53848,-0.12655,0.97332,0.17647,,,0.76388,0.63843,0.09418,-0.00382,
1.80469,-0.20943,0.58096,-0.71273,-0.12510,0.96657,0.17060,,,0.76389,0.63842,0.09424,-0.00383,
1.81250,-0.10607,0.54562,-0.78243,-0.11785,0.97091,0.17501,,,0.76389,0.63841,0.09430,-0.00385,
1.82031,-0.34726,0.61630,-0.99152,-0.11688,0.97139,0.17452,,,0.76390,0.63838,0.09438,-0.00387,
1.82813,-0.27834,0.89900,-1.06122,-0.12123,0.96802,0.17598,,,0.76391,0.63836,0.09447,-0.00389,
1.83594,-0.24389,0.79299,-1.23547,-0.12075,0.97284,0.17354,,,0.76391,0.63834,0.09456,-0.00392,
1.84375,-0.31280,1.35839,-1.34002,-0.12026,0.96850,0.17305,,,0.76392,0.63832,0.09469,-0.00392,
1.85156,-0.27834,1.11103,-1.34002,-0.12026,0.96898,0.17941,,,0.76392,0.63829,0.09481,-0.00394,
1.85938,-0.17498,1.32305,-1.44457,-0.12800,0.97188,0.18137,,,0.76392,0.63828,0.09494,-0.00396,
1.86719,-0.45062,1.46440,-1.54911,-0.12268,0.96946,0.17647,,,0.76393,0.63824,0.09509,-0.00397,
1.87500,-0.51954,1.28771,-1.44457,-0.11736,0.96898,0.17305,,,0.76394,0.63821,0.09522,-0.00399,
1.88281,-0.38171,1.53508,-1.37487,-0.12800,0.97091,0.17598,,,0.76395,0.63818,0.09535,-0.00399,
1.89063,-0.48508,1.57041,-1.34002,-0.12896,0.97043,0.18430,,,0.76396,0.63815,0.09550,-0.00399,
1.89844,-0.48508,1.11103,-1.27032,-0.11978,0.97188,0.18528,,,0.76397,0.63811,0.09561,-0.00401,
1.90625,-0.51954,2.02980,-1.37487,-0.13089,0.96995,0.17745,,,0.76398,0.63808,0.09577,-0.00399,
1.91406,-0.48508,2.10048,-1.51426,-0.12655,0.97381,0.17207,,,0.76399,0.63804,0.09595,-0.00397,
1.92188,-0.31280,1.71177,-1.30517,-0.12316,0.97670,0.18381,,,0.76399,0.63802,0.09610,-0.00396,
1.92969,-0.07161,1.92379,-1.27032,-0.12558,0.97236,0.17207,,,0.76398,0.63801,0.09625,-0.00394,
1.93750,-0.00270,1.95913,-1.40972,-0.13863,0.96802,0.17158,,,0.76397,0.63800,0.09641,-0.00393,
1.94531,0.06621,1.25238,-1.51426,-0.14104,0.96609,0.18039,,,0.76396,0.63799,0.09655,-0.00396,
1.95313,0.20404,0.65164,-1.23547,-0.13138,0.97139,0.17794,,,0.76394,0.63799,0.09663,-0.00399,
1.96094,0.20404,0.26292,-1.20062,-0.13041,0.96850,0.17990,,,0.76393,0.63800,0.09670,-0.00405,
1.96875,0.16958,0.65164,-1.34002,-0.13331,0.96850,0.17598,,,0.76392,0.63800,0.09679,-0.00409,
1.97656,0.13513,0.15691,-1.09607,-0.13234,0.96850,0.18186,,,0.76391,0.63800,0.09685,-0.00414,
1.98438,0.13513,0.12157,-1.02637,-0.13186,0.96367,0.17403,,,0.76391,0.63800,0.09690,-0.00419,
1.99219,0.13513,0.01556,-0.92183,-0.12751,0.96946,0.17354,,,0.76390,0.63800,0.09694,-0.00424,
2.00000,0.16958,0.12157,-0.88698,-0.12993,0.96560,0.17843,,,0.76389,0.63800,0.09698,-0.00428,
2.00781,0.27295,0.05090,-0.85213,-0.13669,0.96995,0.18283,1022.113,26.4,0.76388,0.63801,0.09702,-0.00432,
2.01563,0.20404,0.01556,-0.74758,-0.13186,0.96995,0.17941,,,0.76387,0.63802,0.09706,-0.00436,
2.02344,0.20404,-0.16113,-0.81728,-0.13089,0.97139,0.17647,,,0.76386,0.63802,0.09708,-0.00441,
2.03125,0.20404,-0.33782,-0.81728,-0.12993,0.97139,0.17745,,,0.76386,0.63803,0.09710,-0.00447,
2.03906,0.23849,-0.26714,-0.71273,-0.12413,0.96512,0.16914,,,0.76385,0.63803,0.09712,-0.00452,
2.04688,0.34186,0.19225,-0.81728,-0.12993,0.97670,0.17696,,,0.76383,0.63805,0.09716,-0.00456,
2.05469,0.06621,-0.05512,-0.85213,-0.12848,0.97091,0.17501,,,0.76383,0.63804,0.09720,-0.00461,
2.06250,0.13513,0.05090,-0.81728,-0.12461,0.96705,0.16718,,,0.76382,0.63805,0.09724,-0.00465,
2.07031,0.10067,0.08623,-0.88698,-0.12896,0.97236,0.17501,,,0.76382,0.63804,0.09728,-0.00469,
2.07813,0.16958,-0.19647,-0.67788,-0.12945,0.97284,0.17207,,,0.76381,0.63805,0.09730,-0.00474,
2.08594,0.34186,-0.33782,-0.43393,-0.13476,0.97381,0.18528,,,0.76380,0.63806,0.09730,-0.00478,
2.09375,0.27295,-0.62052,-0.50363,-0.13524,0.96995,0.17745,,,0.76379,0.63807,0.09729,-0.00483,
2.10156,0.44523,-0.97389,-0.25969,-0.12655,0.96753,0.17403,,,0.76378,0.63810,0.09725,-0.00489,
2.10938,0.30741,-0.51451,-0.29454,-0.13041,0.97477,0.18332,,,0.76377,0.63811,0.09724,-0.00493,
2.11719,0.27295,-0.58518,-0.15514,-0.12606,0.97188,0.18479,,,0.76376,0.63812,0.09721,-0.00496,
2.12500,0.27295,-0.86788,-0.08544,-0.13669,0.96753,0.17207,,,0.76375,0.63814,0.09717,-0.00501,
2.13281,0.34186,-0.93856,-0.08544,-0.13138,0.97477,0.17403,,,0.76374,0.63815,0.09712,-0.00506,
2.14063,0.34186,-1.22126,0.01911,-0.12606,0.97236,0.18039,,,0.76374,0.63817,0.09706,-0.00511,
2.14844,0.20404,-0.93856,-0.05059,-0.12171,0.97381,0.17109,,,0.76373,0.63818,0.09701,-0.00515,
2.15625,0.06621,-0.54984,-0.05059,-0.12606,0.97718,0.17794,,,0.76373,0.63818,0.09699,-0.00518,
2.16406,0.03176,-0.37315,-0.15514,-0.12268,0.97043,0.17990,,,0.76373,0.63818,0.09697,-0.00521,
2.17188,0.13513,-0.12579,-0.25969,-0.12413,0.97429,0.17696,,,0.76373,0.63819,0.09698,-0.00523,
2.17969,-0.00270,-0.12579,-0.18999,-0.12703,0.97477,0.16767,,,0.76373,0.63819,0.09698,-0.00524,
2.18750,0.20404,-0.37315,-0.18999,-0.13138,0.97284,0.17305,,,0.76372,0.63820,0.09697,-0.00527,
2.19531,0.13513,-0.44383,-0.05059,-0.12800,0.97381,0.17696,,,0.76372,0.63820,0.09695,-0.00529,
2.20313,0.13513,-0.26714,-0.18999,-0.12655,0.96898,0.17207,,,0.76372,0.63821,0.09694,-0.00531,
2.21094,0.10067,-0.12579,-0.08544,-0.13041,0.96995,0.17550,,,0.76371,0.63821,0.09694,-0.00532,
2.21875,0.13513,-0.58518,-0.05059,-0.12558,0.97284,0.17109,,,0.76371,0.63822,0.09691,-0.00535,
2.22656,0.13513,-0.51451,-0.01574,-0.12171,0.97477,0.17550,,,0.76371,0.63823,0.09689,-0.00538,
2.23438,0.06621,0.08623,-0.18999,-0.13331,0.97622,0.18039,,,0.76371,0.63823,0.09690,-0.00538,
2.24219,0.16958,-0.05512,-0.12029,-0.13476,0.97139,0.17990,,,0.76370,0.63824,0.09690,-0.00539,
2.25000,0.20404,-0.05512,-0.25969,-0.12993,0.97574,0.17696,,,0.76369,0.63825,0.09691,-0.00541,
2.25781,0.30741,0.01556,0.01911,-0.12171,0.97429,0.17109,,,0.76368,0.63826,0.09691,-0.00541,
2.26563,0.03176,0.26292,-0.18999,-0.13041,0.97670,0.18283,,,0.76367,0.63826,0.09693,-0.00541,
2.27344,0.13513,-0.33782,0.05396,-0.12171,0.96946,0.17207,,,0.76367,0.63827,0.09691,-0.00542,
2.28125,0.03176,0.12157,-0.01574,-0.12461,0.97429,0.17403,,,0.76367,0.63827,0.09692,-0.00542,
2.28906,-0.10607,-0.12579,0.05396,-0.12171,0.96705,0.16571,,,0.76367,0.63827,0.09691,-0.00542,
2.29688,0.03176,0.08623,-0.05059,-0.12945,0.97574,0.17452,,,0.76367,0.63827,0.09692,-0.00542,
2.30469,-0.03715,0.08623,-0.08544,-0.12461,0.97332,0.17745,,,0.76367,0.63827,0.09692,-0.00542,
2.31250,-0.07161,0.01556,-0.15514,-0.12993,0.96946,0.17794,,,0.76367,0.63826,0.09693,-0.00543,
2.32031,-0.07161,0.05090,-0.15514,-0.12655,0.96898,0.17354,,,0.76368,0.63826,0.09694,-0.00543,
2.32813,-0.00270,-0.51451,-0.05059,-0.12075,0.97043,0.17745,,,0.76368,0.63826,0.09692,-0.00546,
2.33594,0.06621,-0.12579,-0.12029,-0.13476,0.96850,0.17941,,,0.76368,0.63826,0.09691,-0.00547,
2.34375,0.10067,-0.19647,-0.25969,-0.12945,0.96705,0.17647,,,0.76368,0.63826,0.09692,-0.00549,
2.35156,0.03176,-0.40849,-0.18999,-0.12558,0.96898,0.17550,,,0.76368,0.63826,0.09690,-0.00552,
2.35938,0.10067,-0.23180,-0.32939,-0.12220,0.97043,0.17109,,,0.76367,0.63826,0.09690,-0.00555,
2.36719,0.34186,-0.44383,-0.25969,-0.12896,0.98056,0.18186,,,0.76366,0.63828,0.09689,-0.00558,
2.37500,0.30741,-0.51451,-0.43393,-0.11930,0.97381,0.17745,,,0.76365,0.63829,0.09688,-0.00563,
2.38281,0.34186,-0.44383,-0.32939,-0.12703,0.97718,0.17843,,,0.76364,0.63831,0.09688,-0.00567,
2.39063,0.23849,-0.33782,-0.43393,-0.12461,0.96850,0.16669,,,0.76363,0.63832,0.09688,-0.00571,
2.39844,0.30741,-0.05512,-0.57333,-0.12606,0.97381,0.17011,,,0.76362,0.63833,0.09690,-0.00574,
2.40625,0.37632,-0.01978,-0.57333,-0.12365,0.96995,0.17354,,,0.76360,0.63835,0.09692,-0.00578,
2.41406,0.34186,-0.12579,-0.46878,-0.12800,0.97525,0.17647,,,0.76359,0.63836,0.09694,-0.00581,
2.42188,0.20404,0.47495,-0.53848,-0.13089,0.96753,0.18871,,,0.76357,0.63837,0.09698,-0.00582,
2.42969,0.13513,0.05090,-0.46878,-0.12558,0.96512,0.17598,,,0.76357,0.63837,0.09701,-0.00584,
2.43750,0.16958,-0.26714,-0.39909,-0.13089,0.97139,0.16816,,,0.76356,0.63838,0.09701,-0.00587,
2.44531,-0.00270,-0.33782,-0.18999,-0.12413,0.97043,0.17403,,,0.76356,0.63838,0.09700,-0.00590,
2.45313,-0.07161,-0.40849,-0.08544,-0.13186,0.96802,0.17647,,,0.76357,0.63837,0.09698,-0.00592,
2.46094,-0.03715,-0.26714,-0.05059,-0.12026,0.96946,0.17647,,,0.76357,0.63837,0.09697,-0.00593,
2.46875,0.16958,-0.09045,0.19335,-0.12655,0.97525,0.17354,,,0.76357,0.63838,0.09696,-0.00593,
2.47656,0.20404,0.26292,-0.05059,-0.12558,0.97670,0.18039,,,0.76356,0.63839,0.09697,-0.00592,
2.48438,0.27295,-0.37315,0.15850,-0.11978,0.97043,0.17305,,,0.76355,0.63841,0.09695,-0.00593,
2.49219,0.16958,0.22758,-0.05059,-0.12896,0.97815,0.17647,,,0.76354,0.63841,0.09696,-0.00592,
2.50000,-0.00270,-0.16113,0.01911,-0.12461,0.97043,0.17109,,,0.76354,0.63841,0.09695,-0.00593,
2.50781,0.06621,-0.16113,-0.05059,-0.13476,0.97332,0.17941,,,0.76354,0.63842,0.09695,-0.00594,
2.51563,0.34186,-0.83254,0.19335,-0.11785,0.97429,0.16816,,,0.76353,0.63844,0.09689,-0.00597,
2.52344,0.30741,-0.40849,0.22820,-0.12026,0.96898,0.16914,,,0.76352,0.63845,0.09686,-0.00598,
2.53125,0.23849,-0.09045,-0.01574,-0.12558,0.97043,0.17403,,,0.76351,0.63847,0.09686,-0.00598,
2.53906,0.13513,-0.37315,0.08881,-0.13041,0.96464,0.17158,,,0.76350,0.63847,0.09684,-0.00600,
2.54688,0.16958,-0.79721,0.12366,-0.11881,0.97043,0.17011,,,0.76350,0.63848,0.09679,-0.00602,
2.55469,0.10067,-0.54984,0.12366,-0.12655,0.96802,0.17158,,,0.76350,0.63849,0.09675,-0.00604,
2.56250,0.10067,0.05090,0.12366,-0.13379,0.97381,0.17256,,,0.76350,0.63849,0.09675,-0.00604,
2.57031,0.06621,-0.58518,0.36760,-0.11833,0.97525,0.16962,,,0.76350,0.63850,0.09671,-0.00604,
2.57813,0.16958,-0.23180,0.22820,-0.11591,0.97718,0.17892,,,0.76349,0.63851,0.09668,-0.00604,
2.58594,0.16958,-0.44383,0.19335,-0.12751,0.97284,0.18088,,,0.76349,0.63852,0.09665,-0.00605,
2.59375,0.37632,-0.65586,-0.08544,-0.12220,0.97236,0.17647,,,0.76348,0.63854,0.09662,-0.00609,
2.60156,0.37632,-0.65586,-0.01574,-0.11495,0.96995,0.17794,,,0.76346,0.63856,0.09659,-0.00612,
2.60938,0.16958,-0.26714,-0.12029,-0.11495,0.97815,0.18088,,,0.76346,0.63857,0.09658,-0.00614,
2.61719,-0.00270,0.19225,-0.18999,-0.11978,0.97332,0.17647,,,0.76346,0.63856,0.09660,-0.00614,
2.62500,0.30741,-0.37315,-0.32939,-0.11930,0.97091,0.16131,,,0.76345,0.63858,0.09659,-0.00617,
2.63281,0.20404,0.05090,-0.43393,-0.11785,0.97332,0.17305,,,0.76344,0.63859,0.09661,-0.00620,
2.64063,-0.00270,0.19225,-0.46878,-0.12848,0.97574,0.17696,,,0.76344,0.63858,0.09664,-0.00621,
2.64844,0.03176,-0.26714,-0.43393,-0.13041,0.96802,0.16865,,,0.76344,0.63858,0.09665,-0.00625,
2.65625,-0.00270,-0.47917,-0.50363,-0.12461,0.96995,0.17158,,,0.76344,0.63858,0.09665,-0.00629,
2.66406,-0.00270,-0.47917,-0.32939,-0.12171,0.97429,0.17696,,,0.76344,0.63858,0.09664,-0.00633,
2.67188,-0.14052,-0.33782,-0.08544,-0.12075,0.97477,0.17647,,,0.76345,0.63857,0.09662,-0.00635,
2.67969,-0.07161,-0.33782,-0.12029,-0.12461,0.96705,0.17256,,,0.76346,0.63856,0.09661,-0.00637,
2.68750,-0.10607,-0.12579,-0.08544,-0.12655,0.97429,0.16962,,,0.76346,0.63856,0.09661,-0.00638,
2.69531,-0.24389,-0.05512,0.01911,-0.12896,0.97284,0.17647,,,0.76347,0.63854,0.09660,-0.00638,
2.70313,0.06621,-0.37315,0.05396,-0.11930,0.97139,0.17452,,,0.76347,0.63855,0.09658,-0.00639,
2.71094,-0.03715,0.22758,0.08881,-0.13041,0.97718,0.17794,,,0.76347,0.63855,0.09659,-0.00638,
2.71875,-0.00270,-0.26714,0.26305,-0.12606,0.97043,0.17501,,,0.76347,0.63855,0.09656,-0.00638,
2.72656,0.06621,-0.76187,0.01911,-0.12461,0.97767,0.17598,,,0.76348,0.63855,0.09652,-0.00641,
2.73438,-0.03715,-0.69119,0.12366,-0.11978,0.97381,0.17941,,,0.76348,0.63855,0.09648,-0.00643,
2.74219,-0.03715,-0.19647,-0.08544,-0.11640,0.97236,0.17207,,,0.76348,0.63855,0.09647,-0.00645,
2.75000,-0.20943,-0.16113,-0.08544,-0.12268,0.96898,0.17598,,,0.76349,0.63854,0.09647,-0.00646,
2.75781,-0.07161,-0.69119,0.08881,-0.11446,0.96946,0.17207,,,0.76350,0.63853,0.09643,-0.00648,
2.76563,-0.03715,-0.62052,0.01911,-0.12461,0.96850,0.18479,,,0.76351,0.63853,0.09640,-0.00651,
2.77344,-0.14052,-0.58518,0.15850,-0.12558,0.97332,0.17158,,,0.76352,0.63852,0.09636,-0.00652,
2.78125,-0.17498,-0.37315,-0.01574,-0.12026,0.97139,0.17745,,,0.76353,0.63851,0.09634,-0.00654,
2.78906,-0.24389,-0.26714,0.05396,-0.12123,0.97670,0.17550,,,0.76354,0.63850,0.09633,-0.00655,
2.79688,-0.00270,-0.30248,0.15850,-0.11833,0.97815,0.17305,,,0.76354,0.63850,0.09630,-0.00655,
2.80469,0.03176,0.05090,-0.08544,-0.12075,0.97284,0.17550,,,0.76354,0.63850,0.09631,-0.00655,
2.81250,-0.10607,0.08623,-0.15514,-0.12075,0.97381,0.17696,,,0.76355,0.63850,0.09632,-0.00656,
2.82031,-0.07161,-0.19647,-0.15514,-0.11785,0.97284,0.17256,,,0.76355,0.63849,0.09632,-0.00657,
2.82813,-0.10607,0.01556,-0.32939,-0.12703,0.97718,0.17452,,,0.76355,0.63848,0.09633,-0.00659,
2.83594,-0.17498,-0.33782,-0.22484,-0.12365,0.97236,0.17696,,,0.76356,0.63847,0.09632,-0.00661,
2.84375,0.13513,-0.12579,-0.25969,-0.12558,0.97525,0.17696,,,0.76356,0.63848,0.09633,-0.00663,
2.85156,-0.14052,-0.09045,-0.46878,-0.12510,0.97188,0.17941,,,0.76356,0.63847,0.09634,-0.00666,
2.85938,-0.17498,0.08623,-0.50363,-0.12413,0.96946,0.17794,,,0.76357,0.63846,0.09637,-0.00668,
2.86719,0.06621,-0.09045,-0.39909,-0.11930,0.96657,0.17256,,,0.76357,0.63846,0.09638,-0.00671,
2.87500,0.10067,-0.19647,-0.50363,-0.11785,0.97043,0.17109,,,0.76357,0.63846,0.09640,-0.00674,
2.88281,0.06621,-0.12579,-0.64303,-0.12268,0.97043,0.18479,,,0.76356,0.63846,0.09642,-0.00678,
2.89063,0.06621,-0.30248,-0.50363,-0.11930,0.96946,0.17892,,,0.76356,0.63846,0.09642,-0.00682,
2.89844,-0.00270,-0.12579,-0.39909,-0.12365,0.97284,0.17990,,,0.76356,0.63846,0.09643,-0.00685,
2.90625,-0.00270,-0.26714,-0.50363,-0.12220,0.97139,0.16718,,,0.76356,0.63845,0.09644,-0.00689,
2.91406,0.06621,-0.16113,-0.74758,-0.12413,0.97091,0.18088,,,0.76356,0.63845,0.09647,-0.00693,
2.92188,0.06621,-0.19647,-0.57333,-0.11881,0.97332,0.17598,,,0.76356,0.63845,0.09648,-0.00697,
2.92969,0.10067,-0.12579,-0.60818,-0.11301,0.97718,0.17060,,,0.76356,0.63845,0.09650,-0.00701,
2.93750,0.03176,0.33360,-0.71273,-0.12316,0.97236,0.17403,,,0.76355,0.63845,0.09655,-0.00703,
2.94531,-0.00270,-0.01978,-0.88698,-0.12365,0.98008,0.17696,,,0.76355,0.63844,0.09659,-0.00708,
2.95313,0.03176,0.15691,-0.85213,-0.11301,0.97139,0.17598,,,0.76355,0.63844,0.09663,-0.00712,
2.96094,-0.07161,0.54562,-0.92183,-0.12606,0.97381,0.17403,,,0.76355,0.63843,0.09670,-0.00714,
2.96875,0.03176,0.43961,-1.02637,-0.12220,0.97043,0.17207,,,0.76354,0.63842,0.09677,-0.00717,
2.97656,-0.14052,0.12157,-0.81728,-0.11736,0.96850,0.17354,,,0.76355,0.63841,0.09681,-0.00721,
2.98438,-0.20943,0.40427,-0.64303,-0.12075,0.96946,0.17207,,,0.76356,0.63840,0.09686,-0.00723,
2.99219,-0.14052,0.54562,-0.60818,-0.13283,0.97767,0.17696,,,0.76356,0.63838,0.09691,-0.00723,
3.00000,0.03176,0.05090,-0.57333,-0.12606,0.97429,0.17745,,,0.76356,0.63838,0.09694,-0.00726,
3.00781,-0.00270,0.01556,-0.64303,-0.11978,0.96512,0.17941,1022.144,26.4,0.76356,0.63838,0.09697,-0.00729,
3.01563,-0.07161,-0.01978,-0.64303,-0.11833,0.97236,0.17843,,,0.76356,0.63837,0.09700,-0.00733,
3.02344,0.10067,0.08623,-0.81728,-0.11930,0.97429,0.17452,,,0.76355,0.63837,0.09704,-0.00737,
3.03125,0.16958,-0.05512,-0.60818,-0.11301,0.97139,0.17305,,,0.76355,0.63838,0.09706,-0.00740,
3.03906,0.20404,0.29826,-0.78243,-0.12510,0.97863,0.17794,,,0.76353,0.63838,0.09711,-0.00743,
3.04688,0.16958,0.40427,-0.60818,-0.12220,0.97477,0.17696,,,0.76352,0.63839,0.09716,-0.00745,
3.05469,0.10067,0.40427,-0.64303,-0.12461,0.97381,0.17892,,,0.76352,0.63839,0.09721,-0.00746,
3.06250,-0.14052,0.51029,-0.78243,-0.12365,0.98105,0.17794,,,0.76352,0.63837,0.09727,-0.00748,
3.07031,0.16958,0.36894,-0.81728,-0.12558,0.97043,0.17305,,,0.76351,0.63838,0.09732,-0.00751,
3.07813,-0.07161,0.61630,-0.95667,-0.12751,0.97284,0.17452,,,0.76351,0.63837,0.09739,-0.00753,
3.08594,0.16958,0.12157,-0.60818,-0.11833,0.97091,0.16718,,,0.76350,0.63837,0.09743,-0.00756,
3.09375,-0.17498,0.12157,-0.74758,-0.12268,0.97284,0.17452,,,0.76351,0.63836,0.09747,-0.00759,
3.10156,-0.17498,0.15691,-0.64303,-0.12558,0.97477,0.16914,,,0.76351,0.63835,0.09750,-0.00762,
3.10938,-0.41617,0.29826,-0.57333,-0.12220,0.97139,0.17501,,,0.76353,0.63832,0.09754,-0.00763,
3.11719,-0.27834,0.22758,-0.39909,-0.11978,0.97043,0.17011,,,0.76354,0.63830,0.09757,-0.00764,
3.12500,-0.34726,0.26292,-0.29454,-0.12800,0.97574,0.17501,,,0.76355,0.63828,0.09760,-0.00764,
3.13281,-0.27834,0.26292,-0.46878,-0.12558,0.96995,0.17256,,,0.76356,0.63827,0.09763,-0.00765,
3.14063,-0.27834,0.15691,-0.46878,-0.12026,0.97284,0.17990,,,0.76357,0.63825,0.09766,-0.00767,
3.14844,-0.20943,-0.09045,-0.43393,-0.11930,0.97284,0.17403,,,0.76358,0.63824,0.09768,-0.00769,
3.15625,-0.14052,0.05090,-0.53848,-0.12993,0.96995,0.17598,,,0.76359,0.63822,0.09770,-0.00772,
3.16406,-0.27834,-0.16113,-0.64303,-0.11205,0.97236,0.17354,,,0.76360,0.63821,0.09772,-0.00776,
3.17188,-0.24389,0.05090,-0.57333,-0.11978,0.97188,0.17647,,,0.76361,0.63819,0.09775,-0.00778,
3.17969,-0.31280,0.26292,-0.71273,-0.12800,0.97381,0.17452,,,0.76362,0.63817,0.09779,-0.00780,
3.18750,-0.24389,0.22758,-0.85213,-0.12413,0.96850,0.16865,,,0.76363,0.63815,0.09784,-0.00784,
3.19531,-0.31280,0.15691,-0.57333,-0.12316,0.97043,0.17011,,,0.76364,0.63813,0.09788,-0.00786,
3.20313,-0.38171,0.01556,-0.39909,-0.12461,0.97718,0.17354,,,0.76366,0.63811,0.09790,-0.00788,
3.21094,-0.55399,-0.05512,-0.46878,-0.11881,0.97622,0.17354,,,0.76368,0.63808,0.09791,-0.00790,
3.21875,-0.65736,0.29826,-0.29454,-0.12268,0.96657,0.17060,,,0.76371,0.63804,0.09794,-0.00790,
3.22656,-0.41617,0.58096,-0.36424,-0.12365,0.97236,0.17207,,,0.76372,0.63802,0.09799,-0.00789,
3.23438,-0.38171,0.15691,-0.43393,-0.12026,0.96946,0.17598,,,0.76374,0.63799,0.09802,-0.00790,
3.24219,-0.14052,0.05090,-0.29454,-0.12026,0.96802,0.18137,,,0.76374,0.63798,0.09803,-0.00791,
3.25000,-0.10607,-0.33782,-0.29454,-0.11591,0.96898,0.17647,,,0.76375,0.63798,0.09803,-0.00794,
3.25781,-0.00270,-0.16113,-0.32939,-0.11978,0.97284,0.16914,,,0.76375,0.63797,0.09803,-0.00797,
3.26563,0.13513,-0.05512,-0.60818,-0.12751,0.97284,0.18235,,,0.76375,0.63798,0.09806,-0.00800,
3.27344,0.23849,-0.54984,-0.53848,-0.11978,0.97139,0.17843,,,0.76374,0.63798,0.09805,-0.00806,
3.28125,0.44523,-0.47917,-0.67788,-0.12365,0.97718,0.17843,,,0.76372,0.63800,0.09805,-0.00811,
3.28906,0.30741,-0.47917,-0.85213,-0.12268,0.97429,0.17403,,,0.76371,0.63801,0.09807,-0.00818,
3.29688,0.13513,-0.54984,-0.71273,-0.11640,0.97043,0.17403,,,0.76371,0.63802,0.09807,-0.00824,
3.30469,-0.00270,-0.26714,-0.81728,-0.11640,0.97477,0.17696,,,0.76371,0.63801,0.09809,-0.00830,
3.31250,-0.20943,-0.05512,-0.64303,-0.12365,0.96898,0.17011,,,0.76372,0.63799,0.09812,-0.00833,
3.32031,-0.14052,0.15691,-0.85213,-0.12606,0.98153,0.17794,,,0.76372,0.63798,0.09816,-0.00837,
3.32813,-0.10607,0.19225,-0.71273,-0.11736,0.96802,0.17403,,,0.76373,0.63797,0.09820,-0.00840,
3.33594,-0.20943,0.15691,-0.67788,-0.11591,0.97477,0.17060,,,0.76373,0.63796,0.09824,-0.00842,
3.34375,-0.14052,0.33360,-0.71273,-0.12993,0.96850,0.16914,,,0.76374,0.63794,0.09829,-0.00845,
3.35156,-0.10607,0.08623,-0.95667,-0.12751,0.96657,0.17550,,,0.76374,0.63793,0.09833,-0.00849,
3.35938,-0.07161,-0.47917,-0.57333,-0.12171,0.97139,0.18283,,,0.76375,0.63792,0.09833,-0.00854,
3.36719,0.06621,-0.26714,-0.60818,-0.12510,0.97525,0.17305,,,0.76375,0.63792,0.09835,-0.00858,
3.37500,0.03176,-0.26714,-0.67788,-0.11640,0.96898,0.17550,,,0.76375,0.63792,0.09836,-0.00863,
3.38281,0.10067,-0.05512,-0.81728,-0.11978,0.96753,0.17647,,,0.76374,0.63792,0.09839,-0.00868,
3.39063,0.13513,-0.01978,-0.74758,-0.11978,0.97381,0.17598,,,0.76374,0.63792,0.09843,-0.00872,
3.39844,0.30741,0.26292,-0.81728,-0.12751,0.97815,0.18088,,,0.76372,0.63793,0.09848,-0.00875,
3.40625,0.06621,0.05090,-0.95667,-0.12171,0.97477,0.17256,,,0.76372,0.63793,0.09852,-0.00880,
3.41406,0.16958,-0.16113,-0.88698,-0.12510,0.97477,0.17598,,,0.76371,0.63793,0.09855,-0.00885,
3.42188,0.03176,-0.05512,-0.85213,-0.12075,0.97429,0.17354,,,0.76371,0.63793,0.09858,-0.00890,
3.42969,-0.10607,-0.01978,-0.85213,-0.12171,0.98008,0.18137,,,0.76371,0.63792,0.09862,-0.00894,
3.43750,-0.14052,0.08623,-0.92183,-0.12171,0.97767,0.17550,,,0.76372,0.63790,0.09866,-0.00899,
3.44531,-0.07161,0.29826,-0.88698,-0.12171,0.97284,0.17109,,,0.76372,0.63789,0.09872,-0.00902,
3.45313,-0.14052,0.12157,-0.85213,-0.12461,0.96753,0.18283,,,0.76372,0.63788,0.09876,-0.00906,
3.46094,-0.17498,0.40427,-0.92183,-0.12413,0.96802,0.17843,,,0.76373,0.63787,0.09882,-0.00909,
3.46875,-0.00270,0.22758,-0.67788,-0.12703,0.98105,0.17990,,,0.76372,0.63786,0.09886,-0.00911,
3.47656,0.03176,0.29826,-0.67788,-0.11930,0.97525,0.17843,,,0.76372,0.63786,0.09891,-0.00914,
3.48438,-0.07161,0.33360,-0.67788,-0.12220,0.97284,0.17941,,,0.76372,0.63785,0.09896,-0.00916,
3.49219,-0.17498,0.93434,-0.71273,-0.11978,0.97091,0.17158,,,0.76372,0.63784,0.09904,-0.00915,
3.50000,0.16958,0.93434,-0.85213,-0.12896,0.97332,0.17403,,,0.76371,0.63784,0.09912,-0.00916,
3.50781,0.03176,1.18170,-0.74758,-0.12268,0.97622,0.17501,,,0.76370,0.63784,0.09922,-0.00914,
3.51563,-0.14052,0.82832,-0.53848,-0.12461,0.96898,0.17060,,,0.76370,0.63783,0.09928,-0.00914,
3.52344,-0.17498,1.00501,-0.67788,-0.12171,0.97236,0.17452,,,0.76370,0.63781,0.09936,-0.00913,
3.53125,-0.07161,0.72231,-0.64303,-0.13089,0.97284,0.17452,,,0.76370,0.63781,0.09943,-0.00913,
3.53906,-0.10607,0.05090,-0.53848,-0.13283,0.97429,0.17892,,,0.76370,0.63780,0.09946,-0.00915,
3.54688,-0.03715,-0.12579,-0.46878,-0.12268,0.96609,0.17452,,,0.76370,0.63779,0.09947,-0.00918,
3.55469,-0.24389,0.19225,-0.39909,-0.11736,0.97381,0.17501,,,0.76371,0.63778,0.09950,-0.00919,
3.56250,-0.20943,0.19225,-0.46878,-0.12510,0.97381,0.17794,,,0.76372,0.63776,0.09953,-0.00921,
3.57031,-0.10607,0.19225,-0.39909,-0.12848,0.97429,0.17843,,,0.76372,0.63776,0.09956,-0.00922,
3.57813,-0.03715,0.19225,-0.64303,-0.11930,0.97043,0.17696,,,0.76372,0.63775,0.09959,-0.00924,
3.58594,-0.20943,-0.09045,-0.32939,-0.11785,0.97236,0.17452,,,0.76373,0.63774,0.09960,-0.00926,
3.59375,-0.17498,0.15691,-0.46878,-0.12558,0.97718,0.17354,,,0.76374,0.63772,0.09963,-0.00928,
3.60156,-0.17498,0.15691,-0.67788,-0.12123,0.97381,0.17696,,,0.76374,0.63771,0.09967,-0.00931,
3.60938,-0.03715,0.15691,-0.64303,-0.12461,0.97912,0.17843,,,0.76374,0.63770,0.09971,-0.00933,
3.61719,-0.10607,0.65164,-0.95667,-0.12220,0.97525,0.17452,,,0.76374,0.63769,0.09978,-0.00935,
3.62500,-0.14052,0.22758,-0.88698,-0.11591,0.97139,0.17011,,,0.76375,0.63768,0.09983,-0.00939,
3.63281,-0.17498,0.89900,-0.85213,-0.12655,0.96898,0.17060,,,0.76375,0.63767,0.09992,-0.00939,
3.64063,-0.20943,0.89900,-0.85213,-0.12558,0.97236,0.17647,,,0.76375,0.63765,0.10000,-0.00940,
3.64844,-0.27834,0.72231,-0.92183,-0.12606,0.97188,0.17598,,,0.76376,0.63763,0.10008,-0.00941,
3.65625,-0.27834,0.68697,-0.81728,-0.12558,0.96995,0.17696,,,0.76376,0.63761,0.10015,-0.00942,
3.66406,-0.31280,0.47495,-0.78243,-0.12365,0.97381,0.16767,,,0.76377,0.63759,0.10021,-0.00944,
3.67188,-0.07161,0.47495,-0.74758,-0.12365,0.97381,0.17647,,,0.76377,0.63758,0.10026,-0.00946,
3.67969,-0.17498,0.29826,-0.67788,-0.12606,0.97091,0.17892,,,0.76378,0.63757,0.10031,-0.00948,
3.68750,-0.20943,0.33360,-0.57333,-0.12703,0.97332,0.17207,,,0.76379,0.63755,0.10035,-0.00949,
3.69531,-0.31280,0.54562,-0.67788,-0.13621,0.97188,0.17452,,,0.76379,0.63753,0.10041,-0.00950,
3.70313,-0.00270,-0.09045,-0.50363,-0.12171,0.97477,0.17207,,,0.76380,0.63753,0.10043,-0.00953,
3.71094,0.20404,0.01556,-0.43393,-0.12461,0.97574,0.17745,,,0.76379,0.63753,0.10045,-0.00956,
3.71875,0.03176,0.12157,-0.60818,-0.12510,0.97622,0.17109,,,0.76378,0.63753,0.10048,-0.00958,
3.72656,0.10067,0.05090,-0.60818,-0.12993,0.97622,0.17892,,,0.76378,0.63753,0.10051,-0.00961,
3.73438,0.10067,0.19225,-0.43393,-0.12365,0.97332,0.17354,,,0.76377,0.63754,0.10054,-0.00963,
3.74219,0.06621,-0.01978,-0.57333,-0.12558,0.96705,0.16962,,,0.76377,0.63754,0.10056,-0.00966,
3.75000,0.10067,0.22758,-0.43393,-0.12268,0.98298,0.17745,,,0.76376,0.63754,0.10059,-0.00967,
3.75781,0.06621,0.22758,-0.46878,-0.12510,0.96995,0.17745,,,0.76376,0.63754,0.10062,-0.00969,
3.76563,0.13513,-0.26714,-0.43393,-0.12026,0.97139,0.17158,,,0.76375,0.63754,0.10063,-0.00972,
3.77344,0.34186,-0.30248,-0.39909,-0.11833,0.97718,0.17403,,,0.76374,0.63756,0.10063,-0.00976,
3.78125,0.16958,0.33360,-0.29454,-0.12461,0.96609,0.17256,,,0.76373,0.63756,0.10066,-0.00976,
3.78906,0.27295,0.40427,-0.36424,-0.12655,0.96560,0.16962,,,0.76372,0.63758,0.10070,-0.00976,
3.79688,0.30741,0.47495,-0.36424,-0.12945,0.97332,0.17452,,,0.76370,0.63759,0.10074,-0.00976,
3.80469,0.75533,0.79299,-0.32939,-0.11591,0.97188,0.17403,,,0.76366,0.63763,0.10079,-0.00975,
3.81250,0.37632,1.49974,-0.32939,-0.12606,0.96898,0.18186,,,0.76363,0.63765,0.10088,-0.00971,
3.82031,0.54860,0.65164,-0.25969,-0.12171,0.97043,0.17501,,,0.76361,0.63767,0.10093,-0.00970,
3.82813,0.72088,0.89900,-0.50363,-0.11591,0.96705,0.17843,,,0.76357,0.63771,0.10100,-0.00969,
3.83594,0.65196,1.04035,-0.60818,-0.11011,0.98056,0.16865,,,0.76353,0.63774,0.10108,-0.00968,
3.84375,0.06621,2.02980,-0.50363,-0.12123,0.96995,0.17745,,,0.76351,0.63774,0.10120,-0.00962,
3.85156,0.10067,1.64109,-0.43393,-0.14056,0.96029,0.17109,,,0.76350,0.63774,0.10131,-0.00957,
3.85938,0.16958,0.54562,-0.18999,-0.13863,0.97767,0.17060,,,0.76349,0.63775,0.10135,-0.00956,
3.86719,0.03176,0.22758,-0.08544,-0.12268,0.97767,0.17305,,,0.76348,0.63775,0.10136,-0.00955,
3.87500,-0.14052,0.08623,0.05396,-0.11640,0.98105,0.16914,,,0.76349,0.63774,0.10136,-0.00954,
3.88281,-0.17498,0.75765,-0.05059,-0.12848,0.97139,0.17011,,,0.76349,0.63774,0.10140,-0.00951,
3.89063,-0.20943,0.65164,0.01911,-0.13331,0.96705,0.17745,,,0.76350,0.63773,0.10144,-0.00948,
3.89844,-0.07161,-0.40849,-0.05059,-0.12461,0.96898,0.18137,,,0.76350,0.63772,0.10142,-0.00950,
3.90625,-0.17498,-0.01978,-0.05059,-0.11011,0.97284,0.17354,,,0.76351,0.63771,0.10142,-0.00950,
3.91406,-0.38171,0.47495,-0.05059,-0.12171,0.97718,0.17011,,,0.76352,0.63769,0.10145,-0.00948,
3.92188,-0.10607,0.47495,0.08881,-0.12365,0.96802,0.17207,,,0.76352,0.63769,0.10147,-0.00946,
3.92969,-0.07161,0.33360,-0.05059,-0.12316,0.96995,0.18137,,,0.76353,0.63768,0.10149,-0.00944,
3.93750,-0.17498,0.40427,-0.05059,-0.12655,0.96995,0.18381,,,0.76353,0.63767,0.10151,-0.00943,
3.94531,-0.10607,0.19225,-0.18999,-0.12220,0.97381,0.17647,,,0.76353,0.63767,0.10153,-0.00943,
3.95313,-0.00270,0.05090,-0.05059,-0.11785,0.96898,0.17745,,,0.76353,0.63767,0.10153,-0.00943,
3.96094,-0.00270,0.12157,0.05396,-0.11688,0.97718,0.17354,,,0.76353,0.63767,0.10154,-0.00942,
3.96875,-0.41617,0.26292,-0.32939,-0.11930,0.97912,0.17256,,,0.76355,0.63764,0.10157,-0.00942,
3.97656,-0.41617,0.33360,-0.18999,-0.11978,0.97188,0.16914,,,0.76356,0.63762,0.10159,-0.00942,
3.98438,-0.31280,0.75765,-0.25969,-0.12558,0.96657,0.16816,,,0.76357,0.63760,0.10164,-0.00939,
3.99219,-0.24389,0.47495,-0.22484,-0.11930,0.97284,0.16962,,,0.76358,0.63759,0.10168,-0.00938,
4.00000,-0.27834,0.58096,-0.36424,-0.12848,0.97236,0.17745,,,0.76359,0.63757,0.10172,-0.00938,
4.00781,-0.20943,0.12157,-0.22484,-0.12123,0.97091,0.17060,1022.116,26.4,0.76360,0.63756,0.10174,-0.00938,
4.01563,-0.14052,0.19225,-0.29454,-0.12896,0.97429,0.17256,,,0.76360,0.63755,0.10176,-0.00939,
4.02344,-0.24389,0.15691,-0.39909,-0.12510,0.97622,0.17598,,,0.76361,0.63754,0.10179,-0.00940,
4.03125,-0.07161,-0.62052,-0.08544,-0.12123,0.97284,0.16865,,,0.76362,0.63753,0.10176,-0.00943,
4.03906,-0.24389,0.01556,-0.36424,-0.12800,0.96946,0.17109,,,0.76363,0.63752,0.10178,-0.00945,
4.04688,-0.27834,-0.16113,-0.18999,-0.12751,0.97477,0.17501,,,0.76364,0.63750,0.10178,-0.00946,
4.05469,-0.10607,-0.30248,-0.25969,-0.12123,0.97381,0.17109,,,0.76365,0.63749,0.10177,-0.00949,
4.06250,-0.20943,-0.40849,-0.12029,-0.12510,0.97718,0.17158,,,0.76366,0.63748,0.10176,-0.00951,
4.07031,-0.20943,-0.47917,-0.18999,-0.11736,0.97574,0.16962,,,0.76367,0.63747,0.10174,-0.00954,
4.07813,-0.31280,-0.26714,-0.29454,-0.12026,0.97332,0.17109,,,0.76369,0.63745,0.10174,-0.00956,
4.08594,-0.20943,-0.19647,-0.29454,-0.11930,0.97139,0.16914,,,0.76370,0.63744,0.10174,-0.00959,
4.09375,-0.48508,-0.19647,-0.25969,-0.12268,0.96657,0.17256,,,0.76372,0.63741,0.10174,-0.00960,
4.10156,-0.51954,0.15691,-0.32939,-0.12751,0.96416,0.17354,,,0.76374,0.63738,0.10177,-0.00961,
4.10938,-0.34726,-0.26714,-0.43393,-0.11978,0.97139,0.17354,,,0.76376,0.63736,0.10177,-0.00964,
4.11719,-0.24389,-0.33782,-0.22484,-0.11785,0.97477,0.17990,,,0.76377,0.63734,0.10176,-0.00967,
4.12500,-0.24389,-0.01978,-0.29454,-0.11688,0.96946,0.17354,,,0.76378,0.63733,0.10178,-0.00968,
4.13281,-0.17498,0.15691,-0.32939,-0.11833,0.97188,0.17256,,,0.76379,0.63732,0.10180,-0.00969,
4.14063,-0.34726,0.05090,-0.57333,-0.12026,0.97043,0.17598,,,0.76380,0.63730,0.10183,-0.00972,
4.14844,-0.07161,-0.26714,-0.46878,-0.11785,0.97718,0.17256,,,0.76381,0.63729,0.10183,-0.00975,
4.15625,-0.17498,0.19225,-0.67788,-0.12896,0.97767,0.18186,,,0.76381,0.63728,0.10187,-0.00978,
4.16406,-0.07161,-0.09045,-0.71273,-0.11398,0.96946,0.17598,,,0.76381,0.63727,0.10190,-0.00982,
4.17188,-0.17498,0.22758,-0.78243,-0.12171,0.97670,0.17305,,,0.76382,0.63725,0.10194,-0.00985,
4.17969,-0.14052,0.15691,-0.81728,-0.11881,0.97091,0.17256,,,0.76382,0.63724,0.10199,-0.00988,
4.18750,-0.03715,0.22758,-0.99152,-0.12316,0.97236,0.17843,,,0.76382,0.63723,0.10204,-0.00992,
4.19531,-0.00270,0.40427,-0.99152,-0.12316,0.96416,0.16962,,,0.76382,0.63722,0.10211,-0.00996,
4.20313,-0.03715,0.75765,-0.95667,-0.12751,0.97043,0.17011,,,0.76382,0.63722,0.10219,-0.00997,
4.21094,-0.07161,0.36894,-0.99152,-0.12413,0.97718,0.17647,,,0.76382,0.63721,0.10225,-0.01001,
4.21875,-0.17498,0.33360,-0.99152,-0.12413,0.97429,0.17501,,,0.76382,0.63719,0.10231,-0.01005,
4.22656,0.06621,0.05090,-1.09607,-0.12896,0.97477,0.17990,,,0.76382,0.63719,0.10236,-0.01010,
4.23438,0.16958,-0.26714,-0.88698,-0.13186,0.96995,0.18137,,,0.76381,0.63719,0.10238,-0.01016,
4.24219,-0.00270,0.22758,-0.85213,-0.11930,0.97525,0.17745,,,0.76381,0.63718,0.10243,-0.01019,
4.25000,0.10067,-0.01978,-0.81728,-0.12123,0.97284,0.17403,,,0.76380,0.63718,0.10247,-0.01024,
4.25781,0.16958,-0.05512,-0.85213,-0.12655,0.97429,0.17452,,,0.76380,0.63718,0.10250,-0.01029,
4.26563,0.20404,-0.12579,-0.71273,-0.12655,0.97718,0.17501,,,0.76379,0.63719,0.10253,-0.01033,
4.27344,0.23849,-0.09045,-0.78243,-0.12220,0.97525,0.17550,,,0.76378,0.63720,0.10256,-0.01038,
4.28125,0.06621,0.05090,-0.60818,-0.12171,0.97091,0.17794,,,0.76377,0.63720,0.10258,-0.01041,
4.28906,0.16958,-0.16113,-0.67788,-0.11930,0.97429,0.17305,,,0.76377,0.63720,0.10261,-0.01045,
4.29688,0.06621,-0.05512,-0.71273,-0.12848,0.97912,0.17696,,,0.76376,0.63720,0.10263,-0.01049,
4.30469,-0.03715,-0.26714,-0.64303,-0.12026,0.97622,0.17158,,,0.76377,0.63719,0.10265,-0.01053,
4.31250,0.10067,-0.05512,-0.57333,-0.12800,0.97284,0.16669,,,0.76376,0.63719,0.10267,-0.01057,
4.32031,-0.07161,0.22758,-0.67788,-0.12800,0.96753,0.17158,,,0.76376,0.63718,0.10271,-0.01059,
4.32813,-0.00270,-0.26714,-0.50363,-0.12606,0.97574,0.17794,,,0.76376,0.63718,0.10272,-0.01063,
4.33594,-0.07161,-0.19647,-0.50363,-0.11833,0.97815,0.18479,,,0.76377,0.63717,0.10273,-0.01066,
4.34375,-0.03715,-0.05512,-0.43393,-0.13041,0.97525,0.17207,,,0.76377,0.63717,0.10275,-0.01069,
4.35156,-0.07161,-0.30248,-0.60818,-0.12123,0.97284,0.17354,,,0.76378,0.63716,0.10276,-0.01073,
4.35938,-0.10607,-0.51451,-0.50363,-0.12171,0.96609,0.17207,,,0.76378,0.63715,0.10275,-0.01078,
4.36719,-0.17498,-0.12579,-0.39909,-0.13138,0.97767,0.18332,,,0.76379,0.63714,0.10276,-0.01081,
4.37500,-0.24389,-0.62052,-0.57333,-0.12171,0.96946,0.17109,,,0.76381,0.63712,0.10276,-0.01086,
4.38281,-0.10607,-0.72653,-0.53848,-0.11640,0.97332,0.16962,,,0.76382,0.63711,0.10274,-0.01092,
4.39063,0.03176,-0.09045,-0.60818,-0.11640,0.97236,0.17109,,,0.76381,0.63711,0.10276,-0.01096,
4.39844,-0.24389,-0.01978,-0.71273,-0.12848,0.97525,0.17550,,,0.76382,0.63709,0.10279,-0.01099,
4.40625,-0.20943,-0.01978,-0.74758,-0.12655,0.97381,0.17550,,,0.76383,0.63708,0.10282,-0.01103,
4.41406,0.10067,-0.12579,-0.71273,-0.12316,0.97477,0.17501,,,0.76383,0.63708,0.10285,-0.01107,
4.42188,-0.10607,0.12157,-0.81728,-0.12703,0.97139,0.17941,,,0.76383,0.63706,0.10289,-0.01111,
4.42969,-0.07161,0.01556,-0.85213,-0.12461,0.97622,0.16962,,,0.76383,0.63705,0.10293,-0.01115,
4.43750,0.03176,-0.12579,-0.71273,-0.12075,0.97043,0.16816,,,0.76383,0.63705,0.10295,-0.01120,
4.44531,-0.00270,0.47495,-0.78243,-0.12800,0.97670,0.16865,,,0.76383,0.63705,0.10301,-0.01122,
4.45313,-0.20943,0.40427,-0.57333,-0.12800,0.96995,0.17060,,,0.76384,0.63703,0.10306,-0.01123,
4.46094,-0.07161,0.01556,-0.50363,-0.11881,0.97284,0.16816,,,0.76384,0.63702,0.10308,-0.01125,
4.46875,-0.03715,0.12157,-0.46878,-0.12413,0.97188,0.17745,,,0.76384,0.63702,0.10311,-0.01127,
4.47656,-0.14052,0.08623,-0.46878,-0.12365,0.97091,0.17745,,,0.76384,0.63701,0.10313,-0.01129,
4.48438,-0.17498,0.19225,-0.60818,-0.12606,0.97188,0.17745,,,0.76385,0.63700,0.10317,-0.01131,
4.49219,-0.20943,0.15691,-0.57333,-0.12413,0.97043,0.17843,,,0.76386,0.63698,0.10320,-0.01133,
4.50000,-0.07161,0.19225,-0.46878,-0.11495,0.96705,0.17501,,,0.76386,0.63697,0.10323,-0.01135,
4.50781,-0.00270,0.19225,-0.53848,-0.12993,0.96753,0.17403,,,0.76386,0.63697,0.10326,-0.01137,
4.51563,-0.00270,0.19225,-0.60818,-0.12896,0.97188,0.17892,,,0.76385,0.63697,0.10330,-0.01139,
4.52344,-0.03715,0.05090,-0.50363,-0.11930,0.97525,0.18381,,,0.76386,0.63696,0.10333,-0.01142,
4.53125,0.10067,0.40427,-0.57333,-0.12751,0.97960,0.17745,,,0.76385,0.63696,0.10337,-0.01143,
4.53906,0.06621,0.40427,-0.74758,-0.12751,0.97960,0.17696,,,0.76384,0.63696,0.10343,-0.01145,
4.54688,0.27295,-0.01978,-0.50363,-0.12365,0.97236,0.17598,,,0.76383,0.63697,0.10345,-0.01148,
4.55469,0.20404,-0.01978,-0.50363,-0.11833,0.97670,0.17158,,,0.76382,0.63698,0.10347,-0.01151,
4.56250,0.16958,0.33360,-0.53848,-0.13041,0.97332,0.17598,,,0.76381,0.63698,0.10351,-0.01152,
4.57031,0.03176,0.22758,-0.53848,-0.12316,0.96657,0.17109,,,0.76381,0.63698,0.10354,-0.01154,
4.57813,0.20404,0.15691,-0.46878,-0.12655,0.96995,0.17256,,,0.76380,0.63699,0.10357,-0.01156,
4.58594,0.23849,0.47495,-0.57333,-0.12848,0.97767,0.18137,,,0.76378,0.63700,0.10362,-0.01157,
4.59375,0.13513,-0.01978,-0.39909,-0.12123,0.97381,0.17354,,,0.76378,0.63700,0.10364,-0.01159,
4.60156,0.13513,0.01556,-0.39909,-0.12268,0.97525,0.17305,,,0.76377,0.63701,0.10365,-0.01161,
4.60938,0.16958,-0.16113,-0.32939,-0.12075,0.96995,0.17060,,,0.76376,0.63701,0.10366,-0.01164,
4.61719,0.06621,0.08623,-0.18999,-0.12316,0.97188,0.17305,,,0.76376,0.63701,0.10367,-0.01165,
4.62500,0.06621,0.08623,-0.36424,-0.12268,0.97139,0.17990,,,0.76376,0.63702,0.10369,-0.01166,
4.63281,0.34186,-0.05512,-0.25969,-0.11978,0.97381,0.17354,,,0.76374,0.63703,0.10370,-0.01168,
4.64063,0.10067,-0.05512,-0.53848,-0.12026,0.97381,0.17696,,,0.76374,0.63703,0.10372,-0.01171,
4.64844,0.10067,-0.44383,-0.36424,-0.12703,0.97091,0.17060,,,0.76374,0.63703,0.10371,-0.01175,
4.65625,0.10067,-0.01978,-0.57333,-0.11736,0.98008,0.18724,,,0.76373,0.63704,0.10374,-0.01178,
4.66406,0.10067,-0.05512,-0.32939,-0.12316,0.96995,0.17305,,,0.76373,0.63704,0.10375,-0.01180,
4.67188,0.06621,0.58096,-0.57333,-0.12945,0.97188,0.16718,,,0.76372,0.63704,0.10380,-0.01181,
4.67969,-0.24389,0.26292,-0.46878,-0.12268,0.96464,0.17109,,,0.76373,0.63702,0.10384,-0.01182,
4.68750,-0.00270,0.22758,-0.36424,-0.12655,0.96850,0.16571,,,0.76373,0.63702,0.10387,-0.01183,
4.69531,0.30741,0.58096,-0.46878,-0.12993,0.97767,0.17305,,,0.76371,0.63703,0.10392,-0.01183,
4.70313,-0.00270,0.08623,-0.60818,-0.12751,0.97477,0.17598,,,0.76371,0.63703,0.10395,-0.01186,
4.71094,0.41077,0.65164,-0.39909,-0.11978,0.97429,0.17745,,,0.76368,0.63705,0.10400,-0.01185,
4.71875,0.06621,0.86366,-0.53848,-0.11930,0.97960,0.18724,,,0.76367,0.63705,0.10407,-0.01184,
4.72656,-0.00270,0.96967,-0.39909,-0.12945,0.97525,0.17550,,,0.76367,0.63705,0.10413,-0.01182,
4.73438,0.10067,0.15691,-0.57333,-0.12123,0.96705,0.16082,,,0.76366,0.63705,0.10417,-0.01185,
4.74219,0.20404,1.00501,-0.60818,-0.12171,0.97429,0.17109,,,0.76365,0.63705,0.10424,-0.01183,
4.75000,-0.00270,0.54562,-0.64303,-0.12268,0.97332,0.17452,,,0.76364,0.63705,0.10430,-0.01184,
4.75781,0.10067,1.00501,-0.53848,-0.12268,0.96995,0.17403,,,0.76363,0.63705,0.10438,-0.01183,
4.76563,0.13513,0.68697,-0.53848,-0.11930,0.97574,0.17256,,,0.76362,0.63706,0.10444,-0.01183,
4.77344,-0.10607,0.79299,-0.64303,-0.12510,0.97284,0.17892,,,0.76362,0.63705,0.10450,-0.01183,
4.78125,-0.00270,0.93434,-0.74758,-0.12510,0.96946,0.17256,,,0.76361,0.63704,0.10459,-0.01182,
4.78906,-0.03715,0.68697,-0.46878,-0.12026,0.97622,0.17354,,,0.76361,0.63704,0.10464,-0.01182,
4.79688,-0.24389,0.40427,-0.53848,-0.12171,0.96850,0.16082,,,0.76361,0.63702,0.10469,-0.01183,
4.80469,-0.20943,0.68697,-0.46878,-0.12365,0.96946,0.17403,,,0.76362,0.63701,0.10474,-0.01182,
4.81250,-0.45062,0.89900,-0.46878,-0.12171,0.97863,0.18724,,,0.76363,0.63698,0.10481,-0.01180,
4.82031,-0.14052,0.96967,-0.46878,-0.12510,0.96657,0.16914,,,0.76363,0.63697,0.10488,-0.01178,
4.82813,-0.27834,0.72231,-0.53848,-0.13041,0.96802,0.16277,,,0.76363,0.63695,0.10494,-0.01178,
4.83594,-0.14052,0.93434,-0.60818,-0.12461,0.97429,0.17745,,,0.76363,0.63694,0.10502,-0.01177,
4.84375,-0.00270,0.58096,-0.29454,-0.12365,0.96850,0.17256,,,0.76363,0.63694,0.10506,-0.01176,
4.85156,-0.10607,0.61630,-0.36424,-0.12316,0.97718,0.17598,,,0.76363,0.63693,0.10511,-0.01175,
4.85938,-0.31280,0.40427,-0.50363,-0.12751,0.96898,0.17305,,,0.76364,0.63691,0.10515,-0.01176,
4.86719,-0.34726,0.54562,-0.53848,-0.12220,0.97718,0.17158,,,0.76365,0.63689,0.10520,-0.01176,
4.87500,-0.14052,0.61630,-0.43393,-0.11736,0.97767,0.17403,,,0.76365,0.63688,0.10525,-0.01175,
4.88281,-0.27834,0.75765,-0.50363,-0.12993,0.97815,0.17598,,,0.76366,0.63687,0.10532,-0.01174,
4.89063,-0.20943,0.68697,-0.43393,-0.12510,0.96705,0.16816,,,0.76366,0.63685,0.10537,-0.01174,
4.89844,-0.31280,0.72231,-0.46878,-0.11930,0.97670,0.17109,,,0.76367,0.63683,0.10543,-0.01173,
4.90625,-0.34726,1.07569,-0.39909,-0.12220,0.97188,0.17892,,,0.76368,0.63681,0.10550,-0.01170,
4.91406,0.06621,0.54562,-0.39909,-0.12993,0.97236,0.16473,,,0.76367,0.63681,0.10555,-0.01170,
4.92188,0.13513,0.51029,-0.46878,-0.12800,0.97284,0.16571,,,0.76366,0.63682,0.10559,-0.01170,
4.92969,0.06621,0.19225,-0.32939,-0.12220,0.97139,0.17647,,,0.76366,0.63682,0.10562,-0.01171,
4.93750,0.06621,0.65164,-0.18999,-0.12800,0.97284,0.16816,,,0.76365,0.63682,0.10566,-0.01169,
4.94531,0.03176,0.89900,-0.32939,-0.12606,0.97284,0.16620,,,0.76364,0.63682,0.10572,-0.01167,
4.95313,-0.14052,1.00501,-0.22484,-0.11978,0.96898,0.17207,,,0.76364,0.63681,0.10578,-0.01164,
4.96094,-0.20943,1.39373,-0.25969,-0.12510,0.97188,0.17158,,,0.76364,0.63680,0.10587,-0.01159,
4.96875,0.03176,1.14636,-0.18999,-0.12413,0.97091,0.17011,,,0.76363,0.63680,0.10594,-0.01155,
4.97656,-0.14052,1.04035,-0.08544,-0.12510,0.97718,0.17598,,,0.76363,0.63680,0.10599,-0.01151,
4.98438,-0.10607,0.96967,-0.05059,-0.12316,0.96898,0.17892,,,0.76362,0.63679,0.10605,-0.01147,
4.99219,0.10067,0.47495,0.01911,-0.12800,0.97188,0.16816,,,0.76362,0.63680,0.10607,-0.01144,
5.00000,-0.00270,0.43961,-0.12029,-0.12558,0.97767,0.17403,,,0.76361,0.63680,0.10610,-0.01143,
5.00781,-0.17498,0.15691,0.01911,-0.12026,0.97525,0.17403,1022.119,26.4,0.76362,0.63679,0.10611,-0.01142,
5.01563,-0.00270,0.47495,0.19335,-0.12026,0.97043,0.16669,,,0.76362,0.63679,0.10612,-0.01139,
5.02344,-0.00270,0.19225,0.19335,-0.12751,0.96946,0.16816,,,0.76361,0.63679,0.10612,-0.01137,
5.03125,-0.03715,0.08623,0.19335,-0.12413,0.96898,0.17256,,,0.76362,0.63679,0.10612,-0.01136,
5.03906,-0.17498,-0.01978,0.40245,-0.12026,0.97429,0.17011,,,0.76362,0.63678,0.10610,-0.01134,
5.04688,-0.14052,0.05090,0.47215,-0.12510,0.97139,0.17354,,,0.76363,0.63678,0.10608,-0.01131,
5.05469,-0.07161,-0.09045,0.33275,-0.12171,0.97670,0.17452,,,0.76363,0.63678,0.10606,-0.01130,
5.06250,-0.31280,-0.65586,0.36760,-0.12026,0.97043,0.17452,,,0.76365,0.63676,0.10601,-0.01130,
5.07031,-0.41617,-0.44383,0.50700,-0.12220,0.97381,0.17158,,,0.76367,0.63675,0.10597,-0.01129,
5.07813,-0.38171,-0.54984,0.36760,-0.12123,0.97043,0.16865,,,0.76369,0.63673,0.10593,-0.01129,
5.08594,-0.45062,-0.69119,0.15850,-0.11736,0.97188,0.17452,,,0.76372,0.63671,0.10588,-0.01131,
5.09375,-0.48508,-0.58518,0.22820,-0.10915,0.97236,0.17501,,,0.76375,0.63668,0.10584,-0.01132,
5.10156,-0.24389,-0.01978,0.01911,-0.12026,0.97670,0.17843,,,0.76376,0.63667,0.10584,-0.01132,
5.10938,-0.34726,-0.16113,-0.08544,-0.12026,0.97139,0.17452,,,0.76377,0.63665,0.10584,-0.01133,
5.11719,-0.14052,-0.37315,0.01911,-0.12268,0.96416,0.16326,,,0.76378,0.63664,0.10582,-0.01134,
5.12500,-0.17498,-0.30248,-0.29454,-0.11591,0.97574,0.17060,,,0.76379,0.63663,0.10581,-0.01137,
5.13281,-0.20943,-0.40849,-0.18999,-0.12365,0.96657,0.17060,,,0.76380,0.63662,0.10580,-0.01140,
5.14063,-0.24389,-0.26714,-0.22484,-0.11978,0.96995,0.16522,,,0.76381,0.63660,0.10580,-0.01142,
5.14844,-0.45062,-0.19647,-0.29454,-0.12461,0.97091,0.17892,,,0.76384,0.63658,0.10580,-0.01144,
5.15625,-0.20943,-0.01978,-0.32939,-0.12606,0.97139,0.17060,,,0.76384,0.63656,0.10581,-0.01146,
5.16406,-0.20943,-0.01978,-0.36424,-0.12751,0.97525,0.17794,,,0.76385,0.63655,0.10583,-0.01147,
5.17188,-0.17498,-0.30248,-0.08544,-0.11930,0.97091,0.17745,,,0.76386,0.63654,0.10582,-0.01149,
5.17969,-0.03715,-0.37315,-0.15514,-0.12075,0.97236,0.16914,,,0.76387,0.63654,0.10580,-0.01151,
5.18750,-0.20943,-0.40849,-0.25969,-0.12945,0.97863,0.18137,,,0.76388,0.63652,0.10579,-0.01154,
5.19531,-0.79518,-0.58518,-0.05059,-0.12123,0.96753,0.16865,,,0.76392,0.63648,0.10577,-0.01157,
5.20313,-0.79518,-1.11525,0.15850,-0.10915,0.97043,0.18528,,,0.76396,0.63644,0.10570,-0.01160,
5.21094,-1.10529,0.26292,0.01911,-0.13428,0.96753,0.16620,,,0.76401,0.63638,0.10571,-0.01158,
5.21875,-1.17420,-1.04457,-0.08544,-0.12461,0.97043,0.18430,,,0.76406,0.63632,0.10566,-0.01162,
5.22656,-0.65736,-0.69119,0.22820,-0.11301,0.97429,0.17745,,,0.76410,0.63629,0.10562,-0.01163,
5.23438,-1.07083,-0.05512,-0.05059,-0.11543,0.96898,0.17501,,,0.76415,0.63623,0.10562,-0.01163,
5.24219,-1.17420,-0.93856,-0.01574,-0.12655,0.97960,0.18430,,,0.76420,0.63617,0.10557,-0.01166,
5.25000,-1.44984,-1.32727,0.40245,-0.11688,0.97622,0.17060,,,0.76428,0.63610,0.10549,-0.01169,
5.25781,-1.41539,-0.65586,0.43730,-0.12510,0.98153,0.17598,,,0.76434,0.63603,0.10543,-0.01169,
5.26563,-1.96668,-0.09045,0.78579,-0.12703,0.97960,0.17745,,,0.76443,0.63593,0.10540,-0.01164,
5.27344,-2.17342,-0.51451,1.62218,-0.13379,0.97236,0.16914,,,0.76453,0.63583,0.10530,-0.01156,
5.28125,-2.17342,-0.62052,1.93582,-0.13234,0.97429,0.17109,,,0.76463,0.63573,0.10519,-0.01147,
5.28906,-2.20787,0.08623,2.84190,-0.14249,0.97863,0.17843,,,0.76473,0.63563,0.10507,-0.01130,
5.29688,-2.20787,-1.29193,3.39949,-0.13621,0.97718,0.17011,,,0.76483,0.63554,0.10486,-0.01116,
5.30469,-2.27679,-1.04457,4.47982,-0.14056,0.97574,0.18577,,,0.76494,0.63545,0.10461,-0.01096,
5.31250,-2.24233,-2.45808,6.15259,-0.14056,0.96898,0.18137,,,0.76506,0.63538,0.10422,-0.01073,
5.32031,-2.20787,-2.21071,6.81473,-0.13863,0.97236,0.18577,,,0.76518,0.63531,0.10381,-0.01045,
5.32813,-1.93223,-3.65955,8.06931,-0.13814,0.97043,0.18626,,,0.76529,0.63526,0.10327,-0.01018,
5.33594,-1.72549,-5.28509,9.56783,-0.14153,0.96850,0.18381,,,0.76541,0.63524,0.10258,-0.00989,
5.34375,-1.86332,-6.02718,10.36936,-0.13089,0.96705,0.17745,,,0.76554,0.63521,0.10182,-0.00960,
5.35156,-2.03559,-6.80460,11.93759,-0.13186,0.96802,0.17501,,,0.76568,0.63518,0.10095,-0.00926,
5.35938,-2.03559,-8.92486,13.74975,-0.14781,0.98249,0.16326,,,0.76584,0.63516,0.09989,-0.00891,
5.36719,-1.93223,-9.98499,14.58614,-0.14829,0.98394,0.15886,,,0.76600,0.63515,0.09873,-0.00857,
5.37500,-1.79440,-11.43383,16.46800,-0.12655,0.99215,0.15984,,,0.76617,0.63516,0.09743,-0.00819,
5.38281,-1.89777,-12.14059,18.48926,-0.12896,0.98298,0.16816,,,0.76634,0.63518,0.09599,-0.00774,
5.39063,-2.03559,-13.48342,19.29080,-0.13814,0.97670,0.16033,,,0.76652,0.63519,0.09445,-0.00730,
5.39844,-2.31124,-14.57888,20.99842,-0.13476,0.97815,0.16424,,,0.76673,0.63520,0.09278,-0.00682,
5.40625,-2.96590,-16.55779,23.36817,-0.12896,0.97718,0.15690,,,0.76697,0.63518,0.09091,-0.00630,
5.41406,-3.03482,-17.33522,24.41365,-0.11978,0.97960,0.15641,,,0.76722,0.63517,0.08894,-0.00575,
5.42188,-3.37937,-18.67805,26.99251,-0.12026,0.98973,0.15103,,,0.76748,0.63514,0.08680,-0.00513,
5.42969,-4.20632,-19.49081,29.29256,-0.11253,0.99118,0.15984,,,0.76779,0.63509,0.08451,-0.00442,
5.43750,-4.27523,-19.80885,30.72139,-0.11156,0.98539,0.16424,,,0.76810,0.63503,0.08215,-0.00364,
5.44531,-4.41305,-20.12689,33.02144,-0.10432,0.97912,0.15739,,,0.76841,0.63498,0.07966,-0.00276,
5.45313,-4.13740,-20.55094,35.07756,-0.10577,0.98249,0.16326,,,0.76870,0.63495,0.07707,-0.00179,
5.46094,-4.30968,-21.04567,36.05334,-0.12075,0.98346,0.17109,,,0.76900,0.63491,0.07440,-0.00079,
5.46875,-5.68792,-23.09525,38.28370,-0.12993,0.99745,0.18137,,,0.76936,0.63480,0.07154,0.00025,
5.47656,-5.03326,-24.19072,39.08523,-0.11011,1.01000,0.18283,,,0.76969,0.63472,0.06858,0.00128,
5.48438,-5.68792,-25.56889,40.27011,-0.06711,1.01483,0.19360,,,0.77005,0.63461,0.06549,0.00231,
5.49219,-6.13585,-24.33207,40.65345,-0.06421,0.98684,0.18626,,,0.77041,0.63447,0.06245,0.00342,
5.50000,-6.48040,-23.83734,40.68830,-0.05986,0.96753,0.18822,,,0.77078,0.63430,0.05944,0.00455,
5.50781,-5.06771,-27.47712,40.20041,-0.02120,0.93858,0.19262,,,0.77110,0.63421,0.05625,0.00550,
5.51563,-6.51486,-26.48766,38.91098,0.01312,0.93327,0.23470,,,0.77146,0.63402,0.05318,0.00642,
5.52344,-6.61823,-25.18017,37.83065,0.00925,0.93279,0.24840,,,0.77182,0.63382,0.05021,0.00735,
5.53125,-4.72315,-26.59368,35.53060,0.00780,0.94533,0.24840,,,0.77209,0.63370,0.04728,0.00808,
5.53906,-2.48352,-27.15908,32.95175,0.06241,0.95933,0.23616,,,0.77226,0.63369,0.04442,0.00865,
5.54688,-1.58767,-25.32152,31.66232,0.07159,0.95692,0.23323,,,0.77239,0.63371,0.04172,0.00923,
5.55469,0.34186,-22.45917,28.56073,0.08319,0.94196,0.23421,,,0.77242,0.63382,0.03930,0.00976,
5.56250,1.16880,-20.30358,25.21519,0.05661,0.93761,0.25378,,,0.77240,0.63396,0.03714,0.01021,
5.57031,1.72010,-19.95020,23.54242,0.04549,0.94871,0.24252,,,0.77236,0.63413,0.03508,0.01058,
5.57813,3.20170,-20.86898,19.95294,0.02036,0.95547,0.24252,,,0.77226,0.63436,0.03312,0.01073,
5.58594,5.09677,-25.49821,16.67710,0.05226,0.94196,0.21904,,,0.77208,0.63468,0.03106,0.01049,
5.59375,5.75144,-25.74557,14.83008,0.06579,0.94582,0.21904,,,0.77187,0.63503,0.02906,0.01014,
5.60156,6.06154,-24.19072,11.24060,0.10397,0.95016,0.21023,,,0.77165,0.63539,0.02731,0.00968,
5.60938,7.02630,-20.48027,7.72081,0.09334,0.94630,0.21659,,,0.77138,0.63579,0.02590,0.00918,
5.61719,7.47423,-19.17277,5.42076,0.10107,0.95209,0.22491,,,0.77108,0.63620,0.02466,0.00862,
5.62500,7.68097,-17.97130,2.66766,0.08899,0.96464,0.22638,,,0.77078,0.63662,0.02361,0.00797,
5.63281,7.47423,-17.22920,1.27368,0.07256,0.97912,0.22687,,,0.77048,0.63702,0.02265,0.00728,
5.64063,7.92216,-17.08785,-1.02637,0.04936,0.97188,0.22246,,,0.77016,0.63744,0.02180,0.00647,
5.64844,7.85324,-16.59313,-2.90824,0.03921,0.97863,0.19898,,,0.76985,0.63786,0.02106,0.00559,
5.65625,7.50869,-16.23975,-4.05827,0.03583,0.99070,0.17354,,,0.76954,0.63825,0.02039,0.00466,
5.66406,6.99185,-16.94650,-5.94013,0.02326,1.01483,0.10455,,,0.76926,0.63862,0.01976,0.00360,
5.67188,4.51102,-16.38110,-7.43865,0.03873,1.02062,0.09183,,,0.76909,0.63885,0.01922,0.00249,
5.67969,3.64963,-15.39165,-7.99624,0.04984,1.01724,0.10553,,,0.76895,0.63903,0.01876,0.00139,
5.68750,1.13435,-12.10525,-9.45992,0.06386,1.00180,0.10896,,,0.76892,0.63908,0.01854,0.00037,
5.69531,0.37632,-9.06621,-11.58573,0.05226,0.98346,0.13538,,,0.76891,0.63908,0.01857,-0.00063,
5.70313,0.30741,-7.37001,-12.63121,0.02810,0.97574,0.15250,,,0.76891,0.63908,0.01874,-0.00162,
5.71094,0.47969,-7.29933,-13.46759,0.01022,0.97912,0.16914,,,0.76890,0.63909,0.01894,-0.00264,
5.71875,0.61751,-9.17223,-13.78124,-0.00960,0.98684,0.19556,,,0.76888,0.63910,0.01906,-0.00377,
5.72656,0.51414,-10.69174,-13.92063,0.00538,0.96319,0.17550,,,0.76886,0.63911,0.01910,-0.00496,
5.73438,2.34030,-12.63531,-14.47822,0.02568,0.98153,0.17256,,,0.76877,0.63921,0.01907,-0.00627,
5.74219,2.65041,-12.38795,-14.30398,0.00973,0.98346,0.17843,,,0.76867,0.63932,0.01905,-0.00757,
5.75000,2.68486,-12.49396,-14.30398,0.02133,0.98828,0.18528,,,0.76856,0.63944,0.01901,-0.00886,
5.75781,2.61595,-11.08046,-15.17521,0.03245,0.97622,0.19507,,,0.76845,0.63955,0.01909,-0.01015,
5.76563,5.33796,-8.11210,-15.41916,-0.00718,0.97622,0.20877,,,0.76822,0.63980,0.01933,-0.01131,
5.77344,5.37242,-8.35946,-15.62825,0.01312,0.97960,0.18283,,,0.76798,0.64005,0.01957,-0.01250,
5.78125,6.02708,-7.79406,-15.17521,-0.01975,0.97429,0.21268,,,0.76771,0.64034,0.01982,-0.01365,
5.78906,5.88926,-7.47602,-14.75702,0.01022,0.98153,0.18724,,,0.76745,0.64062,0.02007,-0.01475,
5.79688,5.95817,-7.58203,-14.26913,0.00587,0.98298,0.19066,,,0.76719,0.64091,0.02029,-0.01584,
5.80469,6.57838,-5.53245,-13.01455,0.01167,0.98201,0.18675,,,0.76689,0.64123,0.02056,-0.01677,
5.81250,5.64807,-3.48287,-12.77061,0.04066,0.96657,0.17452,,,0.76664,0.64150,0.02093,-0.01760,
5.82031,6.99185,1.42906,-11.75997,0.02520,0.97525,0.16326,,,0.76631,0.64185,0.02151,-0.01816,
5.82813,6.92294,8.00186,-11.06299,0.01698,0.98491,0.14663,,,0.76599,0.64220,0.02241,-0.01840,
5.83594,6.02708,11.46495,-10.43570,0.01167,0.97767,0.14223,,,0.76569,0.64252,0.02345,-0.01845,
5.84375,4.92449,15.63479,-7.82200,-0.01830,0.98684,0.13391,,,0.76544,0.64278,0.02461,-0.01818,
5.85156,2.99496,16.87161,-5.41739,-0.04488,0.99215,0.12999,,,0.76527,0.64295,0.02572,-0.01773,
5.85938,1.89238,15.21074,-3.70977,-0.05502,0.99890,0.11189,,,0.76516,0.64306,0.02668,-0.01726,
5.86719,-0.10607,13.44386,-0.01574,-0.05647,1.00469,0.13489,,,0.76514,0.64307,0.02738,-0.01667,
5.87500,-2.03559,11.39428,3.95708,-0.07339,0.98635,0.15054,,,0.76521,0.64298,0.02780,-0.01596,
5.88281,-2.86254,11.07624,5.80410,-0.08160,0.98249,0.14320,,,0.76532,0.64286,0.02813,-0.01517,
5.89063,-4.41305,8.39058,9.84662,-0.12220,0.98684,0.13831,,,0.76551,0.64265,0.02814,-0.01428,
5.89844,-4.75761,2.48919,13.64520,-0.12606,1.00517,0.15005,,,0.76572,0.64243,0.02767,-0.01345,
5.90625,-4.61979,-0.83254,15.70132,-0.11833,1.01531,0.15984,,,0.76594,0.64222,0.02695,-0.01266,
5.91406,-3.34492,-7.54669,19.88324,-0.09852,1.02930,0.15103,,,0.76612,0.64208,0.02569,-0.01194,
5.92188,-2.41461,-12.70599,23.40302,-0.06421,1.03847,0.14027,,,0.76626,0.64198,0.02400,-0.01127,
5.92969,-2.03559,-15.14428,24.90154,-0.04729,1.03558,0.15054,,,0.76639,0.64190,0.02212,-0.01063,
5.93750,-2.58689,-15.53300,26.81826,-0.03569,1.03606,0.16620,,,0.76655,0.64179,0.02014,-0.00990,
5.94531,-3.72393,-16.23975,28.21223,0.00828,0.99504,0.13097,,,0.76675,0.64163,0.01806,-0.00914,
5.95313,-3.89621,-17.05252,28.31678,0.03003,0.98925,0.13244,,,0.76696,0.64144,0.01593,-0.00840,
5.96094,-4.82652,-15.46232,28.80467,0.07159,0.97960,0.14125,,,0.76720,0.64121,0.01386,-0.00756,
5.96875,-5.99802,-8.92486,28.45618,0.07980,0.96705,0.16277,,,0.76748,0.64092,0.01215,-0.00646,
5.97656,-6.37704,-5.63846,27.82889,0.06966,0.98008,0.17843,,,0.76778,0.64061,0.01065,-0.00524,
5.98438,-7.92755,-2.84679,27.89859,0.04936,1.02641,0.17256,,,0.76813,0.64021,0.00928,-0.00390,
5.99219,-9.09905,-2.35206,28.28193,0.02761,1.03220,0.14076,,,0.76854,0.63975,0.00793,-0.00252,
6.00000,-10.58065,-0.69119,29.81530,-0.01153,1.07032,0.11091,,,0.76900,0.63921,0.00659,-0.00098,
6.00781,-11.54542,-3.05881,33.75328,-0.04294,1.07998,0.06492,1022.087,26.4,0.76951,0.63862,0.00496,0.00066,
6.01563,-11.75215,-5.63846,35.94879,-0.05841,1.09590,0.03606,,,0.77002,0.63801,0.00310,0.00231,
6.02344,-12.44127,-8.28878,41.45499,-0.16327,1.12437,0.04046,,,0.77055,0.63737,0.00086,0.00413,
6.03125,-10.89076,-19.56149,48.91275,-0.06952,1.06791,-0.09311,,,0.77101,0.63680,-0.00230,0.00585,
6.03906,-8.61667,-28.46657,53.96590,-0.04053,1.05826,-0.08381,,,0.77135,0.63634,-0.00614,0.00745,
6.04688,-7.75527,-30.05677,60.79638,-0.13089,1.07370,-0.05984,,,0.77163,0.63592,-0.01036,0.00933,
6.05469,-0.58845,-48.22031,67.45260,-0.12848,1.04813,-0.14154,,,0.77157,0.63586,-0.01582,0.01079,
6.06250,3.58071,-56.41864,70.10116,-0.06227,1.11955,-0.12197,,,0.77128,0.63600,-0.02182,0.01204,
6.07031,8.61127,-56.24195,74.21338,0.08367,1.17360,-0.04956,,,0.77075,0.63638,-0.02799,0.01351,
6.07813,9.61049,-44.33317,78.74379,0.24653,1.12389,0.02921,,,0.77016,0.63676,-0.03373,0.01575,
6.08594,8.05998,-30.94021,82.40298,0.29340,1.07322,0.01013,,,0.76964,0.63702,-0.03892,0.01875,
6.09375,9.05920,2.02980,79.82412,0.24653,1.12244,0.12314,,,0.76913,0.63727,-0.04227,0.02305,
6.10156,7.09522,26.16541,81.94994,0.41180,1.04668,0.07618,,,0.76876,0.63736,-0.04445,0.02850,
6.10938,5.92371,41.46660,84.49394,0.29002,1.01241,0.08498,,,0.76845,0.63732,-0.04593,0.03475,
6.11719,7.23304,60.65493,81.53174,0.13635,1.02303,0.13391,,,0.76811,0.63728,-0.04628,0.04168,
6.12500,7.16413,61.04365,80.06807,0.09430,1.07129,0.21659,,,0.76775,0.63722,-0.04654,0.04855,
6.13281,6.09599,60.23088,78.46500,-0.03666,1.15333,0.18773,,,0.76740,0.63707,-0.04678,0.05529,
6.14063,5.57916,46.09583,69.50872,-0.03376,1.45591,0.18724,,,0.76703,0.63696,-0.04736,0.06094,
6.14844,2.85714,40.61850,66.68592,0.03921,1.57366,0.19262,,,0.76674,0.63671,-0.04812,0.06620,
6.15625,-2.20787,29.55782,66.92986,0.18274,1.68273,0.06492,,,0.76662,0.63624,-0.04949,0.07097,
6.16406,-3.51720,21.14746,71.49513,0.28325,1.68128,-0.11072,,,0.76649,0.63570,-0.05150,0.07562,
6.17188,-5.99802,18.67383,73.48154,0.38522,1.56160,-0.19585,,,0.76643,0.63503,-0.05374,0.08024,
6.17969,-7.20398,28.63904,73.58609,0.43693,1.28701,-0.24771,,,0.76643,0.63422,-0.05547,0.08530,
6.18750,-1.58767,41.71396,69.64811,0.46496,1.27349,-0.18411,,,0.76624,0.63362,-0.05631,0.09074,
6.19531,-1.79440,39.27567,71.04209,0.44370,1.27349,-0.24967,,,0.76601,0.63300,-0.05734,0.09614,
6.20313,2.40921,49.20554,67.24351,0.01022,1.11279,-0.53344,,,0.76565,0.63254,-0.05765,0.10178,
6.21094,12.57370,66.59166,46.22935,-0.36141,0.93713,-0.48794,,,0.76503,0.63254,-0.05608,0.10711,
6.21875,19.39597,70.26677,32.39416,0.04453,1.09108,-0.34067,,,0.76422,0.63291,-0.05367,0.11190,
6.22656,23.04829,88.64234,30.65169,-0.07242,1.05633,-0.33138,,,0.76329,0.63331,-0.05020,0.11740,
6.23438,22.32472,90.51523,16.85134,-0.44308,0.84110,-0.23059,,,0.76249,0.63367,-0.04603,0.12226,
6.24219,29.25035,82.42291,10.40421,-0.52958,0.79139,-0.19879,,,0.76138,0.63446,-0.04195,0.12645,
6.25000,42.17131,51.21979,2.28431,-0.58177,0.64372,-0.17775,,,0.75968,0.63620,-0.03903,0.12890,
6.25781,55.23009,17.43701,-7.96139,-0.57887,0.63117,-0.16894,,,0.75739,0.63892,-0.03729,0.12939,
6.26563,61.67334,-0.30248,-13.18880,-0.48270,0.62876,-0.16748,,,0.75481,0.64214,-0.03618,0.12885,
6.27344,71.28653,-26.16963,-21.34355,-0.33773,0.58002,-0.17481,,,0.75180,0.64608,-0.03597,0.12678,
6.28125,78.69455,-45.25195,-30.36953,-0.28215,0.55589,-0.17286,,,0.74847,0.65057,-0.03627,0.12342,
6.28906,81.86449,-51.68340,-36.64241,-0.23818,0.54913,-0.16943,,,0.74500,0.65526,-0.03659,0.11946,
6.29688,87.44634,-61.78996,-48.38664,-0.22465,0.53417,-0.12540,,,0.74131,0.66030,-0.03685,0.11445,
6.30469,91.82224,-70.76572,-60.86271,-0.16956,0.57085,-0.09066,,,0.73745,0.66562,-0.03697,0.10842,
6.31250,92.40799,-72.95665,-66.40376,-0.14394,0.53079,-0.07892,,,0.73353,0.67094,-0.03694,0.10199,
6.32031,94.13078,-73.31003,-79.08892,-0.07194,0.54768,-0.03978,,,0.72955,0.67633,-0.03633,0.09492,
6.32813,94.75099,-70.90707,-84.87392,-0.04536,0.54382,-0.03880,,,0.72552,0.68168,-0.03533,0.08766,
6.33594,95.02664,-61.29523,-97.14089,-0.03763,0.55203,-0.01874,,,0.72150,0.68694,-0.03328,0.08023,
6.34375,95.26783,-51.11799,-108.95482,-0.03618,0.57760,0.01306,,,0.71748,0.69212,-0.03017,0.07269,
6.35156,95.71575,-48.00828,-115.19285,0.00055,0.60994,0.01649,,,0.71340,0.69724,-0.02660,0.06498,
6.35938,95.26783,-38.32577,-126.58859,0.04453,0.66447,0.02285,,,0.70931,0.70222,-0.02203,0.05717,
6.36719,93.61394,-23.73133,-136.41611,0.03534,0.67316,0.02921,,,0.70528,0.70700,-0.01628,0.04957,
6.37500,93.82068,-16.62847,-141.36472,0.01650,0.69632,0.03557,,,0.70117,0.71168,-0.00994,0.04208,
6.38281,95.26783,-8.74817,-149.72856,0.03148,0.74940,0.02480,,,0.69692,0.71631,-0.00282,0.03456,
6.39063,95.09555,-2.28139,-156.69843,0.11798,0.81504,0.01795,,,0.69259,0.72080,0.00494,0.02701,
6.39844,95.75021,2.45386,-159.38183,0.15326,0.85557,0.03019,,,0.68813,0.72521,0.01307,0.01958,
6.40625,96.30150,15.91749,-164.43499,0.23831,0.94871,0.03850,,,0.68351,0.72950,0.02207,0.01256,
6.41406,94.06187,33.69232,-167.91992,0.27697,1.06453,0.07862,,,0.67887,0.73353,0.03207,0.00627,
6.42188,91.89115,40.61850,-167.95477,0.26682,1.10024,0.11727,,,0.67420,0.73734,0.04238,0.00033,
6.42969,89.20359,47.61535,-166.24715,0.28760,1.19145,0.20436,,,0.66952,0.74089,0.05292,-0.00517,
6.43750,85.93028,46.48454,-162.55312,0.28809,1.25950,0.28509,,,0.66490,0.74418,0.06322,-0.01055,
6.44531,84.93106,42.66808,-160.07882,0.29969,1.31113,0.30662,,,0.66024,0.74731,0.07321,-0.01601,
6.45313,80.62408,33.72766,-153.21350,0.37266,1.38111,0.34820,,,0.65575,0.75015,0.08244,-0.02159,
6.46094,76.00699,24.39852,-143.97842,0.45046,1.38738,0.33108,,,0.65148,0.75273,0.09077,-0.02720,
6.46875,73.93963,21.00611,-139.13436,0.46641,1.39848,0.30417,,,0.64726,0.75515,0.09870,-0.03275,
6.47656,68.49560,16.76560,-128.99320,0.47462,1.40427,0.25818,,,0.64330,0.75730,0.10592,-0.03804,
6.48438,66.18706,15.21074,-123.73094,0.47946,1.39269,0.24791,,,0.63942,0.75931,0.11280,-0.04315,
6.49219,61.81116,13.09048,-112.50945,0.47994,1.36518,0.20045,,,0.63577,0.76115,0.11900,-0.04785,
6.50000,54.64434,7.11842,-100.62582,0.48960,1.33864,0.10602,,,0.63253,0.76270,0.12435,-0.05228,
6.50781,51.99123,9.20334,-95.25902,0.45529,1.31162,0.16473,,,0.62939,0.76415,0.12951,-0.05635,
6.51563,53.02491,1.71177,-83.06175,0.51280,1.34588,0.09721,,,0.62628,0.76568,0.13370,-0.06029,
6.52344,49.88943,11.60630,-72.78119,0.59302,1.33430,0.10357,,,0.62326,0.76718,0.13778,-0.06324,
6.53125,48.09772,17.82572,-67.30984,0.59592,1.30920,0.12559,,,0.62028,0.76865,0.14185,-0.06562,
6.53906,43.68737,28.95708,-56.50654,0.56016,1.26915,0.14859,,,0.61745,0.77007,0.14583,-0.06691,
6.54688,39.44929,32.63219,-45.11080,0.53600,1.26722,0.17745,,,0.61485,0.77142,0.14939,-0.06748,
6.55469,37.45085,31.74875,-38.94247,0.51522,1.28749,0.21464,,,0.61237,0.77273,0.15260,-0.06782,
6.56250,31.00760,27.33155,-25.31637,0.49879,1.28218,0.26797,,,0.61033,0.77389,0.15492,-0.06776,
6.57031,22.32472,14.71601,-10.67964,0.49395,1.21220,0.28900,,,0.60895,0.77477,0.15599,-0.06766,
6.57813,18.08664,6.41167,-2.97794,0.55291,1.19676,0.28215,,,0.60792,0.77552,0.15633,-0.06763,
6.58594,13.71075,-9.70229,14.30734,0.62733,1.22958,0.26943,,,0.60736,0.77619,0.15511,-0.06770,
6.59375,10.02397,-22.67120,31.38352,0.68581,1.22330,0.24106,,,0.60722,0.77683,0.15246,-0.06770,
6.60156,8.12889,-26.02828,38.73674,0.67856,1.20352,0.23714,,,0.60723,0.77744,0.14929,-0.06756,
6.60938,3.78745,-34.15593,52.64163,0.62395,1.17408,0.22980,,,0.60762,0.77797,0.14506,-0.06722,
6.61719,-0.76073,-47.47822,66.61622,0.61090,1.12293,0.20143,,,0.60843,0.77837,0.13956,-0.06697,
6.62500,-2.10451,-53.13224,72.50576,0.61912,1.10266,0.19898,,,0.60937,0.77871,0.13351,-0.06676,
6.63281,-5.10217,-60.05841,83.06511,0.62443,1.04330,0.21855,,,0.61055,0.77896,0.12662,-0.06644,
6.64063,-7.06615,-59.74038,90.10468,0.26779,0.98877,0.06003,,,0.61183,0.77915,0.11938,-0.06580,
6.64844,-7.10061,-62.70874,89.23345,0.27891,0.97332,-0.16063,,,0.61310,0.77928,0.11205,-0.06535,
6.65625,-5.37782,-60.37645,85.36517,0.27987,1.15574,-0.26337,,,0.61421,0.77942,0.10501,-0.06494,
6.66406,-10.95967,-52.39015,89.58194,0.11315,1.09059,-0.49773,,,0.61555,0.77935,0.09810,-0.06389,
6.67188,-22.29566,12.73711,78.88319,-0.65523,1.16877,-0.23989,,,0.61699,0.77899,0.09454,-0.05976,
6.67969,-26.63710,32.73821,65.53589,-1.11190,0.96416,-0.03440,,,0.61845,0.77841,0.09255,-0.05509,
6.68750,-17.50629,7.18910,64.56011,-0.81373,1.09928,0.01355,,,0.61957,0.77810,0.08949,-0.05188,
6.69531,-15.92132,-21.36371,77.73316,-0.00670,1.48680,0.18528,,,0.62081,0.77781,0.08452,-0.04963,
6.70313,-22.39902,-37.54834,94.25176,0.27166,1.55532,0.19702,,,0.62252,0.77726,0.07800,-0.04750,
6.71094,-16.71380,-54.12169,101.98831,0.38377,1.46846,-0.04712,,,0.62401,0.77689,0.07035,-0.04595,
6.71875,-4.58533,-66.13649,113.97649,0.45674,1.38787,-0.38520,,,0.62490,0.77700,0.06151,-0.04458,
6.72656,1.23771,-45.14593,118.26296,0.37797,1.33816,-0.40672,,,0.62536,0.77739,0.05332,-0.04193,
6.73438,-1.27757,-28.57258,118.95995,0.30645,1.20641,-0.30496,,,0.62585,0.77765,0.04579,-0.03837,
6.74219,-4.37859,-0.05512,114.95227,0.13828,0.89804,-0.15916,,,0.62636,0.77780,0.03971,-0.03345,
6.75000,-1.55321,5.21019,104.28837,0.36589,0.81407,-0.20417,,,0.62665,0.77801,0.03440,-0.02871,
6.75781,1.44445,6.19964,99.86250,0.49395,0.86764,-0.20417,,,0.62674,0.77830,0.02936,-0.02412,
6.76563,3.20170,17.79039,94.18206,0.47221,1.06791,-0.19292,,,0.62668,0.77864,0.02512,-0.01915,
6.77344,5.02786,27.11952,85.81821,0.13973,1.01724,-0.26924,,,0.62646,0.77902,0.02171,-0.01405,
6.78125,5.33796,28.95708,79.61503,-0.00428,1.07660,-0.25897,,,0.62620,0.77938,0.01872,-0.00912,
6.78906,-0.55399,18.70917,76.86193,0.15471,1.11086,-0.17041,,,0.62625,0.77946,0.01543,-0.00485,
6.79688,-4.89543,18.35579,79.12714,0.18419,1.06453,-0.16894,,,0.62650,0.77932,0.01201,-0.00049,
6.80469,-5.86020,19.55727,75.11946,0.15133,1.02207,-0.20123,,,0.62679,0.77913,0.00885,0.00377,
6.81250,-4.61979,17.71971,68.14959,0.14504,0.98394,-0.24282,,,0.62700,0.77896,0.00599,0.00762,
6.82031,-7.37626,19.30991,59.71605,0.23541,1.06067,-0.18705,,,0.62735,0.77865,0.00364,0.01120,
6.82813,-6.85942,19.20389,58.11298,0.22816,1.02544,-0.20955,,,0.62766,0.77835,0.00137,0.01471,
6.83594,-6.75605,25.45865,53.12952,0.07932,1.02544,-0.14301,,,0.62796,0.77803,-0.00037,0.01834,
6.84375,-5.23999,21.85421,50.96886,0.17114,0.99890,-0.11464,,,0.62817,0.77777,-0.00214,0.02168,
6.85156,-0.69182,16.76560,47.86727,0.14069,0.99697,-0.09360,,,0.62813,0.77771,-0.00396,0.02462,
6.85938,1.72010,9.13267,42.39592,0.07884,0.97525,-0.11512,,,0.62797,0.77775,-0.00582,0.02692,
6.86719,3.40844,4.57411,39.74737,0.15713,1.00566,-0.12687,,,0.62772,0.77787,-0.00772,0.02886,
6.87500,3.30507,3.69067,36.54123,0.23783,0.99118,-0.12246,,,0.62747,0.77798,-0.00950,0.03063,
6.88281,5.47579,5.10418,31.69717,0.18564,0.95740,-0.17335,,,0.62712,0.77818,-0.01095,0.03226,
6.89063,5.57916,4.96283,28.80467,0.17501,0.93423,-0.18264,,,0.62676,0.77838,-0.01225,0.03376,
6.89844,7.12967,2.55987,25.63338,0.30693,0.95016,-0.25016,,,0.62632,0.77866,-0.01349,0.03499,
6.90625,4.40766,10.22813,21.66056,0.19337,0.96512,-0.20319,,,0.62605,0.77880,-0.01419,0.03647,
6.91406,4.02864,10.79354,19.70899,0.19385,0.92989,-0.21689,,,0.62579,0.77893,-0.01477,0.03789,
6.92188,5.16569,11.85367,16.99074,0.14794,0.97236,-0.18264,,,0.62549,0.77910,-0.01515,0.03924,
6.92969,4.95895,5.42222,15.35282,0.23251,0.96657,-0.22032,,,0.62519,0.77928,-0.01572,0.04019,
6.93750,4.06310,6.30566,14.83008,0.18080,0.97912,-0.18656,,,0.62494,0.77942,-0.01623,0.04117,
6.94531,3.89082,4.36209,12.87852,0.19820,0.94582,-0.25016,,,0.62470,0.77956,-0.01672,0.04195,
6.95313,2.85714,5.74026,12.91337,0.30838,0.97718,-0.23353,,,0.62452,0.77965,-0.01715,0.04281,
6.96094,2.06466,8.88530,12.87852,0.21125,0.93906,-0.21885,,,0.62438,0.77970,-0.01745,0.04383,
6.96875,2.61595,8.07254,10.99665,0.18950,0.91927,-0.23793,,,0.62421,0.77977,-0.01769,0.04473,
6.97656,1.40999,10.86421,8.80114,0.15423,0.94871,-0.21738,,,0.62413,0.77979,-0.01769,0.04569,
6.98438,1.65119,10.29881,7.75566,0.20787,0.95113,-0.21787,,,0.62403,0.77981,-0.01766,0.04657,
6.99219,0.47969,12.48974,7.86021,0.09672,0.97139,-0.18313,,,0.62399,0.77979,-0.01754,0.04757,
7.00000,0.06621,13.65588,6.50109,0.07401,0.93423,-0.22863,,,0.62398,0.77974,-0.01731,0.04857,
7.00781,2.47813,6.65903,7.26777,0.23396,0.99456,-0.25065,1022.111,26.5,0.62383,0.77981,-0.01740,0.04924,
7.01563,0.34186,13.37318,7.37232,0.13296,0.97525,-0.20808,,,0.62381,0.77977,-0.01722,0.05026,
7.02344,1.37554,12.27772,7.72081,0.12958,0.94678,-0.21298,,,0.62372,0.77978,-0.01711,0.05124,
7.03125,2.20248,12.20704,9.63753,0.14311,0.97718,-0.19096,,,0.62358,0.77982,-0.01709,0.05231,
7.03906,1.78901,11.74765,12.14668,0.19385,1.00373,-0.22765,,,0.62346,0.77984,-0.01723,0.05345,
7.04688,0.78979,15.24608,13.19216,0.12716,0.98394,-0.23401,,,0.62339,0.77980,-0.01728,0.05482,
7.05469,0.30741,16.34154,14.89978,0.14359,0.96271,-0.19585,,,0.62333,0.77973,-0.01738,0.05632,
7.06250,0.58305,14.82203,17.96652,0.20352,0.97236,-0.23108,,,0.62325,0.77968,-0.01770,0.05788,
7.07031,-0.34726,17.47235,19.25595,0.11025,0.98780,-0.17481,,,0.62321,0.77957,-0.01799,0.05962,
7.07813,-1.20865,16.87161,21.31206,0.11073,0.94051,-0.25995,,,0.62321,0.77942,-0.01841,0.06142,
7.08594,-1.96668,16.55357,23.92576,0.17162,0.99794,-0.22619,,,0.62323,0.77924,-0.01898,0.06332,
7.09375,-2.72471,17.01296,25.49398,0.20738,1.01000,-0.22472,,,0.62329,0.77901,-0.01963,0.06530,
7.10156,-5.03326,25.31730,27.13190,0.09382,1.01338,-0.20955,,,0.62347,0.77865,-0.02002,0.06779,
7.10938,-6.03248,22.66698,29.46681,0.16679,1.02593,-0.21738,,,0.62368,0.77824,-0.02064,0.07024,
7.11719,-5.89465,19.87531,31.69717,0.22526,1.02496,-0.22472,,,0.62387,0.77785,-0.02151,0.07263,
7.12500,-7.61745,20.82942,34.79876,0.13635,1.01579,-0.13812,,,0.62413,0.77737,-0.02251,0.07521,
7.13281,-6.75605,16.97762,36.92457,0.17452,1.01869,-0.20417,,,0.62432,0.77694,-0.02377,0.07767,
7.14063,-7.68636,17.01296,37.41246,0.20014,1.04233,-0.17873,,,0.62455,0.77645,-0.02507,0.08015,
7.14844,-8.30657,16.73026,39.88677,0.20883,1.05681,-0.21738,,,0.62480,0.77594,-0.02652,0.08272,
7.15625,-9.96045,20.75875,41.35044,0.12523,1.04813,-0.17775,,,0.62513,0.77532,-0.02788,0.08556,
7.16406,-9.65035,18.28511,42.84896,0.17984,1.07467,-0.16796,,,0.62542,0.77471,-0.02942,0.08833,
7.17188,-11.33868,14.57466,49.78398,0.15713,1.13885,-0.11121,,,0.62575,0.77404,-0.03149,0.09120,
7.17969,-13.13039,16.65958,53.12952,0.04743,1.12920,-0.11561,,,0.62614,0.77325,-0.03367,0.09432,
7.18750,-15.71458,11.74765,61.45852,-0.02168,1.14706,-0.15769,,,0.62659,0.77236,-0.03651,0.09752,
7.19531,-17.91976,-1.18592,71.80877,0.06096,1.19821,-0.19634,,,0.62705,0.77141,-0.04046,0.10048,
7.20313,-19.81483,-4.04827,78.46500,0.07256,1.20545,-0.24576,,,0.62753,0.77036,-0.04489,0.10356,
7.21094,-21.77882,-1.99869,88.08342,0.00635,1.23971,-0.25359,,,0.62804,0.76916,-0.04975,0.10716,
7.21875,-24.05291,-8.14743,97.80639,0.19434,1.26336,-0.32110,,,0.62854,0.76784,-0.05541,0.11083,
7.22656,-24.29410,-8.85419,103.52168,0.19289,1.29762,-0.28098,,,0.62898,0.76646,-0.06139,0.11471,
7.23438,-30.49616,-9.20756,112.02493,0.15326,1.37146,-0.28637,,,0.62964,0.76473,-0.06787,0.11890,
7.24219,-28.15316,-4.79036,118.92510,0.21560,1.29955,-0.28930,,,0.63010,0.76298,-0.07450,0.12362,
7.25000,-27.70523,-1.46862,121.19031,0.22671,1.43178,-0.24576,,,0.63049,0.76116,-0.08110,0.12860,
7.25781,-30.73735,3.58466,127.25409,0.23300,1.41248,-0.28881,,,0.63096,0.75908,-0.08781,0.13408,
7.26563,-31.59874,17.68437,130.39054,0.19289,1.39704,-0.26092,,,0.63149,0.75674,-0.09408,0.14041,
7.27344,-31.01299,17.64904,134.18911,0.18902,1.40186,-0.26680,,,0.63189,0.75434,-0.10054,0.14689,
7.28125,-30.97854,20.72341,141.64688,0.12475,1.50755,-0.19928,,,0.63217,0.75179,-0.10723,0.15384,
7.28906,-34.52750,25.70602,147.57127,0.03245,1.61951,-0.24918,,,0.63255,0.74892,-0.11404,0.16125,
7.29688,-35.49226,26.48344,151.16075,0.07207,1.68128,-0.30985,,,0.63287,0.74588,-0.12100,0.16883,
7.30469,-36.97386,32.70287,158.37457,0.10155,1.85453,-0.35633,,,0.63316,0.74255,-0.12806,0.17701,
7.31250,-41.65986,50.05364,164.99594,-0.11350,2.04081,-0.40917,,,0.63366,0.73866,-0.13474,0.18629,
7.32031,-44.79535,63.34059,166.49446,-0.24446,2.11512,-0.43119,,,0.63434,0.73433,-0.14094,0.19624,
7.32813,-51.41088,76.73356,171.58247,-0.34304,2.24977,-0.48941,,,0.63530,0.72937,-0.14688,0.20698,
7.33594,-57.30284,89.59645,179.14478,-0.40877,2.35931,-0.58824,,,0.63645,0.72376,-0.15269,0.21859,
7.34375,-59.19791,93.94298,183.01306,-0.35029,2.40612,-0.60341,,,0.63756,0.71781,-0.15851,0.23052,
7.35156,-63.36707,104.93299,190.57537,-0.53345,2.53980,-0.57307,,,0.63872,0.71127,-0.16424,0.24322,
7.35938,-62.88469,109.88025,194.47849,-0.46579,2.40130,-0.52366,,,0.63970,0.70445,-0.16990,0.25627,
7.36719,-58.61216,113.27267,207.33791,-0.45033,2.15711,-0.30006,,,0.64012,0.69742,-0.17591,0.27003,
7.37500,-51.27306,89.84382,211.27588,-0.41747,1.98048,-0.24869,,,0.63966,0.69091,-0.18295,0.28286,
7.38281,-47.72410,71.32690,208.48793,-0.33966,1.92257,-0.24282,,,0.63871,0.68477,-0.19055,0.29468,
7.39063,-43.10701,53.79943,197.26644,-0.02216,1.61179,-0.35731,,,0.63739,0.67918,-0.19826,0.30518,
7.39844,-40.97075,56.34374,184.75553,-0.33145,1.28701,-0.54714,,,0.63615,0.67368,-0.20520,0.31523,
7.40625,-41.21194,37.75615,176.91442,-0.46241,1.10990,-0.56084,,,0.63472,0.66855,-0.21255,0.32403,
7.41406,-39.21350,36.30731,161.61556,-0.28312,0.94823,-0.19928,,,0.63342,0.66367,-0.21919,0.33208,
7.42188,-44.24405,19.48659,164.54290,0.04839,0.81118,0.00572,,,0.63194,0.65881,-0.22678,0.33939,
7.42969,-42.83136,33.09158,156.77150,-0.02216,0.69391,0.05465,,,0.63071,0.65374,-0.23337,0.34694,
7.43750,-27.87751,-8.53615,126.24346,0.22430,0.65047,-0.22619,,,0.62881,0.65071,-0.24001,0.35153,
7.44531,-24.19073,-16.13374,87.24704,-0.27346,0.84399,-0.17041,,,0.62751,0.64862,-0.24515,0.35415,
7.45313,-27.49849,-32.38905,60.30849,-0.28699,0.70163,-0.25505,,,0.62673,0.64721,-0.24986,0.35483,
7.46094,-23.32933,-10.93911,26.71371,-0.26959,0.49894,-0.24918,,,0.62692,0.64602,-0.25207,0.35508,
7.46875,-28.46326,31.57206,3.99193,-0.50590,0.43041,0.02431,,,0.62862,0.64397,-0.25158,0.35615,
7.47656,-30.11714,35.49454,-7.40381,-0.56969,0.33872,0.08107,,,0.63073,0.64195,-0.25046,0.35687,
7.48438,-23.50161,20.68807,-29.84679,-0.63010,0.18960,0.07275,,,0.63284,0.64094,-0.24883,0.35609,
7.49219,-12.75138,-7.75872,-52.98676,-0.64315,0.09984,0.00132,,,0.63454,0.64147,-0.24716,0.35324,
7.50000,-5.34336,-24.47342,-65.25373,-0.62285,0.07571,-0.04810,,,0.63593,0.64292,-0.24548,0.34925,
7.50781,10.16179,-53.83899,-89.33463,-0.53828,0.08971,-0.12344,,,0.63670,0.64613,-0.24365,0.34318,
7.51563,15.26126,-65.50041,-101.56676,-0.47352,0.11335,-0.14644,,,0.63729,0.64999,-0.24165,0.33613,
7.52344,18.19001,-85.92556,-124.60218,-0.38509,0.16065,-0.15818,,,0.63789,0.65477,-0.23944,0.32719,
7.53125,19.39597,-102.53425,-147.70730,-0.27684,0.26730,-0.14986,,,0.63860,0.66026,-0.23685,0.31648,
7.53906,19.18923,-109.10705,-159.76517,-0.22610,0.31411,-0.14644,,,0.63936,0.66597,-0.23397,0.30489,
7.54688,17.56980,-117.97679,-183.18394,-0.12365,0.38409,-0.14008,,,0.64042,0.67204,-0.23040,0.29179,
7.55469,15.74364,-115.22046,-206.42846,-0.07484,0.44296,-0.13910,,,0.64191,0.67817,-0.22563,0.27771,
7.56250,14.81333,-111.40399,-217.47570,-0.07435,0.46661,-0.12197,,,0.64354,0.68418,-0.22014,0.26323,
7.57031,13.81411,-105.46727,-239.25655,-0.11446,0.49219,-0.16601,,,0.64550,0.69016,-0.21332,0.24798,
7.57813,16.26048,-104.97254,-258.73734,-0.13041,0.54623,-0.21151,,,0.64747,0.69629,-0.20546,0.23185,
7.58594,17.05297,-105.21991,-267.10118,-0.10238,0.59546,-0.24576,,,0.64928,0.70231,-0.19711,0.21526,
7.59375,14.29650,-95.57273,-281.52881,-0.06952,0.71997,-0.23304,,,0.65131,0.70799,-0.18761,0.19837,
7.60156,9.74832,-81.89707,-294.49277,-0.10190,0.77016,-0.24869,,,0.65363,0.71314,-0.17686,0.18142,
7.60938,11.74676,-78.46932,-300.13837,-0.12510,0.80201,-0.25603,,,0.65568,0.71810,-0.16558,0.16433,
7.61719,15.33017,-71.82584,-312.68413,-0.11253,0.94533,-0.25114,,,0.65746,0.72294,-0.15327,0.14697,
7.62500,16.81177,-67.54999,-323.34804,-0.04584,1.02979,-0.27609,,,0.65900,0.72757,-0.14016,0.12929,
7.63281,18.53457,-64.15758,-328.81938,-0.01105,1.08866,-0.28734,,,0.66019,0.73192,-0.12653,0.11148,
7.64063,20.39519,-49.98719,-341.19090,0.11508,1.22861,-0.31572,,,0.66115,0.73596,-0.11157,0.09378,
7.64844,21.39441,-23.87268,-352.58664,0.18612,1.35843,-0.29615,,,0.66196,0.73954,-0.09479,0.07683,
7.65625,22.15244,-10.55039,-358.12769,0.20110,1.41007,-0.28685,,,0.66245,0.74269,-0.07707,0.06026,
7.66406,26.08041,12.27772,-367.29307,0.17791,1.51575,-0.27462,,,0.66250,0.74551,-0.05779,0.04441,
7.67188,32.73039,30.40592,-371.47499,0.12523,1.70975,-0.23842,,,0.66186,0.74812,-0.03743,0.02930,
7.67969,36.62391,34.50509,-370.88255,0.10638,1.79758,-0.19977,,,0.66061,0.75040,-0.01687,0.01441,
7.68750,46.51275,28.14431,-366.24759,0.14311,1.92257,-0.16894,,,0.65841,0.75265,0.00317,-0.00059,
7.69531,53.33501,17.33100,-362.79750,0.26344,1.99689,-0.15671,,,0.65545,0.75473,0.02256,-0.01599,
7.70313,63.53396,-0.83254,-351.71541,0.52682,2.20971,-0.16405,,,0.65161,0.75680,0.04053,-0.03183,
7.71094,60.15728,-9.52560,-341.67880,0.69934,2.41047,-0.14644,,,0.64761,0.75830,0.05759,-0.04765,
7.71875,55.57465,-15.88637,-332.30432,0.80420,2.36414,-0.14546,,,0.64355,0.75919,0.07386,-0.06334,
7.72656,54.74771,-29.77406,-307.94462,0.93178,2.22178,-0.16601,,,0.63939,0.75974,0.08823,-0.07864,
7.73438,53.50729,-42.24825,-280.09999,1.03665,2.07169,-0.19781,,,0.63525,0.76002,0.10058,-0.09333,
7.74219,53.74848,-49.28044,-265.46326,1.11687,1.99206,-0.18607,,,0.63101,0.76008,0.11183,-0.10773,
7.75000,51.54331,-55.18182,-235.49282,1.30244,1.87866,-0.17384,,,0.62694,0.75999,0.12126,-0.12108,
7.75781,45.65135,-49.73983,-205.76632,1.52136,1.80675,-0.13616,,,0.62322,0.75975,0.12939,-0.13280,
7.76563,42.48141,-43.97979,-190.95535,1.48559,1.71892,-0.08919,,,0.61963,0.75940,0.13701,-0.14355,
7.77344,29.59491,-68.15073,-156.80298,1.68276,1.64508,-0.24918,,,0.61716,0.75847,0.14194,-0.15395,
7.78125,26.52833,-27.12374,-126.44919,1.70016,1.61372,-0.14742,,,0.61470,0.75805,0.14704,-0.16091,
7.78906,16.88069,-35.56944,-107.42145,1.70693,1.47570,-0.27169,,,0.61299,0.75727,0.15090,-0.16740,
7.79688,12.09132,-15.85104,-77.20706,1.74510,1.33961,-0.15769,,,0.61164,0.75679,0.15407,-0.17156,
7.80469,14.39986,-8.88952,-43.99563,1.68083,1.34106,-0.12246,,,0.61047,0.75682,0.15580,-0.17399,
7.81250,10.85091,-14.15483,-26.78005,1.72674,1.30052,-0.19977,,,0.60975,0.75682,0.15645,-0.17594,
7.82031,4.61439,-13.83679,9.32388,1.68760,1.25081,-0.31034,,,0.60977,0.75695,0.15533,-0.17630,
7.82813,-1.41539,-12.49396,40.51405,1.60496,1.16153,-0.37981,,,0.61046,0.75717,0.15272,-0.17524,
7.83594,-2.07005,-11.29248,54.66289,1.58321,1.11665,-0.39156,,,0.61134,0.75751,0.14945,-0.17351,
7.84375,0.44523,-8.25345,80.76506,1.53634,1.09204,-0.44586,,,0.61234,0.75825,0.14492,-0.17056,
7.85156,3.92527,5.63424,99.27006,1.49768,1.04716,-0.42923,,,0.61323,0.75945,0.13996,-0.16615,
7.85938,5.02786,13.51453,107.56421,1.46191,1.04571,-0.41602,,,0.61404,0.76082,0.13489,-0.16098,
7.86719,5.26905,32.95023,119.51754,0.86364,1.05054,-0.56622,,,0.61475,0.76248,0.13000,-0.15431,
7.87500,6.78511,51.29046,119.69178,0.10735,1.18518,-0.55106,,,0.61518,0.76433,0.12585,-0.14667,
7.88281,-16.78271,59.48879,100.31554,-0.22755,1.16491,0.17696,,,0.61653,0.76506,0.12328,-0.13922,
7.89063,-26.53373,83.05899,92.30019,-1.98708,0.91879,-0.09604,,,0.61807,0.76548,0.12221,-0.13079,
7.89844,-35.87127,97.08803,59.26301,-2.14945,1.10266,0.35946,,,0.61964,0.76529,0.12353,-0.12293,
7.90625,-27.32621,61.50304,53.02497,-1.25688,1.10700,0.61779,,,0.62099,0.76508,0.12360,-0.11726,
7.91406,0.16958,-69.49356,98.29428,-0.47691,1.45736,0.47884,,,0.62233,0.76533,0.11552,-0.11672,
7.92188,8.50791,-138.26059,119.76148,-0.19227,1.56353,0.17892,,,0.62388,0.76548,0.10333,-0.11891,
7.92969,25.87367,-251.23500,138.40589,0.63796,1.38787,-0.62542,,,0.62530,0.76537,0.08519,-0.12628,
7.93750,22.73819,-205.11939,124.18735,1.09416,1.77924,-0.61026,,,0.62629,0.76519,0.06975,-0.13180,
7.94531,13.02163,-142.04172,119.69178,1.18356,1.75415,-0.43950,,,0.62732,0.76498,0.05731,-0.13414,
7.95313,9.92060,-29.49136,122.23579,0.71963,1.78648,-0.24869,,,0.62801,0.76559,0.04958,-0.13047,
7.96094,9.81723,13.76190,129.51930,0.07594,1.42165,-0.20075,,,0.62858,0.76654,0.04331,-0.12424,
7.96875,10.40298,11.74765,133.21333,-0.07822,1.25419,-0.23695,,,0.62910,0.76744,0.03676,-0.11794,
7.97656,11.78122,-3.51820,134.99065,0.17017,1.11955,-0.34361,,,0.62955,0.76823,0.02945,-0.11235,
7.98438,3.99419,10.26347,126.24346,0.35623,0.90045,-0.27609,,,0.63027,0.76870,0.02325,-0.10640,
7.99219,5.23460,17.15431,121.60850,0.36637,0.81069,-0.31279,,,0.63083,0.76922,0.01757,-0.10028,
8.00000,11.22992,20.61740,113.55830,0.34366,0.84206,-0.46788,,,0.63097,0.76996,0.01242,-0.09432,
8.00781,0.54860,37.96817,102.16256,0.36348,1.05488,-0.29077,1022.113,26.5,0.63154,0.77029,0.00869,-0.08792,
8.01563,-11.26977,51.60850,97.56245,0.32337,1.08432,-0.16258,,,0.63267,0.77015,0.00585,-0.08100,
8.02344,-24.15627,73.90655,85.43487,0.31998,1.02255,-0.00993,,,0.63437,0.76952,0.00468,-0.07342,
8.03125,-21.43426,75.17870,85.40002,0.12958,0.98153,-0.06913,,,0.63587,0.76898,0.00356,-0.06577,
8.03906,-7.27289,61.82108,78.15136,-0.17101,1.08384,-0.09017,,,0.63658,0.76894,0.00217,-0.05914,
8.04688,-2.89699,34.68177,74.52702,-0.10915,0.95450,-0.04663,,,0.63702,0.76895,-0.00022,-0.05409,
8.05469,2.06466,24.53987,71.14664,-0.00863,0.95450,0.00083,,,0.63716,0.76912,-0.00289,-0.04971,
8.06250,10.33407,16.20019,65.08285,0.13828,1.07274,-0.06228,,,0.63684,0.76960,-0.00563,-0.04603,
8.07031,11.43666,19.06254,60.72668,0.14021,1.09445,-0.17922,,,0.63643,0.77013,-0.00803,-0.04239,
8.07813,9.54158,21.14746,57.45084,0.13828,1.06357,-0.19928,,,0.63610,0.77056,-0.01016,-0.03878,
8.08594,10.54080,16.34154,52.67648,0.11653,1.03703,-0.18802,,,0.63569,0.77102,-0.01224,-0.03563,
8.09375,10.60972,8.95598,49.19154,0.10397,1.04475,-0.16845,,,0.63526,0.77146,-0.01447,-0.03301,
8.10156,8.61127,7.71916,45.32327,0.08464,0.97622,-0.18069,,,0.63491,0.77180,-0.01654,-0.03064,
8.10938,12.64261,5.59890,40.33981,0.15278,0.94919,-0.24086,,,0.63434,0.77231,-0.01844,-0.02858,
8.11719,11.88458,10.26347,36.19274,0.13635,0.96753,-0.22668,,,0.63379,0.77279,-0.01993,-0.02646,
8.12500,10.50635,8.14321,34.51997,0.05806,0.95402,-0.21640,,,0.63331,0.77321,-0.02142,-0.02452,
8.13281,10.71308,-3.48287,31.55777,-0.01540,0.89128,-0.16405,,,0.63279,0.77362,-0.02325,-0.02333,
8.14063,10.23070,-25.78091,30.75624,0.08222,0.98491,-0.22276,,,0.63226,0.77397,-0.02600,-0.02334,
8.14844,5.82035,-24.12004,28.49103,0.08754,0.94051,-0.28490,,,0.63195,0.77413,-0.02855,-0.02338,
8.15625,6.37164,-16.87583,26.40007,-0.01830,0.91734,-0.21738,,,0.63162,0.77433,-0.03068,-0.02312,
8.16406,8.19780,-20.93966,25.73793,0.16727,0.99697,-0.28098,,,0.63118,0.77459,-0.03296,-0.02310,
8.17188,6.40610,-17.12319,25.98187,0.12958,0.99456,-0.21836,,,0.63084,0.77478,-0.03508,-0.02287,
8.17969,7.47423,-8.81885,24.20456,0.13103,0.95354,-0.23499,,,0.63046,0.77503,-0.03675,-0.02227,
8.18750,7.37086,-3.37685,25.35459,0.19144,0.99745,-0.17237,,,0.63010,0.77527,-0.03824,-0.02134,
8.19531,6.64729,-0.37315,24.51820,0.22381,0.97622,-0.19487,,,0.62979,0.77549,-0.03956,-0.02029,
8.20313,6.61283,7.11842,24.55305,0.06966,0.97525,-0.17922,,,0.62949,0.77572,-0.04057,-0.01884,
8.21094,5.75144,11.07624,22.91513,0.08174,0.94003,-0.21493,,,0.62924,0.77592,-0.04131,-0.01726,
8.21875,8.23226,13.54987,22.81058,0.15858,0.94823,-0.21542,,,0.62887,0.77622,-0.04195,-0.01554,
8.22656,8.99029,18.70917,22.28784,0.20207,0.95402,-0.19830,,,0.62847,0.77656,-0.04233,-0.01356,
8.23438,8.54236,22.87901,21.55601,0.12523,0.96753,-0.15867,,,0.62811,0.77688,-0.04250,-0.01140,
8.24219,7.40532,28.95708,19.46505,0.13441,0.95547,-0.20711,,,0.62781,0.77716,-0.04230,-0.00901,
8.25000,6.99185,23.76245,20.51053,0.18950,0.97960,-0.22374,,,0.62752,0.77742,-0.04238,-0.00686,
8.25781,4.75221,27.29621,19.60444,0.12716,0.95016,-0.22521,,,0.62735,0.77757,-0.04225,-0.00456,
8.26563,3.51180,28.88640,18.17562,0.14601,0.92796,-0.29126,,,0.62725,0.77768,-0.04198,-0.00224,
8.27344,0.54860,26.27142,17.72258,0.19385,0.96464,-0.29126,,,0.62730,0.77765,-0.04180,-0.00008,
8.28125,-0.82964,25.52933,17.93167,0.21705,0.96995,-0.33138,,,0.62742,0.77757,-0.04166,0.00204,
8.28906,-6.13585,34.08104,17.16499,0.10348,0.98346,-0.32893,,,0.62783,0.77725,-0.04111,0.00456,
8.29688,-9.54698,35.24718,17.68773,0.18902,1.00566,-0.35682,,,0.62843,0.77678,-0.04054,0.00716,
8.30469,-10.78739,34.29306,19.22110,0.22188,1.02544,-0.37492,,,0.62908,0.77624,-0.04010,0.00977,
8.31250,-14.78427,43.55152,21.20751,0.13055,0.98153,-0.38666,,,0.62996,0.77552,-0.03936,0.01294,
8.32031,-13.13039,49.80628,23.57727,0.12910,0.85702,-0.48060,,,0.63076,0.77484,-0.03848,0.01655,
8.32813,-8.51330,49.38223,25.73793,0.09720,0.85219,-0.39009,,,0.63131,0.77435,-0.03772,0.02025,
8.33594,-0.96746,46.66123,32.46385,-0.04004,1.04861,0.01698,,,0.63143,0.77415,-0.03743,0.02410,
8.34375,-2.72471,42.31470,42.25652,-0.16811,1.14464,0.19164,,,0.63161,0.77385,-0.03784,0.02815,
8.35156,-3.93067,35.52988,49.40064,-0.13573,1.14609,0.12853,,,0.63181,0.77348,-0.03892,0.03214,
8.35938,-5.06771,20.19335,65.95408,-0.08305,1.12486,-0.05446,,,0.63198,0.77303,-0.04154,0.03603,
8.36719,-5.41227,18.07309,77.62862,-0.19662,1.08721,-0.18117,,,0.63212,0.77252,-0.04486,0.04031,
8.37500,-4.10295,6.27032,84.38939,-0.07870,1.09445,-0.24527,,,0.63211,0.77205,-0.04905,0.04426,
8.38281,-5.58455,-8.96020,94.73965,0.08657,1.15043,-0.25310,,,0.63208,0.77151,-0.05444,0.04785,
8.39063,-6.13585,-9.20756,99.09582,0.15326,1.14609,-0.32551,,,0.63203,0.77089,-0.06006,0.05161,
8.39844,-9.99490,-0.69119,103.62623,0.06241,1.15429,-0.31670,,,0.63217,0.77002,-0.06557,0.05600,
8.40625,-12.64801,-3.58888,109.16728,0.24266,1.24019,-0.32453,,,0.63238,0.76898,-0.07150,0.06046,
8.41406,-14.85318,-3.76557,112.02493,0.19724,1.30197,-0.24184,,,0.63266,0.76778,-0.07760,0.06501,
8.42188,-21.70991,7.01241,115.92805,0.06966,1.34492,-0.22325,,,0.63330,0.76618,-0.08346,0.07026,
8.42969,-23.88063,3.33730,122.68883,0.17211,1.43806,-0.24918,,,0.63396,0.76440,-0.08983,0.07559,
8.43750,-25.43114,4.68013,127.39349,0.16147,1.47184,-0.25456,,,0.63463,0.76247,-0.09639,0.08118,
8.44531,-27.39513,12.06569,137.18616,0.03293,1.50658,-0.20808,,,0.63535,0.76028,-0.10315,0.08756,
8.45313,-30.32388,20.05200,144.64392,0.03390,1.57656,-0.25016,,,0.63616,0.75779,-0.10995,0.09464,
8.46094,-30.56507,17.61370,150.08042,0.03921,1.65425,-0.22178,,,0.63687,0.75519,-0.11713,0.10183,
8.46875,-31.97776,4.57411,164.54290,0.04163,1.73967,-0.24918,,,0.63737,0.75240,-0.12561,0.10894,
8.47656,-36.07801,5.95228,176.77502,0.06676,1.79083,-0.32844,,,0.63791,0.74922,-0.13467,0.11660,
8.48438,-33.94174,13.76190,181.47969,0.01505,1.85115,-0.33872,,,0.63828,0.74591,-0.14360,0.12487,
8.49219,-33.04589,21.96023,192.63148,-0.19323,2.02150,-0.32697,,,0.63848,0.74234,-0.15270,0.13403,
8.50000,-37.80080,14.92804,205.07270,-0.34208,1.98338,-0.59215,,,0.63861,0.73835,-0.16275,0.14330,
8.50781,-30.66844,29.45181,206.74547,-0.29955,2.00075,-0.57063,,,0.63839,0.73436,-0.17215,0.15342,
8.51563,-24.81094,48.99352,209.42887,-0.11881,2.35063,-0.55252,,,0.63795,0.73023,-0.18074,0.16467,
8.52344,-34.90651,84.54317,210.33495,-0.35561,2.70678,-0.68071,,,0.63829,0.72509,-0.18789,0.17756,
8.53125,-39.97152,113.69672,206.91971,-0.37397,2.76131,-0.76242,,,0.63913,0.71923,-0.19362,0.19163,
8.53906,-45.76011,134.96997,208.34854,-0.66586,2.31202,-0.67973,,,0.64034,0.71263,-0.19852,0.20668,
8.54688,-43.38266,147.90354,205.94393,-0.65136,2.08472,-0.75850,,,0.64145,0.70576,-0.20264,0.22222,
8.55469,-42.14225,127.05434,212.21682,-0.37107,1.90086,-0.74969,,,0.64192,0.69897,-0.20789,0.23699,
8.56250,-31.83994,118.43196,215.59720,-0.37301,1.93464,-0.41798,,,0.64154,0.69251,-0.21346,0.25157,
8.57031,-30.73735,92.98887,215.28356,-0.34836,1.85115,-0.42972,,,0.64057,0.68635,-0.22004,0.26489,
8.57813,-29.35911,68.32320,203.15598,-0.13911,1.70058,-0.55839,,,0.63924,0.68072,-0.22707,0.27648,
8.58594,-36.21583,69.87806,185.13887,-0.37977,1.33044,-0.54323,,,0.63845,0.67490,-0.23327,0.28719,
8.59375,-35.63008,77.47565,176.11289,-0.30583,1.16781,-0.44635,,,0.63782,0.66898,-0.23867,0.29782,
8.60156,-30.39279,100.69247,166.32022,-0.08305,0.87922,-0.11904,,,0.63741,0.66285,-0.24247,0.30912,
8.60938,-17.09282,82.91764,154.75023,-0.31550,0.76919,0.02872,,,0.63624,0.65775,-0.24619,0.31928,
8.61719,-19.88374,32.95023,149.41828,0.07739,0.56168,-0.35144,,,0.63440,0.65363,-0.25188,0.32688,
8.62500,-6.41149,22.03090,107.59906,0.21753,0.62248,-0.47913,,,0.63265,0.65100,-0.25586,0.33240,
8.63281,-14.19852,42.63274,51.80525,-0.58999,0.73782,-0.15916,,,0.63284,0.64852,-0.25663,0.33627,
8.64063,-13.92288,43.37483,25.77278,-0.64653,0.51245,-0.17481,,,0.63362,0.64647,-0.25621,0.33904,
8.64844,-1.00192,58.46400,2.56311,-0.79827,0.42173,0.03410,,,0.63463,0.64503,-0.25382,0.34171,
8.65625,0.65196,51.67918,-17.44042,-0.85916,0.23304,0.14810,,,0.63590,0.64415,-0.25079,0.34323,
8.66406,5.40688,42.10268,-29.32405,-0.79006,0.14569,0.13342,,,0.63707,0.64390,-0.24755,0.34389,
8.67188,18.01773,6.76505,-51.48824,-0.70839,0.08247,0.07813,,,0.63759,0.64539,-0.24456,0.34225,
8.67969,34.72884,-21.46972,-76.33582,-0.60835,0.03325,0.02089,,,0.63748,0.64866,-0.24132,0.33856,
8.68750,44.51431,-34.19127,-88.63765,-0.54504,0.08874,-0.02706,,,0.63698,0.65283,-0.23785,0.33392,
8.69531,48.61456,-48.96240,-113.97313,-0.49720,0.15051,-0.04027,,,0.63659,0.65787,-0.23379,0.32756,
8.70313,54.09304,-68.64546,-136.97370,-0.41408,0.22483,-0.02706,,,0.63609,0.66390,-0.22940,0.31938,
8.71094,54.16196,-77.51520,-149.10127,-0.34643,0.24655,-0.00749,,,0.63563,0.67022,-0.22481,0.31023,
8.71875,53.12828,-89.17662,-172.58974,-0.28022,0.30156,0.01942,,,0.63543,0.67699,-0.21964,0.29945,
8.72656,52.81818,-92.99309,-184.22942,-0.27346,0.35610,0.04046,,,0.63529,0.68386,-0.21406,0.28794,
8.73438,51.40548,-100.62601,-205.87087,-0.21788,0.42462,0.04437,,,0.63539,0.69098,-0.20778,0.27504,
8.74219,49.23476,-103.17032,-227.02443,-0.19372,0.47964,0.04633,,,0.63577,0.69816,-0.20060,0.26100,
8.75000,47.68425,-103.77106,-236.67770,-0.18647,0.50039,0.03214,,,0.63619,0.70520,-0.19295,0.24642,
8.75781,44.89332,-100.94405,-256.05394,-0.20483,0.55975,0.01551,,,0.63690,0.71208,-0.18423,0.23100,
8.76563,41.89566,-97.69299,-275.29078,-0.24253,0.62827,-0.01287,,,0.63784,0.71875,-0.17441,0.21478,
8.77344,40.13841,-95.92611,-284.63041,-0.24011,0.67991,-0.03048,,,0.63877,0.72513,-0.16401,0.19814,
8.78125,36.62391,-92.07431,-302.05508,-0.22416,0.75761,-0.05935,,,0.63986,0.73118,-0.15255,0.18079,
8.78906,33.10941,-85.89022,-318.74792,-0.20000,0.85943,-0.07109,,,0.64108,0.73681,-0.13996,0.16291,
8.79688,31.83454,-83.62861,-326.17083,-0.15941,0.91734,-0.09653,,,0.64214,0.74204,-0.12684,0.14471,
8.80469,31.11097,-73.62806,-340.00603,-0.09030,1.06791,-0.15916,,,0.64310,0.74686,-0.11252,0.12633,
8.81250,30.07729,-58.64491,-352.37755,-0.04681,1.22523,-0.19683,,,0.64396,0.75117,-0.09686,0.10809,
8.82031,29.73273,-51.11799,-358.58073,-0.03521,1.31693,-0.21249,,,0.64455,0.75498,-0.08049,0.08990,
8.82813,31.04206,-36.94760,-370.88255,0.01070,1.46556,-0.21885,,,0.64481,0.75836,-0.06281,0.07184,
8.83594,31.35216,-20.76297,-381.26766,0.06096,1.64460,-0.17481,,,0.64475,0.76122,-0.04384,0.05412,
8.84375,28.80242,-8.85419,-386.28597,0.05081,1.74402,-0.12197,,,0.64443,0.76340,-0.02407,0.03675,
8.85156,30.62859,7.89585,-393.25584,0.24073,1.68369,-0.20906,,,0.64360,0.76510,-0.00318,0.01993,
8.85938,45.16897,8.10788,-388.51633,0.21077,2.13153,-0.00064,,,0.64155,0.76688,0.01750,0.00332,
8.86719,50.85419,-4.64901,-380.22218,0.24556,2.30478,-0.01238,,,0.63877,0.76838,0.03717,-0.01361,
8.87500,46.96068,-40.51670,-372.34623,0.69161,2.61460,-0.14301,,,0.63586,0.76919,0.05484,-0.03205,
8.88281,28.11331,-37.26564,-354.71245,1.06420,2.40468,-0.15965,,,0.63356,0.76877,0.07174,-0.04946,
8.89063,24.15088,-30.76352,-344.25765,1.15022,2.36269,-0.23010,,,0.63111,0.76781,0.08833,-0.06603,
8.89844,24.73663,-30.33947,-315.33269,1.17438,2.28162,-0.33138,,,0.62843,0.76666,0.10339,-0.08130,
8.90625,27.76875,-37.26564,-297.87316,1.20531,2.21261,-0.43804,,,0.62546,0.76539,0.11717,-0.09617,
8.91406,38.69126,-52.81420,-261.00254,1.37106,2.02005,-0.55154,,,0.62205,0.76448,0.12825,-0.11033,
8.92188,43.17053,-56.80735,-228.48810,1.60641,1.84439,-0.47082,,,0.61850,0.76379,0.13739,-0.12332,
8.92969,44.27312,-56.13594,-212.59679,1.67358,1.76139,-0.44097,,,0.61486,0.76311,0.14569,-0.13559,
8.93750,42.61923,-54.79311,-176.87621,1.87606,1.75801,-0.33774,,,0.61151,0.76257,0.15217,-0.14625,
8.94531,42.37804,-47.51355,-142.82839,1.93454,1.61951,-0.30153,,,0.60834,0.76234,0.15717,-0.15508,
8.95313,44.37648,-43.83844,-125.29917,1.93406,1.64315,-0.20221,,,0.60516,0.76235,0.16137,-0.16301,
8.96094,33.00604,-22.17647,-93.55140,1.97562,1.39366,-0.19781,,,0.60264,0.76242,0.16493,-0.16836,
8.96875,32.97159,-17.58258,-55.56561,2.09546,1.44674,-0.02559,,,0.60048,0.76294,0.16670,-0.17190,
8.97656,24.94336,-17.51191,-33.43627,2.20903,1.45977,-0.10534,,,0.59899,0.76338,0.16741,-0.17444,
8.98438,4.54548,7.43646,10.05572,2.07758,1.43130,-0.12833,,,0.59880,0.76377,0.16712,-0.17368,
8.99219,-13.40604,22.45495,49.57489,1.81227,1.26915,-0.21151,,,0.59983,0.76405,0.16560,-0.17031,
9.00000,-14.54308,25.63534,66.05863,1.71562,1.21896,-0.20759,,,0.60106,0.76450,0.16336,-0.16609,
9.00781,-16.54152,23.76245,92.23049,1.45515,1.16298,-0.16748,1022.041,26.5,0.60269,0.76510,0.15970,-0.16087,
9.01563,-10.30501,8.84997,112.79161,1.01394,1.24212,-0.42042,,,0.60435,0.76598,0.15428,-0.15565,
9.02344,-8.27211,12.73711,115.64926,0.44563,1.34250,-0.46592,,,0.60586,0.76697,0.14884,-0.15012,
9.03125,-22.29566,-2.77611,111.78098,0.39634,1.09735,-0.19292,,,0.60818,0.76714,0.14310,-0.14541,
9.03906,-24.84539,62.73985,105.15960,-1.50769,1.05392,-0.06816,,,0.60989,0.76772,0.14045,-0.13753,
9.04688,-36.80158,54.29416,75.25886,-1.29796,1.06646,-0.09213,,,0.61198,0.76740,0.13912,-0.13121,
9.05469,-32.97698,101.61125,61.00547,-1.09306,1.11038,0.66329,,,0.61328,0.76748,0.14046,-0.12303,
9.06250,-25.39669,56.76779,72.36636,-0.65039,1.21558,0.64372,,,0.61466,0.76756,0.13925,-0.11680,
9.07031,2.47813,-32.81310,109.30668,-0.04343,1.47714,0.30906,,,0.61570,0.76842,0.13213,-0.11395,
9.07813,15.67473,-123.34811,134.60731,0.28422,1.58428,-0.36856,,,0.61699,0.76927,0.11977,-0.11489,
9.08594,20.94648,-132.74792,131.29662,0.48477,1.59248,-0.59215,,,0.61795,0.77012,0.10712,-0.11648,
9.09375,26.32160,-99.67190,124.57069,0.53938,1.69865,-0.71153,,,0.61825,0.77131,0.09616,-0.11664,
9.10156,10.12733,-39.38590,127.81168,0.38087,1.71409,-0.40085,,,0.61897,0.77223,0.08768,-0.11338,
9.10938,5.75144,-17.08785,131.08752,0.33206,1.56305,-0.31670,,,0.61976,0.77309,0.08001,-0.10877,
9.11719,7.26749,-11.64586,137.88315,0.19095,1.28990,-0.29273,,,0.62043,0.77403,0.07219,-0.10359,
9.12500,10.78199,-20.37425,139.41652,0.22575,1.19628,-0.37345,,,0.62092,0.77499,0.06389,-0.09881,
9.13281,8.12889,-14.54355,136.66342,0.34076,1.16395,-0.42336,,,0.62144,0.77580,0.05599,-0.09382,
9.14063,0.23849,5.21019,129.03141,0.31805,0.80008,-0.39694,,,0.62221,0.77631,0.04938,-0.08807,
9.14844,6.75066,15.98817,114.39468,0.26392,0.75713,-0.29566,,,0.62247,0.77706,0.04396,-0.08239,
9.15625,6.02708,20.97077,108.29605,0.35284,0.88067,-0.22570,,,0.62268,0.77773,0.03907,-0.07669,
9.16406,-5.23999,36.66068,95.99422,0.44273,1.09252,-0.13616,,,0.62334,0.77794,0.03556,-0.07065,
9.17188,-21.67545,63.72931,82.43783,0.22430,1.00517,-0.18020,,,0.62472,0.77750,0.03400,-0.06371,
9.17969,-22.33011,65.31950,78.32560,0.15133,0.99215,-0.22668,,,0.62608,0.77700,0.03272,-0.05686,
9.18750,-17.12727,66.80368,70.93754,0.05468,1.06598,-0.11806,,,0.62710,0.77667,0.03188,-0.05025,
9.19531,-7.47962,47.72136,67.80110,-0.07677,1.07418,0.00425,,,0.62761,0.77664,0.03035,-0.04481,
9.20313,-4.82652,34.89380,66.16318,-0.04633,0.99456,-0.02314,,,0.62799,0.77667,0.02836,-0.04012,
9.21094,4.95895,8.84997,58.25238,0.19047,1.04716,-0.03097,,,0.62787,0.77701,0.02564,-0.03716,
9.21875,5.13123,8.81463,57.72964,-0.01298,1.10604,-0.08283,,,0.62772,0.77734,0.02294,-0.03423,
9.22656,6.88848,3.54932,47.58847,-0.02071,1.12437,-0.11464,,,0.62746,0.77772,0.02056,-0.03202,
9.23438,3.82191,-15.74502,45.81116,-0.01008,1.06888,-0.20075,,,0.62738,0.77791,0.01744,-0.03090,
9.24219,1.13435,-19.73818,43.44140,0.05757,1.03944,-0.21396,,,0.62743,0.77796,0.01429,-0.03008,
9.25000,-0.65736,-28.11320,41.31559,0.12571,0.98346,-0.28734,,,0.62757,0.77791,0.01090,-0.02981,
9.25781,-3.10373,-13.66010,33.23054,0.15229,0.91204,-0.29322,,,0.62781,0.77777,0.00856,-0.02910,
9.26563,-1.75995,-6.09785,29.43196,0.20642,0.88115,-0.29028,,,0.62797,0.77770,0.00674,-0.02816,
9.27344,0.82424,-2.14004,26.78341,0.12330,0.96898,-0.23793,,,0.62797,0.77774,0.00522,-0.02713,
9.28125,-1.27757,-3.83624,23.08938,0.09817,0.87005,-0.28832,,,0.62808,0.77769,0.00383,-0.02634,
9.28906,0.82424,-1.15058,21.20751,0.13731,0.91783,-0.29322,,,0.62808,0.77773,0.00266,-0.02549,
9.29688,0.47969,8.00186,17.30439,0.14601,0.96802,-0.22863,,,0.62808,0.77777,0.00208,-0.02433,
9.30469,0.27295,12.80778,16.29375,0.09285,1.00083,-0.18802,,,0.62809,0.77780,0.00176,-0.02295,
9.31250,-1.34648,17.33100,14.89978,0.04211,0.95402,-0.18264,,,0.62818,0.77777,0.00172,-0.02139,
9.32031,1.89238,15.21074,15.42252,0.09672,0.94437,-0.20759,,,0.62810,0.77788,0.00155,-0.01992,
9.32813,2.89160,16.12952,15.49222,0.04453,0.95788,-0.16992,,,0.62797,0.77802,0.00141,-0.01840,
9.33594,3.51180,17.71971,14.86493,0.00925,0.94196,-0.16209,,,0.62780,0.77819,0.00138,-0.01683,
9.34375,7.16413,16.94228,15.17858,0.08077,0.96512,-0.14595,,,0.62743,0.77852,0.00129,-0.01528,
9.35156,8.37008,18.42646,15.21342,0.08222,0.96898,-0.13372,,,0.62700,0.77890,0.00126,-0.01365,
9.35938,8.57682,19.66328,14.62099,0.03631,0.96609,-0.15378,,,0.62656,0.77928,0.00132,-0.01198,
9.36719,10.29961,23.51508,12.66942,0.06144,0.93858,-0.19438,,,0.62602,0.77974,0.00164,-0.01019,
9.37500,11.40220,21.92489,13.33156,0.20883,0.99745,-0.19585,,,0.62542,0.78024,0.00186,-0.00846,
9.38281,9.12811,27.61425,12.63457,0.16051,1.02255,-0.17530,,,0.62493,0.78065,0.00235,-0.00645,
9.39063,4.95895,40.54782,10.22997,0.01167,0.97912,-0.24233,,,0.62467,0.78087,0.00353,-0.00385,
9.39844,1.65119,34.50509,10.33452,0.10300,0.98201,-0.28637,,,0.62457,0.78095,0.00445,-0.00158,
9.40625,-0.34726,32.34949,12.66942,0.15278,0.97043,-0.36318,,,0.62458,0.78095,0.00515,0.00069,
9.41406,-4.51642,38.25088,11.55424,0.04791,0.93906,-0.34263,,,0.62480,0.78075,0.00617,0.00322,
9.42188,-6.10139,40.72451,10.68301,0.03341,0.91927,-0.35095,,,0.62510,0.78049,0.00733,0.00584,
9.42969,-6.34258,31.28936,12.56487,0.20545,0.92072,-0.36220,,,0.62542,0.78021,0.00799,0.00805,
9.43750,-9.71926,40.90120,11.20575,0.13924,0.97284,-0.29419,,,0.62590,0.77978,0.00913,0.01071,
9.44531,-10.27055,49.09953,10.09057,0.11267,1.01483,-0.27022,,,0.62640,0.77930,0.01068,0.01376,
9.45313,-11.64879,49.55892,13.36641,0.17887,0.95306,-0.35046,,,0.62697,0.77877,0.01208,0.01697,
9.46094,-5.37782,54.32950,19.08170,0.11412,0.85509,-0.33970,,,0.62718,0.77848,0.01338,0.02068,
9.46875,-1.65658,63.87066,22.14845,-0.18115,0.89852,-0.08528,,,0.62717,0.77833,0.01494,0.02501,
9.47656,1.44445,55.03625,32.81235,-0.37542,1.07901,0.21904,,,0.62698,0.77832,0.01555,0.02933,
9.48438,-2.82808,18.32045,54.76744,-0.11591,1.16250,0.08841,,,0.62700,0.77822,0.01343,0.03264,
9.49219,-5.92911,18.67383,63.54948,-0.24204,1.11713,-0.04174,,,0.62715,0.77797,0.01084,0.03635,
9.50000,-5.55009,12.38373,79.51048,-0.28554,1.06453,-0.30936,,,0.62723,0.77775,0.00714,0.04041,
9.50781,-5.68792,-17.68859,94.32146,-0.01250,1.15043,-0.31034,,,0.62727,0.77759,0.00137,0.04351,
9.51563,-7.16952,-20.16223,99.65341,0.09720,1.16443,-0.35975,,,0.62734,0.77733,-0.00480,0.04670,
9.52344,-14.06070,-5.46177,104.95051,0.10977,1.14706,-0.41553,,,0.62773,0.77669,-0.01064,0.05089,
9.53125,-20.05602,-5.42644,114.88257,0.09430,1.06260,-0.44097,,,0.62837,0.77575,-0.01702,0.05551,
9.53906,-21.53763,-9.13689,118.89025,0.17356,1.18952,-0.47522,,,0.62902,0.77470,-0.02378,0.06009,
9.54688,-27.11948,4.85681,122.68883,-0.02410,1.06598,-0.44440,,,0.62994,0.77329,-0.03016,0.06556,
9.55469,-29.73813,5.98762,124.64039,0.12765,1.33575,-0.30789,,,0.63093,0.77170,-0.03661,0.07116,
9.56250,-33.56273,10.65219,129.58900,-0.01781,1.26625,-0.33285,,,0.63207,0.76985,-0.04313,0.07721,
9.57031,-36.62930,-3.76557,143.31965,0.01215,1.43854,-0.25065,,,0.63320,0.76783,-0.05100,0.08307,
9.57813,-40.04044,-1.32727,152.24108,-0.01008,1.42213,-0.24038,,,0.63439,0.76553,-0.05925,0.08943,
9.58594,-40.04044,6.62370,153.66990,0.15278,1.55243,-0.26680,,,0.63553,0.76310,-0.06722,0.09625,
9.59375,-41.55650,8.03720,166.63386,0.02520,1.78841,-0.19781,,,0.63660,0.76043,-0.07580,0.10369,
9.60156,-43.86504,16.69492,170.01425,-0.00428,1.82702,-0.21836,,,0.63771,0.75747,-0.08419,0.11169,
9.60938,-43.17592,11.14691,181.86303,0.02520,1.91389,-0.26092,,,0.63857,0.75440,-0.09342,0.11991,
9.61719,-42.14225,13.16116,191.72540,0.05129,1.93126,-0.37541,,,0.63919,0.75118,-0.10304,0.12865,
9.62500,-40.41945,22.20759,198.59072,-0.09997,1.98820,-0.28147,,,0.63962,0.74775,-0.11258,0.13814,
9.63281,-39.00676,40.08843,201.97111,-0.07774,2.17448,-0.38128,,,0.63995,0.74405,-0.12147,0.14866,
9.64063,-40.10935,58.39333,207.68640,-0.07532,2.39551,-0.41896,,,0.64029,0.73991,-0.12984,0.16033,
9.64844,-44.17514,84.71986,207.26821,-0.43680,2.52629,-0.48060,,,0.64093,0.73513,-0.13705,0.17322,
9.65625,-52.92694,122.53113,207.44245,-0.78087,2.57262,-0.62395,,,0.64219,0.72934,-0.14269,0.18789,
9.66406,-57.37175,89.87915,226.57475,-0.96161,2.24928,-0.70517,,,0.64292,0.72337,-0.15072,0.20167,
9.67188,-46.82825,76.02680,228.38692,-0.74415,2.05480,-0.71887,,,0.64278,0.71784,-0.15926,0.21491,
9.67969,-40.90183,76.62754,221.59129,-0.56969,2.36366,-0.27022,,,0.64228,0.71243,-0.16731,0.22788,
9.68750,-50.17047,84.47250,223.02011,-0.43825,1.94767,-0.32600,,,0.64213,0.70628,-0.17518,0.24113,
9.69531,-40.55728,93.34224,216.22449,-0.29472,1.96166,-0.15573,,,0.64156,0.70030,-0.18214,0.25456,
9.70313,-40.41945,59.20609,214.20323,-0.00477,2.06638,-0.24869,,,0.64044,0.69477,-0.19044,0.26621,
9.71094,-46.44923,89.73780,208.17429,0.09817,1.54808,-0.49088,,,0.63995,0.68833,-0.19720,0.27890,
9.71875,-43.58939,93.23623,203.26053,0.12523,1.41537,-0.74187,,,0.63930,0.68185,-0.20347,0.29151,
9.72656,-42.48680,115.46360,193.04967,-0.15409,1.13065,-0.26826,,,0.63896,0.67494,-0.20822,0.30466,
9.73438,-50.27383,89.38443,203.33023,-0.82243,1.04909,0.00034,,,0.63825,0.66793,-0.21469,0.31687,
9.74219,-62.23003,12.52508,192.42238,-0.13766,0.47192,-0.39107,,,0.63705,0.66208,-0.22423,0.32487,
