Gait Up - Physilog data export
Created on: YYYY-MM-DD hh:mm:ss
Total data points: 22091

Time [128 hz],Gyro [128 hz],,,Accel [128 hz],,,Baro [1 hz],,Event [128 hz],Quaternion [128 hz],,,,
Time,Gyro X,Gyro Y,Gyro Z,Accel X,Accel Y,Accel Z,Pressure,Temperature,Quat W,Quat X,Quat Y,Quat Z,
[s],[deg/s],[deg/s],[deg/s],[g],[g],[g],[mBar],[degree C],[],[],[],[],
0.00781,0.44138,-0.87466,0.32908,0.16171,0.51717,0.83707,1021.883,25.1,0.95845,0.27201,-0.08590,0.00007,
0.01563,0.47565,-0.94667,0.32908,0.15832,0.52108,0.83562,,,0.95844,0.27204,-0.08597,0.00008,
0.02344,0.54421,-0.76665,0.22354,0.14862,0.50545,0.82401,,,0.95842,0.27208,-0.08602,0.00008,
0.03125,0.26999,-0.91066,0.32908,0.17577,0.52156,0.83417,,,0.95841,0.27209,-0.08609,0.00009,
0.03906,0.26999,-0.94667,0.36426,0.16462,0.52401,0.83610,,,0.95840,0.27211,-0.08616,0.00009,
0.04688,0.40710,-1.01868,0.29390,0.15783,0.50642,0.82304,,,0.95839,0.27213,-0.08623,0.00010,
0.05469,0.61277,-0.91066,0.25872,0.15783,0.50740,0.82208,,,0.95837,0.27217,-0.08629,0.00010,
0.06250,0.30427,-1.01868,0.39944,0.15880,0.49763,0.81676,,,0.95836,0.27219,-0.08637,0.00011,
0.07031,0.54421,-0.98267,0.18836,0.16462,0.52352,0.83997,,,0.95834,0.27222,-0.08644,0.00011,
0.07813,0.50993,-0.76665,0.11801,0.15638,0.52303,0.83175,,,0.95833,0.27226,-0.08649,0.00010,
0.08594,0.64704,-0.76665,0.15319,0.15977,0.52938,0.83368,,,0.95831,0.27230,-0.08654,0.00010,
0.09375,0.20143,-1.01868,0.36426,0.16559,0.51180,0.81482,,,0.95830,0.27231,-0.08661,0.00011,
0.10156,0.37282,-1.12669,0.32908,0.17335,0.50300,0.81386,,,0.95829,0.27233,-0.08669,0.00011,
0.10938,0.23571,-1.23471,0.29390,0.17189,0.51570,0.82014,,,0.95828,0.27234,-0.08678,0.00011,
0.11719,0.40710,-0.76665,0.32908,0.15783,0.51082,0.82981,,,0.95827,0.27237,-0.08684,0.00012,
0.12500,0.50993,-0.80265,0.22354,0.15395,0.50838,0.82981,,,0.95825,0.27240,-0.08689,0.00012,
0.13281,0.47565,-0.98267,0.36426,0.15589,0.49861,0.81869,,,0.95824,0.27243,-0.08696,0.00013,
0.14063,0.50993,-1.09069,0.04765,0.16607,0.52254,0.83997,,,0.95822,0.27246,-0.08704,0.00012,
0.14844,0.44138,-1.01868,0.11801,0.16898,0.52596,0.83417,,,0.95821,0.27249,-0.08710,0.00011,
0.15625,0.40710,-0.76665,0.08283,0.16365,0.50007,0.82014,,,0.95820,0.27252,-0.08716,0.00010,
0.16406,0.44138,-0.80265,0.08283,0.16317,0.50300,0.82401,,,0.95818,0.27254,-0.08721,0.00009,
0.17188,0.44138,-0.69464,0.11801,0.16850,0.50496,0.81047,,,0.95817,0.27257,-0.08726,0.00009,
0.17969,0.68132,-0.62263,-0.02271,0.15735,0.52059,0.83465,,,0.95815,0.27262,-0.08730,0.00008,
0.18750,0.57849,-0.47861,-0.05789,0.16123,0.51180,0.82885,,,0.95814,0.27266,-0.08733,0.00007,
0.19531,0.44138,-0.73064,0.04765,0.15638,0.50105,0.82159,,,0.95813,0.27268,-0.08738,0.00007,
0.20313,0.30427,-0.65863,0.04765,0.17529,0.51815,0.82643,,,0.95812,0.27270,-0.08742,0.00006,
0.21094,0.23571,-0.87466,0.01247,0.17480,0.52205,0.83126,,,0.95811,0.27272,-0.08748,0.00004,
0.21875,0.33854,-0.58662,0.01247,0.16074,0.52450,0.83562,,,0.95810,0.27274,-0.08752,0.00004,
0.22656,0.37282,-0.73064,0.15319,0.15832,0.50251,0.82401,,,0.95809,0.27276,-0.08757,0.00003,
0.23438,0.47565,-0.76665,0.22354,0.16365,0.50984,0.82063,,,0.95807,0.27279,-0.08762,0.00004,
0.24219,0.44138,-0.98267,0.04765,0.16462,0.51180,0.82111,,,0.95806,0.27282,-0.08769,0.00003,
0.25000,0.57849,-0.69464,-0.09307,0.15880,0.52303,0.84045,,,0.95805,0.27286,-0.08773,0.00001,
0.25781,0.61277,-0.62263,-0.05789,0.15347,0.52205,0.83997,,,0.95803,0.27290,-0.08777,-0.00000,
0.26563,0.33854,-1.01868,0.04765,0.17189,0.50154,0.81869,,,0.95802,0.27292,-0.08784,-0.00002,
0.27344,0.50993,-0.73064,-0.05789,0.16850,0.51912,0.82256,,,0.95800,0.27296,-0.08788,-0.00003,
0.28125,0.26999,-0.83866,0.08283,0.17141,0.51424,0.81821,,,0.95799,0.27297,-0.08794,-0.00004,
0.28906,0.74988,-0.62263,-0.05789,0.15880,0.51424,0.83271,,,0.95798,0.27302,-0.08798,-0.00005,
0.29688,0.54421,-0.62263,-0.02271,0.15492,0.49812,0.83271,,,0.95796,0.27306,-0.08802,-0.00006,
0.30469,0.47565,-0.55062,-0.02271,0.16074,0.50349,0.82208,,,0.95795,0.27309,-0.08806,-0.00007,
0.31250,0.47565,-0.69464,-0.02271,0.16074,0.53329,0.83271,,,0.95794,0.27312,-0.08810,-0.00008,
0.32031,0.40710,-0.91066,0.01247,0.17189,0.52303,0.83417,,,0.95792,0.27315,-0.08816,-0.00009,
0.32813,0.64704,-0.80265,-0.02271,0.16123,0.52205,0.83803,,,0.95791,0.27319,-0.08821,-0.00011,
0.33594,0.33854,-0.83866,0.08283,0.16510,0.50154,0.81337,,,0.95790,0.27321,-0.08827,-0.00011,
0.34375,0.30427,-0.98267,0.22354,0.16510,0.50691,0.81482,,,0.95788,0.27323,-0.08834,-0.00012,
0.35156,0.37282,-0.98267,0.08283,0.16898,0.51424,0.82594,,,0.95787,0.27325,-0.08840,-0.00013,
0.35938,0.74988,-0.73064,0.18836,0.16607,0.51863,0.83755,,,0.95785,0.27330,-0.08845,-0.00012,
0.36719,0.74988,-0.76665,0.08283,0.15202,0.50886,0.83223,,,0.95783,0.27335,-0.08851,-0.00013,
0.37500,0.57849,-1.09069,0.18836,0.17286,0.51766,0.82788,,,0.95782,0.27339,-0.08858,-0.00013,
0.38281,0.57849,-0.87466,0.08283,0.17335,0.52352,0.83078,,,0.95780,0.27342,-0.08864,-0.00014,
0.39063,0.54421,-0.91066,0.15319,0.17432,0.51717,0.82885,,,0.95779,0.27346,-0.08870,-0.00014,
0.39844,0.54421,-0.65863,0.15319,0.15492,0.50203,0.82740,,,0.95777,0.27349,-0.08875,-0.00014,
0.40625,0.61277,-0.80265,0.22354,0.16365,0.50545,0.81241,,,0.95775,0.27353,-0.08880,-0.00014,
0.41406,0.26999,-0.87466,0.39944,0.16026,0.49714,0.81241,,,0.95774,0.27355,-0.08887,-0.00013,
0.42188,0.50993,-0.87466,0.15319,0.16947,0.52694,0.84142,,,0.95773,0.27358,-0.08893,-0.00013,
0.42969,0.68132,-0.83866,0.25872,0.16171,0.51912,0.83707,,,0.95771,0.27362,-0.08899,-0.00013,
0.43750,0.47565,-1.05468,0.25872,0.16026,0.52303,0.83078,,,0.95770,0.27365,-0.08906,-0.00013,
0.44531,0.30427,-1.05468,0.36426,0.16268,0.51375,0.82449,,,0.95768,0.27367,-0.08914,-0.00012,
0.45313,0.26999,-1.12669,0.46979,0.15977,0.51619,0.82256,,,0.95767,0.27369,-0.08922,-0.00011,
0.46094,0.57849,-1.09069,0.36426,0.16947,0.53133,0.82208,,,0.95765,0.27372,-0.08930,-0.00010,
0.46875,0.61277,-0.83866,0.39944,0.15153,0.51424,0.82401,,,0.95764,0.27376,-0.08936,-0.00009,
0.47656,0.44138,-1.05468,0.57533,0.15105,0.50496,0.82498,,,0.95762,0.27378,-0.08944,-0.00007,
0.48438,0.37282,-1.30672,0.36426,0.16462,0.51912,0.83610,,,0.95761,0.27381,-0.08953,-0.00006,
0.49219,0.44138,-1.19870,0.43462,0.17383,0.52303,0.83368,,,0.95759,0.27383,-0.08962,-0.00006,
0.50000,0.44138,-0.91066,0.39944,0.17092,0.53475,0.84239,,,0.95758,0.27386,-0.08968,-0.00004,
0.50781,0.16715,-1.01868,0.39944,0.16220,0.50545,0.81869,,,0.95757,0.27387,-0.08976,-0.00004,
0.51563,0.37282,-0.94667,0.36426,0.16801,0.50935,0.82449,,,0.95756,0.27389,-0.08983,-0.00003,
0.52344,0.23571,-0.98267,0.18836,0.16850,0.51180,0.82063,,,0.95755,0.27390,-0.08989,-0.00003,
0.53125,0.44138,-0.58662,0.25872,0.16123,0.52401,0.83562,,,0.95754,0.27393,-0.08994,-0.00002,
0.53906,0.47565,-0.65863,0.25872,0.14765,0.51717,0.83755,,,0.95752,0.27396,-0.08999,-0.00002,
0.54688,0.47565,-0.58662,0.32908,0.14765,0.51228,0.83658,,,0.95751,0.27399,-0.09003,-0.00000,
0.55469,0.16715,-0.94667,0.39944,0.17722,0.51180,0.82111,,,0.95750,0.27400,-0.09010,0.00001,
0.56250,0.30427,-1.01868,0.36426,0.16947,0.52108,0.83078,,,0.95749,0.27401,-0.09017,0.00001,
0.57031,0.20143,-0.80265,0.36426,0.16074,0.50251,0.81918,,,0.95748,0.27403,-0.09023,0.00002,
0.57813,0.16715,-0.83866,0.43462,0.15686,0.49616,0.80805,,,0.95747,0.27403,-0.09029,0.00004,
0.58594,0.37282,-0.80265,0.36426,0.15735,0.50056,0.81676,,,0.95746,0.27406,-0.09035,0.00005,
0.59375,0.50993,-1.05468,0.25872,0.17092,0.53475,0.84045,,,0.95744,0.27409,-0.09043,0.00005,
0.60156,0.33854,-0.83866,0.36426,0.16850,0.52743,0.84045,,,0.95743,0.27411,-0.09049,0.00006,
0.60938,0.47565,-0.80265,0.39944,0.16704,0.51766,0.83658,,,0.95742,0.27414,-0.09055,0.00007,
0.61719,0.30427,-1.01868,0.22354,0.16995,0.50642,0.81869,,,0.95741,0.27415,-0.09062,0.00007,
0.62500,0.40710,-0.83866,0.18836,0.16704,0.51961,0.83271,,,0.95739,0.27418,-0.09068,0.00007,
0.63281,0.44138,-0.83866,0.22354,0.17868,0.51570,0.83078,,,0.95738,0.27421,-0.09074,0.00007,
0.64063,0.54421,-0.51461,0.18836,0.15832,0.50789,0.83658,,,0.95737,0.27424,-0.09077,0.00008,
0.64844,0.47565,-0.51461,0.15319,0.16268,0.50447,0.82014,,,0.95735,0.27427,-0.09081,0.00008,
0.65625,0.26999,-0.37059,0.18836,0.16074,0.50789,0.82208,,,0.95735,0.27429,-0.09084,0.00009,
0.66406,0.30427,-0.87466,0.18836,0.17044,0.52938,0.84480,,,0.95734,0.27431,-0.09090,0.00008,
0.67188,0.40710,-0.76665,0.11801,0.16559,0.51863,0.83658,,,0.95732,0.27433,-0.09095,0.00008,
0.67969,0.16715,-0.58662,0.22354,0.16365,0.49616,0.81337,,,0.95732,0.27434,-0.09099,0.00009,
0.68750,0.33854,-0.55062,0.25872,0.15977,0.51228,0.82014,,,0.95731,0.27436,-0.09103,0.00009,
0.69531,-0.00424,-0.76665,0.39944,0.15977,0.50398,0.82401,,,0.95730,0.27436,-0.09109,0.00011,
0.70313,0.26999,-0.58662,0.32908,0.15783,0.52205,0.84480,,,0.95729,0.27438,-0.09114,0.00012,
0.71094,0.44138,-0.65863,0.32908,0.15638,0.51570,0.83368,,,0.95728,0.27440,-0.09119,0.00013,
0.71875,0.40710,-0.44260,0.29390,0.15686,0.50886,0.82885,,,0.95727,0.27443,-0.09122,0.00014,
0.72656,0.23571,-0.65863,0.22354,0.16414,0.51766,0.83126,,,0.95726,0.27444,-0.09127,0.00015,
0.73438,0.30427,-0.62263,0.22354,0.18013,0.52450,0.83658,,,0.95725,0.27446,-0.09131,0.00015,
0.74219,0.20143,-0.51461,0.01247,0.16559,0.52792,0.84142,,,0.95725,0.27447,-0.09135,0.00014,
0.75000,0.23571,-0.15457,0.18836,0.15832,0.50300,0.81627,,,0.95724,0.27449,-0.09136,0.00016,
0.75781,0.06432,-0.08256,0.11801,0.15492,0.50593,0.82159,,,0.95724,0.27449,-0.09137,0.00016,
0.76563,0.13288,-0.44260,0.01247,0.16462,0.50300,0.81627,,,0.95723,0.27450,-0.09140,0.00016,
0.77344,0.16715,-0.40660,0.11801,0.17529,0.51863,0.83610,,,0.95723,0.27451,-0.09142,0.00016,
0.78125,0.23571,-0.19057,0.18836,0.15929,0.52694,0.83465,,,0.95722,0.27452,-0.09144,0.00017,
0.78906,-0.14135,-0.44260,0.32908,0.16510,0.49665,0.81627,,,0.95722,0.27451,-0.09148,0.00018,
0.79688,-0.17562,-0.29858,0.32908,0.16850,0.50056,0.81869,,,0.95722,0.27450,-0.09150,0.00019,
0.80469,0.09860,-0.47861,0.15319,0.16995,0.51717,0.82691,,,0.95722,0.27450,-0.09154,0.00020,
0.81250,0.26999,-0.37059,0.29390,0.15347,0.50691,0.83126,,,0.95721,0.27452,-0.09156,0.00021,
0.82031,0.30427,-0.44260,0.18836,0.15735,0.50838,0.83658,,,0.95720,0.27454,-0.09160,0.00022,
0.82813,0.40710,-0.51461,0.18836,0.15880,0.50447,0.82933,,,0.95719,0.27456,-0.09163,0.00022,
0.83594,0.33854,-0.47861,0.11801,0.15395,0.52156,0.83900,,,0.95718,0.27459,-0.09167,0.00022,
0.84375,0.47565,-0.80265,0.25872,0.17480,0.52547,0.84529,,,0.95717,0.27461,-0.09173,0.00023,
0.85156,0.47565,-0.44260,0.29390,0.16317,0.53329,0.84867,,,0.95716,0.27464,-0.09176,0.00024,
0.85938,0.06432,-0.69464,0.29390,0.15638,0.50251,0.81144,,,0.95715,0.27465,-0.09181,0.00025,
0.86719,0.16715,-0.51461,0.39944,0.15638,0.49909,0.81821,,,0.95715,0.27465,-0.09185,0.00026,
0.87500,0.03004,-0.80265,0.32908,0.16414,0.50056,0.81095,,,0.95714,0.27465,-0.09191,0.00027,
0.88281,0.30427,-0.69464,0.43462,0.15977,0.52498,0.84867,,,0.95713,0.27467,-0.09196,0.00029,
0.89063,0.16715,-0.33459,0.32908,0.16414,0.51277,0.83030,,,0.95712,0.27468,-0.09199,0.00030,
0.89844,-0.00424,-0.87466,0.43462,0.16462,0.50447,0.82546,,,0.95712,0.27468,-0.09206,0.00032,
0.90625,0.13288,-0.83866,0.57533,0.16268,0.52254,0.83271,,,0.95711,0.27468,-0.09212,0.00034,
0.91406,0.06432,-0.76665,0.61051,0.17722,0.51717,0.82836,,,0.95711,0.27468,-0.09218,0.00036,
0.92188,0.33854,-0.69464,0.39944,0.16026,0.50447,0.82836,,,0.95709,0.27470,-0.09224,0.00038,
0.92969,0.16715,-0.80265,0.50497,0.15686,0.49958,0.82256,,,0.95709,0.27471,-0.09230,0.00040,
0.93750,0.16715,-0.94667,0.39944,0.16317,0.50300,0.81482,,,0.95708,0.27472,-0.09237,0.00041,
0.94531,0.40710,-0.51461,0.29390,0.15977,0.53085,0.85351,,,0.95707,0.27474,-0.09241,0.00042,
0.95313,0.16715,-0.47861,0.25872,0.16753,0.52645,0.84432,,,0.95706,0.27475,-0.09244,0.00043,
0.96094,0.26999,-0.69464,0.32908,0.16317,0.52059,0.84190,,,0.95705,0.27477,-0.09249,0.00044,
0.96875,-0.00424,-0.87466,0.29390,0.17722,0.50300,0.80854,,,0.95705,0.27477,-0.09256,0.00044,
0.97656,0.26999,-0.40660,0.39944,0.15589,0.51473,0.82546,,,0.95704,0.27478,-0.09259,0.00046,
0.98438,-0.07279,-0.76665,0.36426,0.16559,0.50838,0.82981,,,0.95703,0.27477,-0.09265,0.00047,
0.99219,0.40710,-0.91066,0.36426,0.18062,0.51033,0.82836,,,0.95702,0.27480,-0.09271,0.00048,
1.00000,0.37282,-0.37059,0.18836,0.16510,0.50886,0.82981,,,0.95701,0.27482,-0.09274,0.00049,
1.00781,0.13288,-0.62263,0.36426,0.15686,0.52450,0.83755,1021.914,25.1,0.95701,0.27483,-0.09279,0.00050,
1.01563,0.26999,-0.51461,0.36426,0.16559,0.51717,0.84239,,,0.95700,0.27484,-0.09283,0.00052,
1.02344,0.44138,-0.47861,0.08283,0.15880,0.51424,0.84577,,,0.95699,0.27487,-0.09286,0.00052,
1.03125,0.26999,-0.65863,-0.02271,0.16753,0.49909,0.81918,,,0.95698,0.27489,-0.09290,0.00050,
1.03906,0.23571,-0.76665,-0.09307,0.16753,0.49665,0.81095,,,0.95697,0.27491,-0.09295,0.00049,
1.04688,0.26999,-0.51461,-0.19860,0.15880,0.50154,0.81966,,,0.95696,0.27492,-0.09298,0.00046,
1.05469,0.57849,-0.44260,-0.23378,0.16559,0.51424,0.83900,,,0.95695,0.27496,-0.09301,0.00044,
1.06250,0.61277,-0.29858,-0.23378,0.16026,0.51619,0.83948,,,0.95693,0.27501,-0.09302,0.00043,
1.07031,0.50993,-0.44260,-0.23378,0.16414,0.51521,0.83030,,,0.95692,0.27504,-0.09305,0.00041,
1.07813,0.37282,-0.58662,-0.19860,0.16559,0.50935,0.82449,,,0.95691,0.27507,-0.09308,0.00039,
1.08594,0.50993,-0.40660,-0.37450,0.15832,0.52596,0.83513,,,0.95690,0.27510,-0.09310,0.00036,
1.09375,0.54421,-0.47861,-0.30414,0.16220,0.52498,0.84093,,,0.95688,0.27514,-0.09313,0.00033,
1.10156,0.50993,-0.51461,-0.26896,0.16414,0.50691,0.82449,,,0.95687,0.27517,-0.09315,0.00031,
1.10938,0.44138,-0.58662,-0.30414,0.16317,0.49568,0.81289,,,0.95686,0.27520,-0.09319,0.00028,
1.11719,0.68132,-0.51461,-0.26896,0.16462,0.51815,0.84287,,,0.95684,0.27525,-0.09322,0.00026,
1.12500,0.71560,-0.47861,-0.23378,0.15832,0.51717,0.84287,,,0.95683,0.27530,-0.09324,0.00024,
1.13281,0.71560,-0.47861,-0.33932,0.15589,0.51375,0.84625,,,0.95681,0.27535,-0.09327,0.00021,
1.14063,0.57849,-0.65863,-0.30414,0.16656,0.50447,0.83126,,,0.95679,0.27539,-0.09330,0.00018,
1.14844,0.64704,-1.05468,-0.12824,0.16607,0.51082,0.82304,,,0.95678,0.27543,-0.09337,0.00016,
1.15625,0.64704,-0.91066,-0.16342,0.16947,0.52059,0.82304,,,0.95676,0.27547,-0.09343,0.00013,
1.16406,0.68132,-0.47861,-0.12824,0.15395,0.50838,0.82643,,,0.95674,0.27552,-0.09346,0.00012,
1.17188,0.61277,-0.62263,-0.02271,0.15832,0.50789,0.82353,,,0.95673,0.27556,-0.09350,0.00011,
1.17969,0.64704,-0.80265,-0.05789,0.15832,0.50545,0.82256,,,0.95671,0.27560,-0.09355,0.00010,
1.18750,0.68132,-0.87466,-0.02271,0.16704,0.53036,0.84480,,,0.95669,0.27565,-0.09360,0.00008,
1.19531,0.54421,-1.09069,0.01247,0.16414,0.52059,0.84287,,,0.95667,0.27568,-0.09368,0.00007,
1.20313,0.54421,-1.12669,0.08283,0.16510,0.51912,0.84384,,,0.95666,0.27572,-0.09375,0.00005,
1.21094,0.57849,-1.09069,0.25872,0.16995,0.51277,0.82691,,,0.95664,0.27575,-0.09383,0.00005,
1.21875,0.44138,-1.05468,0.29390,0.17189,0.51424,0.82643,,,0.95662,0.27578,-0.09390,0.00006,
1.22656,0.64704,-0.91066,0.15319,0.15202,0.51424,0.83562,,,0.95661,0.27582,-0.09396,0.00005,
1.23438,0.68132,-0.73064,0.32908,0.15202,0.50886,0.84045,,,0.95659,0.27586,-0.09402,0.00007,
1.24219,0.85271,-1.05468,0.18836,0.16268,0.52108,0.84142,,,0.95657,0.27592,-0.09409,0.00006,
1.25000,0.33854,-0.91066,0.43462,0.16365,0.51717,0.82788,,,0.95655,0.27594,-0.09416,0.00008,
1.25781,0.40710,-1.09069,0.25872,0.17044,0.51961,0.83513,,,0.95654,0.27596,-0.09423,0.00008,
1.26563,0.40710,-0.94667,0.22354,0.15153,0.52010,0.83417,,,0.95652,0.27599,-0.09430,0.00008,
1.27344,0.44138,-1.30672,0.39944,0.16898,0.50838,0.81918,,,0.95651,0.27601,-0.09439,0.00008,
1.28125,0.33854,-1.05468,0.39944,0.16559,0.50349,0.81627,,,0.95649,0.27603,-0.09447,0.00009,
1.28906,0.26999,-1.09069,0.36426,0.16510,0.49616,0.81772,,,0.95648,0.27605,-0.09455,0.00009,
1.29688,0.61277,-0.98267,0.22354,0.16317,0.51228,0.83707,,,0.95646,0.27609,-0.09461,0.00009,
1.30469,0.68132,-0.94667,0.08283,0.15299,0.51815,0.84964,,,0.95645,0.27613,-0.09468,0.00009,
1.31250,0.74988,-0.76665,0.29390,0.15783,0.51766,0.84239,,,0.95643,0.27618,-0.09473,0.00009,
1.32031,0.40710,-0.98267,0.22354,0.17577,0.51180,0.83030,,,0.95641,0.27620,-0.09480,0.00009,
1.32813,0.37282,-0.91066,0.15319,0.17092,0.51424,0.82498,,,0.95640,0.27623,-0.09486,0.00009,
1.33594,0.64704,-0.94667,0.15319,0.15589,0.50545,0.82836,,,0.95638,0.27627,-0.09493,0.00009,
1.34375,0.37282,-0.62263,0.04765,0.15008,0.50838,0.81821,,,0.95637,0.27629,-0.09497,0.00008,
1.35156,0.20143,-0.73064,0.11801,0.15977,0.49909,0.82981,,,0.95636,0.27630,-0.09502,0.00007,
1.35938,0.26999,-0.69464,-0.02271,0.17141,0.52694,0.83417,,,0.95635,0.27632,-0.09506,0.00006,
1.36719,0.44138,-0.47861,-0.09307,0.16607,0.53085,0.83900,,,0.95634,0.27635,-0.09509,0.00005,
1.37500,0.50993,-0.58662,-0.05789,0.16559,0.52645,0.84142,,,0.95633,0.27638,-0.09513,0.00004,
1.38281,0.20143,-0.65863,0.08283,0.16365,0.49958,0.81337,,,0.95632,0.27640,-0.09518,0.00003,
1.39063,0.23571,-0.76665,0.18836,0.16656,0.50349,0.82256,,,0.95631,0.27641,-0.09523,0.00003,
1.39844,0.40710,-0.73064,0.01247,0.17432,0.50838,0.82933,,,0.95630,0.27644,-0.09528,0.00002,
1.40625,0.54421,-0.33459,0.04765,0.16317,0.51717,0.83562,,,0.95629,0.27647,-0.09530,0.00002,
1.41406,0.40710,-0.33459,0.01247,0.14959,0.50740,0.82933,,,0.95628,0.27650,-0.09532,0.00002,
1.42188,0.40710,-0.44260,0.04765,0.15735,0.50740,0.83610,,,0.95626,0.27652,-0.09535,0.00002,
1.42969,0.33854,-0.55062,-0.09307,0.16607,0.51815,0.83223,,,0.95625,0.27655,-0.09539,0.00000,
1.43750,0.47565,-0.69464,-0.05789,0.16753,0.53036,0.85012,,,0.95624,0.27658,-0.09543,-0.00001,
1.44531,0.30427,-0.58662,0.01247,0.16220,0.50496,0.81386,,,0.95623,0.27660,-0.09547,-0.00002,
1.45313,0.40710,-0.58662,0.11801,0.16171,0.49812,0.82933,,,0.95622,0.27662,-0.09551,-0.00002,
1.46094,0.33854,-0.69464,0.15319,0.16704,0.50056,0.81772,,,0.95621,0.27665,-0.09556,-0.00002,
1.46875,0.50993,-0.73064,0.11801,0.15492,0.52401,0.84529,,,0.95619,0.27668,-0.09561,-0.00002,
1.47656,0.47565,-0.76665,0.22354,0.15783,0.52498,0.84142,,,0.95618,0.27671,-0.09566,-0.00002,
1.48438,0.47565,-0.80265,0.39944,0.15008,0.50349,0.83030,,,0.95617,0.27674,-0.09572,-0.00001,
1.49219,0.37282,-1.19870,0.32908,0.17674,0.51424,0.82885,,,0.95615,0.27676,-0.09580,-0.00001,
1.50000,0.20143,-0.87466,0.43462,0.16171,0.52010,0.83513,,,0.95614,0.27677,-0.09587,0.00001,
1.50781,0.30427,-1.05468,0.32908,0.17577,0.51228,0.83320,,,0.95613,0.27679,-0.09594,0.00001,
1.51563,0.40710,-0.94667,0.36426,0.15880,0.49714,0.83175,,,0.95612,0.27681,-0.09601,0.00002,
1.52344,0.37282,-0.98267,0.29390,0.15929,0.50203,0.82353,,,0.95610,0.27683,-0.09608,0.00002,
1.53125,0.40710,-1.01868,0.39944,0.16801,0.50789,0.83852,,,0.95609,0.27686,-0.09616,0.00003,
1.53906,0.33854,-0.83866,0.29390,0.16753,0.52156,0.83707,,,0.95608,0.27688,-0.09622,0.00004,
1.54688,0.47565,-0.94667,0.15319,0.16462,0.52254,0.83707,,,0.95606,0.27691,-0.09628,0.00003,
1.55469,0.30427,-0.80265,0.25872,0.16753,0.50349,0.81772,,,0.95605,0.27692,-0.09634,0.00004,
1.56250,0.26999,-0.80265,0.25872,0.17189,0.50496,0.82159,,,0.95604,0.27694,-0.09640,0.00004,
1.57031,0.30427,-1.01868,0.18836,0.17626,0.50935,0.82788,,,0.95603,0.27696,-0.09647,0.00003,
1.57813,0.57849,-0.76665,0.08283,0.15056,0.50838,0.83562,,,0.95601,0.27700,-0.09652,0.00003,
1.58594,0.71560,-0.69464,0.18836,0.16510,0.51766,0.83417,,,0.95599,0.27704,-0.09657,0.00003,
1.59375,0.61277,-0.73064,0.15319,0.15929,0.51033,0.83126,,,0.95598,0.27708,-0.09662,0.00003,
1.60156,0.47565,-0.94667,0.11801,0.16074,0.50838,0.84142,,,0.95596,0.27711,-0.09668,0.00003,
1.60938,0.50993,-0.94667,0.08283,0.17189,0.52254,0.83513,,,0.95595,0.27714,-0.09674,0.00002,
1.61719,0.64704,-0.94667,0.04765,0.16801,0.52547,0.83948,,,0.95593,0.27719,-0.09681,0.00001,
1.62500,0.50993,-0.98267,0.18836,0.16123,0.50154,0.82014,,,0.95591,0.27722,-0.09687,0.00000,
1.63281,0.37282,-0.58662,0.01247,0.16171,0.50691,0.82159,,,0.95590,0.27724,-0.09691,-0.00000,
1.64063,0.50993,-0.73064,0.01247,0.17141,0.52743,0.84239,,,0.95589,0.27727,-0.09696,-0.00001,
1.64844,0.68132,-0.65863,-0.02271,0.15395,0.51961,0.83803,,,0.95587,0.27732,-0.09700,-0.00002,
1.65625,0.61277,-0.69464,0.04765,0.15929,0.52547,0.83610,,,0.95585,0.27736,-0.09705,-0.00003,
1.66406,0.37282,-0.80265,0.04765,0.16607,0.52010,0.82159,,,0.95584,0.27738,-0.09710,-0.00004,
1.67188,0.26999,-0.83866,0.01247,0.17383,0.51228,0.82498,,,0.95583,0.27740,-0.09716,-0.00005,
1.67969,0.37282,-0.83866,0.18836,0.16947,0.52254,0.83465,,,0.95582,0.27742,-0.09722,-0.00005,
1.68750,0.50993,-0.44260,0.15319,0.14717,0.50691,0.82740,,,0.95580,0.27746,-0.09725,-0.00005,
1.69531,0.54421,-0.80265,0.04765,0.16123,0.50496,0.81627,,,0.95579,0.27749,-0.09730,-0.00006,
1.70313,0.30427,-0.58662,0.15319,0.15686,0.49958,0.81869,,,0.95578,0.27751,-0.09734,-0.00006,
1.71094,0.47565,-0.69464,0.08283,0.16510,0.52059,0.83755,,,0.95577,0.27754,-0.09739,-0.00006,
1.71875,0.54421,-0.47861,0.01247,0.16317,0.53133,0.84674,,,0.95575,0.27758,-0.09742,-0.00006,
1.72656,0.57849,-0.58662,-0.02271,0.15880,0.52596,0.83948,,,0.95574,0.27761,-0.09746,-0.00007,
1.73438,0.40710,-0.62263,0.04765,0.16074,0.50300,0.82353,,,0.95572,0.27764,-0.09750,-0.00008,
1.74219,0.23571,-0.65863,0.11801,0.17480,0.50056,0.81579,,,0.95572,0.27765,-0.09754,-0.00008,
1.75000,0.57849,-0.44260,0.01247,0.15638,0.51375,0.84722,,,0.95570,0.27769,-0.09757,-0.00009,
1.75781,0.68132,-0.51461,-0.12824,0.15444,0.51228,0.82643,,,0.95569,0.27774,-0.09760,-0.00010,
1.76563,0.54421,-0.44260,0.04765,0.15735,0.50496,0.82449,,,0.95567,0.27777,-0.09763,-0.00010,
1.77344,0.44138,-0.55062,-0.16342,0.16656,0.52792,0.83803,,,0.95566,0.27780,-0.09767,-0.00012,
1.78125,0.61277,-0.73064,-0.09307,0.18159,0.52059,0.83223,,,0.95564,0.27784,-0.09771,-0.00014,
1.78906,0.64704,-0.65863,-0.19860,0.16559,0.52987,0.84384,,,0.95563,0.27789,-0.09775,-0.00016,
1.79688,0.47565,-0.91066,-0.02271,0.15638,0.50056,0.81386,,,0.95561,0.27792,-0.09781,-0.00017,
1.80469,0.40710,-0.62263,0.08283,0.16462,0.50056,0.82546,,,0.95560,0.27794,-0.09785,-0.00018,
1.81250,0.30427,-0.91066,0.18836,0.16656,0.51375,0.82691,,,0.95559,0.27796,-0.09792,-0.00018,
1.82031,0.40710,-0.62263,0.18836,0.16220,0.52498,0.84190,,,0.95558,0.27799,-0.09796,-0.00018,
1.82813,0.30427,-0.83866,0.15319,0.16171,0.51619,0.82933,,,0.95557,0.27801,-0.09802,-0.00018,
1.83594,0.57849,-0.76665,0.11801,0.16123,0.51912,0.84190,,,0.95555,0.27804,-0.09807,-0.00018,
1.84375,0.16715,-0.83866,0.25872,0.15735,0.50789,0.82353,,,0.95554,0.27805,-0.09813,-0.00018,
1.85156,0.20143,-0.94667,0.22354,0.16850,0.51326,0.81918,,,0.95553,0.27806,-0.09819,-0.00018,
1.85938,0.54421,-0.69464,0.22354,0.16559,0.51521,0.83707,,,0.95552,0.27810,-0.09824,-0.00018,
1.86719,0.40710,-0.83866,0.18836,0.16317,0.49909,0.81386,,,0.95550,0.27812,-0.09830,-0.00018,
1.87500,0.33854,-0.83866,0.32908,0.16074,0.49861,0.82401,,,0.95549,0.27814,-0.09836,-0.00017,
1.88281,0.47565,-0.83866,0.15319,0.16414,0.53524,0.84867,,,0.95548,0.27817,-0.09842,-0.00017,
1.89063,0.61277,-0.87466,0.15319,0.16607,0.53182,0.85302,,,0.95546,0.27821,-0.09848,-0.00018,
1.89844,0.44138,-0.94667,0.15319,0.16074,0.51766,0.84287,,,0.95544,0.27824,-0.09855,-0.00018,
1.90625,0.23571,-1.01868,0.32908,0.16947,0.49763,0.81386,,,0.95543,0.27825,-0.09862,-0.00018,
1.91406,0.09860,-0.76665,0.39944,0.15977,0.50545,0.82498,,,0.95542,0.27826,-0.09868,-0.00017,
1.92188,0.13288,-0.94667,0.57533,0.17044,0.50691,0.82449,,,0.95542,0.27826,-0.09875,-0.00014,
1.92969,0.47565,-0.51461,0.25872,0.16171,0.51375,0.84239,,,0.95540,0.27829,-0.09879,-0.00013,
1.93750,0.40710,-0.87466,0.36426,0.17044,0.50886,0.82498,,,0.95539,0.27831,-0.09885,-0.00012,
1.94531,0.33854,-0.80265,0.43462,0.16365,0.50203,0.82933,,,0.95538,0.27833,-0.09891,-0.00011,
1.95313,0.30427,-1.01868,0.43462,0.16607,0.52498,0.83803,,,0.95537,0.27835,-0.09899,-0.00010,
1.96094,0.44138,-1.09069,0.36426,0.17819,0.52743,0.84480,,,0.95535,0.27838,-0.09906,-0.00009,
1.96875,0.30427,-0.76665,0.36426,0.16365,0.49909,0.81337,,,0.95534,0.27839,-0.09912,-0.00008,
1.97656,0.26999,-0.80265,0.50497,0.15444,0.49568,0.80709,,,0.95533,0.27841,-0.09918,-0.00006,
1.98438,0.23571,-0.87466,0.32908,0.16414,0.50251,0.81531,,,0.95532,0.27842,-0.09925,-0.00006,
1.99219,0.61277,-0.80265,0.22354,0.16268,0.51717,0.83803,,,0.95530,0.27846,-0.09930,-0.00005,
2.00000,0.64704,-0.83866,0.22354,0.16801,0.51766,0.83658,,,0.95528,0.27850,-0.09936,-0.00005,
2.00781,0.54421,-0.80265,0.18836,0.15929,0.51863,0.83707,1021.933,25.1,0.95527,0.27853,-0.09942,-0.00005,
2.01563,0.23571,-0.91066,0.25872,0.17092,0.51961,0.82449,,,0.95526,0.27855,-0.09948,-0.00005,
2.02344,0.20143,-0.80265,0.32908,0.16559,0.51961,0.83030,,,0.95525,0.27856,-0.09954,-0.00004,
2.03125,0.47565,-0.73064,0.25872,0.17092,0.52889,0.84335,,,0.95523,0.27859,-0.09959,-0.00003,
2.03906,0.33854,-0.65863,0.22354,0.16171,0.50349,0.81966,,,0.95522,0.27861,-0.09964,-0.00003,
2.04688,0.33854,-0.65863,0.22354,0.15492,0.50349,0.81966,,,0.95521,0.27863,-0.09969,-0.00002,
2.05469,0.26999,-0.62263,0.22354,0.15929,0.49861,0.81821,,,0.95520,0.27864,-0.09973,-0.00002,
2.06250,0.40710,-0.80265,0.29390,0.16365,0.52010,0.83852,,,0.95519,0.27867,-0.09979,-0.00001,
2.07031,0.68132,-0.87466,0.18836,0.16607,0.52205,0.84142,,,0.95517,0.27871,-0.09985,-0.00001,
2.07813,0.20143,-0.80265,0.29390,0.16801,0.51180,0.81579,,,0.95516,0.27872,-0.09991,-0.00001,
2.08594,0.20143,-0.94667,0.29390,0.16559,0.50398,0.81966,,,0.95515,0.27873,-0.09997,-0.00001,
2.09375,0.33854,-0.76665,0.15319,0.16559,0.51033,0.82159,,,0.95514,0.27876,-0.10003,-0.00001,
2.10156,0.64704,-0.62263,0.01247,0.16026,0.51717,0.83368,,,0.95512,0.27880,-0.10007,-0.00001,
2.10938,0.68132,-0.65863,0.18836,0.15347,0.50838,0.83368,,,0.95510,0.27884,-0.10011,-0.00001,
2.11719,0.47565,-0.47861,0.04765,0.15735,0.50545,0.83126,,,0.95509,0.27887,-0.10015,-0.00001,
2.12500,0.44138,-0.80265,0.04765,0.16850,0.51815,0.83271,,,0.95508,0.27890,-0.10020,-0.00002,
2.13281,0.44138,-0.80265,0.04765,0.16704,0.52108,0.83562,,,0.95506,0.27893,-0.10025,-0.00003,
2.14063,0.68132,-0.87466,-0.09307,0.16947,0.53133,0.84093,,,0.95505,0.27897,-0.10031,-0.00005,
2.14844,0.44138,-0.55062,0.08283,0.16171,0.49616,0.81337,,,0.95503,0.27900,-0.10035,-0.00005,
2.15625,0.37282,-0.62263,0.15319,0.15929,0.49372,0.81144,,,0.95502,0.27902,-0.10039,-0.00005,
2.16406,0.30427,-0.51461,0.15319,0.16026,0.50398,0.81627,,,0.95501,0.27904,-0.10042,-0.00005,
2.17188,0.54421,-0.69464,0.08283,0.15444,0.53036,0.83803,,,0.95500,0.27908,-0.10047,-0.00005,
2.17969,0.57849,-0.80265,0.18836,0.16753,0.52010,0.83900,,,0.95498,0.27911,-0.10053,-0.00005,
2.18750,0.30427,-0.76665,0.25872,0.16607,0.50886,0.82498,,,0.95497,0.27913,-0.10058,-0.00005,
2.19531,0.33854,-0.91066,0.11801,0.16704,0.51863,0.83320,,,0.95496,0.27915,-0.10064,-0.00005,
2.20313,0.30427,-0.83866,0.04765,0.16607,0.52254,0.83223,,,0.95495,0.27917,-0.10070,-0.00006,
2.21094,0.37282,-0.62263,0.15319,0.15395,0.50398,0.82885,,,0.95493,0.27920,-0.10074,-0.00006,
2.21875,0.40710,-0.51461,0.15319,0.15395,0.50593,0.82691,,,0.95492,0.27922,-0.10078,-0.00006,
2.22656,0.47565,-0.80265,0.11801,0.15880,0.50105,0.81531,,,0.95491,0.27925,-0.10083,-0.00007,
2.23438,0.54421,-0.83866,0.11801,0.16317,0.52254,0.84093,,,0.95489,0.27929,-0.10089,-0.00007,
2.24219,0.64704,-0.73064,0.04765,0.16462,0.52596,0.84384,,,0.95488,0.27933,-0.10094,-0.00008,
2.25000,0.61277,-0.87466,-0.02271,0.15880,0.51961,0.84480,,,0.95486,0.27937,-0.10100,-0.00009,
2.25781,0.33854,-0.83866,0.08283,0.16268,0.51082,0.81966,,,0.95485,0.27939,-0.10105,-0.00010,
2.26563,0.23571,-0.80265,0.15319,0.16268,0.50984,0.81627,,,0.95484,0.27940,-0.10111,-0.00010,
2.27344,0.20143,-0.80265,0.08283,0.15929,0.50545,0.83320,,,0.95483,0.27942,-0.10116,-0.00011,
2.28125,0.54421,-0.76665,0.11801,0.16268,0.51033,0.83320,,,0.95481,0.27945,-0.10121,-0.00011,
2.28906,0.47565,-0.65863,0.11801,0.16220,0.50593,0.82546,,,0.95480,0.27948,-0.10126,-0.00012,
2.29688,0.37282,-0.91066,0.08283,0.16317,0.52156,0.82885,,,0.95478,0.27951,-0.10132,-0.00012,
2.30469,0.47565,-0.80265,0.11801,0.15929,0.52010,0.83948,,,0.95477,0.27954,-0.10137,-0.00013,
2.31250,0.57849,-0.87466,0.08283,0.16365,0.52108,0.83852,,,0.95475,0.27957,-0.10143,-0.00014,
2.32031,0.40710,-0.76665,0.22354,0.16026,0.49665,0.81772,,,0.95474,0.27960,-0.10149,-0.00013,
2.32813,0.37282,-0.76665,0.08283,0.16753,0.50984,0.81772,,,0.95473,0.27962,-0.10154,-0.00014,
2.33594,0.30427,-0.80265,0.18836,0.16510,0.49568,0.81627,,,0.95471,0.27964,-0.10159,-0.00014,
2.34375,0.64704,-0.98267,0.15319,0.16898,0.52010,0.84045,,,0.95470,0.27968,-0.10166,-0.00015,
2.35156,0.71560,-0.69464,0.01247,0.15299,0.51912,0.83755,,,0.95468,0.27973,-0.10171,-0.00015,
2.35938,0.64704,-0.65863,0.11801,0.16850,0.52450,0.83078,,,0.95466,0.27977,-0.10175,-0.00015,
2.36719,0.20143,-0.62263,0.08283,0.16026,0.51912,0.82836,,,0.95465,0.27978,-0.10179,-0.00016,
2.37500,0.20143,-0.80265,0.22354,0.17722,0.50886,0.82836,,,0.95464,0.27979,-0.10185,-0.00016,
2.38281,0.33854,-0.83866,0.25872,0.16607,0.51815,0.83803,,,0.95463,0.27981,-0.10191,-0.00015,
2.39063,0.40710,-0.80265,0.18836,0.16607,0.51033,0.82111,,,0.95462,0.27984,-0.10196,-0.00015,
2.39844,0.30427,-0.80265,0.29390,0.15686,0.50056,0.81724,,,0.95461,0.27986,-0.10202,-0.00015,
2.40625,0.44138,-0.69464,0.18836,0.16462,0.52059,0.83900,,,0.95459,0.27988,-0.10207,-0.00015,
2.41406,0.74988,-0.80265,0.04765,0.16510,0.51473,0.84239,,,0.95457,0.27993,-0.10212,-0.00015,
2.42188,0.64704,-0.55062,-0.12824,0.15250,0.52352,0.84335,,,0.95456,0.27997,-0.10216,-0.00017,
2.42969,0.33854,-0.87466,0.01247,0.17141,0.49909,0.81724,,,0.95454,0.28000,-0.10221,-0.00018,
2.43750,0.30427,-0.58662,0.01247,0.15250,0.50056,0.82063,,,0.95453,0.28002,-0.10225,-0.00019,
2.44531,0.47565,-0.91066,0.15319,0.17092,0.50593,0.81579,,,0.95452,0.28005,-0.10232,-0.00019,
2.45313,0.98982,-0.65863,0.08283,0.16074,0.52059,0.84045,,,0.95450,0.28011,-0.10236,-0.00019,
2.46094,0.50993,-0.58662,0.11801,0.16220,0.51033,0.82981,,,0.95448,0.28014,-0.10240,-0.00019,
2.46875,0.57849,-0.65863,0.18836,0.15541,0.50447,0.82788,,,0.95447,0.28018,-0.10245,-0.00019,
2.47656,0.37282,-0.69464,0.15319,0.15395,0.52059,0.83755,,,0.95445,0.28020,-0.10249,-0.00019,
2.48438,0.50993,-0.87466,0.18836,0.16171,0.52401,0.83562,,,0.95444,0.28023,-0.10256,-0.00019,
2.49219,0.40710,-0.80265,0.22354,0.15929,0.52987,0.85157,,,0.95442,0.28026,-0.10261,-0.00019,
2.50000,0.09860,-0.83866,0.43462,0.15977,0.49861,0.81434,,,0.95442,0.28026,-0.10267,-0.00018,
2.50781,0.13288,-0.87466,0.32908,0.16947,0.50691,0.82014,,,0.95441,0.28027,-0.10274,-0.00017,
2.51563,0.44138,-0.65863,0.22354,0.14765,0.52254,0.83852,,,0.95440,0.28030,-0.10278,-0.00017,
2.52344,0.54421,-1.05468,0.25872,0.16559,0.52352,0.84190,,,0.95438,0.28033,-0.10286,-0.00017,
2.53125,0.54421,-1.05468,0.22354,0.16656,0.51570,0.84190,,,0.95436,0.28036,-0.10293,-0.00017,
2.53906,0.06432,-1.01868,0.29390,0.16704,0.49812,0.80999,,,0.95435,0.28036,-0.10300,-0.00017,
2.54688,0.16715,-0.69464,0.18836,0.16607,0.51277,0.81531,,,0.95434,0.28037,-0.10305,-0.00017,
2.55469,0.23571,-0.73064,0.15319,0.16268,0.50935,0.82643,,,0.95433,0.28039,-0.10310,-0.00017,
2.56250,0.37282,-0.94667,0.22354,0.17044,0.50154,0.82643,,,0.95432,0.28041,-0.10317,-0.00017,
2.57031,0.23571,-0.69464,0.22354,0.16365,0.49372,0.81241,,,0.95431,0.28043,-0.10322,-0.00017,
2.57813,0.26999,-0.69464,0.25872,0.15735,0.49763,0.81144,,,0.95430,0.28044,-0.10327,-0.00016,
2.58594,0.54421,-0.83866,0.08283,0.17529,0.53817,0.84915,,,0.95428,0.28048,-0.10332,-0.00017,
2.59375,0.50993,-0.69464,0.11801,0.16559,0.52254,0.84287,,,0.95427,0.28051,-0.10337,-0.00017,
2.60156,0.44138,-0.47861,0.18836,0.15105,0.52010,0.84287,,,0.95426,0.28054,-0.10341,-0.00017,
2.60938,0.16715,-0.55062,0.18836,0.16704,0.50838,0.82788,,,0.95425,0.28054,-0.10345,-0.00016,
2.61719,-0.03851,-0.80265,0.15319,0.16559,0.51082,0.82208,,,0.95425,0.28054,-0.10350,-0.00017,
2.62500,0.40710,-0.51461,0.18836,0.15492,0.51180,0.83513,,,0.95423,0.28057,-0.10354,-0.00016,
2.63281,0.54421,-0.69464,0.04765,0.15832,0.50496,0.82594,,,0.95422,0.28060,-0.10358,-0.00017,
2.64063,0.47565,-0.65863,0.15319,0.15202,0.50251,0.82401,,,0.95420,0.28063,-0.10363,-0.00017,
2.64844,0.37282,-0.73064,0.01247,0.16559,0.52108,0.83658,,,0.95419,0.28066,-0.10368,-0.00018,
2.65625,0.54421,-0.76665,-0.05789,0.16704,0.51766,0.83271,,,0.95418,0.28069,-0.10373,-0.00019,
2.66406,0.71560,-0.62263,-0.05789,0.15880,0.52694,0.83320,,,0.95416,0.28074,-0.10377,-0.00020,
2.67188,0.54421,-0.65863,-0.12824,0.15832,0.50838,0.82498,,,0.95414,0.28077,-0.10381,-0.00022,
2.67969,0.44138,-0.51461,-0.05789,0.16365,0.50056,0.81772,,,0.95413,0.28080,-0.10384,-0.00023,
2.68750,0.50993,-0.65863,-0.09307,0.17480,0.50545,0.81724,,,0.95412,0.28084,-0.10388,-0.00025,
2.69531,0.78416,-0.29858,-0.16342,0.14426,0.52010,0.83997,,,0.95410,0.28089,-0.10390,-0.00026,
2.70313,0.88699,-0.47861,-0.30414,0.15832,0.51717,0.83997,,,0.95408,0.28095,-0.10392,-0.00028,
2.71094,0.54421,-0.44260,-0.09307,0.15444,0.51766,0.82836,,,0.95407,0.28099,-0.10395,-0.00029,
2.71875,0.30427,-0.69464,0.04765,0.16995,0.51521,0.82981,,,0.95406,0.28100,-0.10399,-0.00030,
2.72656,0.40710,-0.62263,0.04765,0.16414,0.52352,0.83562,,,0.95404,0.28103,-0.10404,-0.00031,
2.73438,0.50993,-0.51461,0.01247,0.15735,0.50691,0.82498,,,0.95403,0.28106,-0.10407,-0.00031,
2.74219,0.54421,-0.94667,0.08283,0.15783,0.50496,0.82304,,,0.95401,0.28110,-0.10413,-0.00032,
2.75000,0.37282,-0.94667,0.22354,0.15638,0.49128,0.81289,,,0.95400,0.28112,-0.10420,-0.00032,
2.75781,0.71560,-0.94667,0.08283,0.17432,0.52938,0.83900,,,0.95398,0.28117,-0.10426,-0.00033,
2.76563,0.61277,-0.91066,0.22354,0.16317,0.52987,0.84625,,,0.95396,0.28121,-0.10432,-0.00033,
2.77344,0.68132,-0.91066,0.18836,0.15589,0.52547,0.84239,,,0.95394,0.28125,-0.10439,-0.00033,
2.78125,0.30427,-1.05468,0.36426,0.15880,0.49616,0.82063,,,0.95393,0.28127,-0.10446,-0.00032,
2.78906,0.47565,-1.16270,0.18836,0.17626,0.51277,0.83078,,,0.95391,0.28130,-0.10454,-0.00033,
2.79688,0.44138,-0.87466,0.04765,0.16704,0.52254,0.83126,,,0.95390,0.28132,-0.10460,-0.00034,
2.80469,0.57849,-0.69464,0.01247,0.15929,0.50886,0.82643,,,0.95388,0.28136,-0.10465,-0.00035,
2.81250,0.57849,-0.62263,0.08283,0.15347,0.50593,0.82981,,,0.95386,0.28140,-0.10469,-0.00035,
2.82031,0.44138,-0.69464,0.04765,0.16898,0.51961,0.83707,,,0.95385,0.28143,-0.10473,-0.00036,
2.82813,0.37282,-0.69464,0.15319,0.15638,0.52645,0.83803,,,0.95384,0.28145,-0.10478,-0.00036,
2.83594,0.23571,-0.65863,0.04765,0.16026,0.52254,0.84529,,,0.95383,0.28146,-0.10483,-0.00037,
2.84375,0.30427,-0.91066,0.18836,0.17529,0.50105,0.82643,,,0.95382,0.28148,-0.10489,-0.00037,
2.85156,0.20143,-0.91066,0.22354,0.17092,0.50203,0.81337,,,0.95381,0.28149,-0.10495,-0.00037,
2.85938,0.20143,-1.01868,0.29390,0.16220,0.49812,0.80660,,,0.95379,0.28151,-0.10502,-0.00037,
2.86719,0.50993,-0.87466,0.08283,0.15541,0.52254,0.84480,,,0.95378,0.28154,-0.10508,-0.00038,
2.87500,0.57849,-0.91066,0.25872,0.16123,0.51228,0.83368,,,0.95376,0.28157,-0.10515,-0.00037,
2.88281,0.71560,-0.73064,0.18836,0.15153,0.50789,0.83030,,,0.95374,0.28162,-0.10520,-0.00037,
2.89063,0.44138,-0.91066,0.11801,0.18062,0.52254,0.82836,,,0.95373,0.28165,-0.10526,-0.00038,
2.89844,0.30427,-0.76665,0.08283,0.15977,0.52205,0.83803,,,0.95372,0.28167,-0.10531,-0.00038,
2.90625,0.54421,-0.76665,0.08283,0.16074,0.52352,0.84239,,,0.95370,0.28170,-0.10536,-0.00039,
2.91406,0.50993,-0.65863,0.11801,0.15541,0.50593,0.82546,,,0.95369,0.28173,-0.10541,-0.00039,
2.92188,0.54421,-0.65863,0.22354,0.16365,0.50349,0.82304,,,0.95367,0.28177,-0.10545,-0.00038,
2.92969,0.50993,-0.58662,0.11801,0.15880,0.52743,0.84819,,,0.95366,0.28180,-0.10549,-0.00038,
2.93750,0.30427,-0.76665,0.22354,0.15880,0.52840,0.85206,,,0.95364,0.28182,-0.10555,-0.00038,
2.94531,0.47565,-0.80265,0.15319,0.15977,0.51961,0.83513,,,0.95363,0.28185,-0.10560,-0.00038,
2.95313,0.30427,-0.80265,0.18836,0.17335,0.51766,0.82498,,,0.95362,0.28186,-0.10566,-0.00039,
2.96094,0.13288,-0.94667,0.36426,0.17141,0.51180,0.82788,,,0.95361,0.28187,-0.10573,-0.00038,
2.96875,0.30427,-1.05468,0.22354,0.17286,0.50056,0.82063,,,0.95360,0.28189,-0.10580,-0.00038,
2.97656,0.61277,-0.80265,0.22354,0.15492,0.50838,0.83465,,,0.95358,0.28193,-0.10586,-0.00038,
2.98438,0.64704,-0.76665,0.11801,0.16510,0.51521,0.84045,,,0.95356,0.28197,-0.10591,-0.00038,
2.99219,0.50993,-0.80265,0.22354,0.16365,0.50691,0.81869,,,0.95354,0.28200,-0.10597,-0.00038,
3.00000,0.54421,-0.80265,0.04765,0.15832,0.51375,0.84577,,,0.95353,0.28203,-0.10602,-0.00039,
3.00781,0.64704,-0.73064,0.08283,0.16268,0.53133,0.84625,1021.892,25.1,0.95351,0.28208,-0.10607,-0.00039,
3.01563,0.50993,-0.83866,0.15319,0.17432,0.53475,0.85351,,,0.95349,0.28211,-0.10612,-0.00039,
3.02344,0.26999,-0.73064,0.29390,0.16365,0.50203,0.81241,,,0.95348,0.28212,-0.10618,-0.00039,
3.03125,0.16715,-0.83866,0.32908,0.15832,0.49616,0.82208,,,0.95347,0.28213,-0.10624,-0.00038,
3.03906,0.61277,-0.83866,0.08283,0.16365,0.52645,0.85544,,,0.95346,0.28217,-0.10630,-0.00039,
3.04688,0.50993,-0.73064,0.25872,0.15832,0.52792,0.83658,,,0.95344,0.28220,-0.10635,-0.00038,
3.05469,0.33854,-0.55062,0.25872,0.15250,0.50935,0.84239,,,0.95343,0.28222,-0.10639,-0.00037,
3.06250,0.09860,-0.87466,0.32908,0.17529,0.51521,0.82981,,,0.95342,0.28223,-0.10645,-0.00037,
3.07031,0.44138,-0.91066,0.32908,0.17674,0.52108,0.83078,,,0.95341,0.28225,-0.10652,-0.00036,
3.07813,0.30427,-0.80265,0.22354,0.16801,0.52352,0.83465,,,0.95340,0.28227,-0.10657,-0.00036,
3.08594,0.40710,-0.65863,0.22354,0.15589,0.50203,0.82643,,,0.95338,0.28230,-0.10662,-0.00035,
3.09375,0.33854,-0.62263,0.15319,0.16268,0.49372,0.81047,,,0.95337,0.28232,-0.10666,-0.00035,
3.10156,0.40710,-0.87466,0.04765,0.16510,0.49616,0.81724,,,0.95336,0.28234,-0.10672,-0.00036,
3.10938,0.57849,-0.69464,-0.02271,0.16074,0.52303,0.83707,,,0.95334,0.28238,-0.10677,-0.00037,
3.11719,0.50993,-0.73064,0.01247,0.16462,0.52010,0.84239,,,0.95333,0.28241,-0.10681,-0.00038,
3.12500,0.47565,-0.47861,0.01247,0.15541,0.51717,0.83658,,,0.95331,0.28244,-0.10685,-0.00039,
3.13281,0.37282,-0.76665,0.04765,0.16898,0.51131,0.82449,,,0.95330,0.28247,-0.10690,-0.00040,
3.14063,0.37282,-0.83866,0.08283,0.16898,0.52059,0.83223,,,0.95329,0.28249,-0.10695,-0.00041,
3.14844,0.54421,-0.58662,0.04765,0.15444,0.51082,0.83417,,,0.95327,0.28253,-0.10699,-0.00041,
3.15625,0.47565,-0.69464,0.11801,0.15589,0.50789,0.83030,,,0.95326,0.28256,-0.10704,-0.00041,
3.16406,0.37282,-0.80265,0.11801,0.15492,0.50593,0.82691,,,0.95325,0.28258,-0.10709,-0.00042,
3.17188,0.40710,-0.94667,0.25872,0.17335,0.52743,0.84432,,,0.95323,0.28260,-0.10716,-0.00042,
3.17969,0.47565,-0.80265,0.25872,0.16220,0.53329,0.85012,,,0.95322,0.28263,-0.10722,-0.00041,
3.18750,0.50993,-0.98267,0.25872,0.17529,0.53378,0.84529,,,0.95320,0.28266,-0.10729,-0.00041,
3.19531,0.33854,-0.58662,0.36426,0.15056,0.49128,0.82401,,,0.95319,0.28268,-0.10733,-0.00039,
3.20313,0.30427,-1.05468,0.25872,0.16414,0.50838,0.81821,,,0.95318,0.28270,-0.10740,-0.00040,
3.21094,0.26999,-0.83866,0.25872,0.16268,0.50545,0.81966,,,0.95316,0.28272,-0.10746,-0.00039,
3.21875,0.57849,-0.69464,0.15319,0.15686,0.51521,0.83562,,,0.95315,0.28275,-0.10751,-0.00039,
3.22656,0.57849,-0.51461,0.15319,0.15153,0.50740,0.82691,,,0.95313,0.28279,-0.10755,-0.00039,
3.23438,0.61277,-0.80265,0.15319,0.15299,0.50740,0.82208,,,0.95312,0.28283,-0.10760,-0.00039,
3.24219,0.40710,-0.94667,0.11801,0.17916,0.51912,0.82981,,,0.95310,0.28285,-0.10767,-0.00040,
3.25000,0.37282,-0.80265,0.25872,0.16850,0.52401,0.83658,,,0.95309,0.28288,-0.10772,-0.00039,
3.25781,0.40710,-0.58662,0.08283,0.15347,0.50251,0.82256,,,0.95308,0.28290,-0.10776,-0.00040,
3.26563,0.37282,-0.73064,0.22354,0.16123,0.50642,0.82208,,,0.95306,0.28292,-0.10782,-0.00039,
3.27344,0.20143,-0.55062,0.22354,0.15056,0.50349,0.81966,,,0.95306,0.28294,-0.10786,-0.00039,
3.28125,0.64704,-0.83866,0.11801,0.17383,0.52889,0.84867,,,0.95304,0.28298,-0.10791,-0.00039,
3.28906,0.61277,-0.62263,0.01247,0.16268,0.52645,0.85544,,,0.95302,0.28302,-0.10795,-0.00040,
3.29688,0.50993,-1.19870,0.22354,0.17577,0.52694,0.84335,,,0.95300,0.28305,-0.10803,-0.00040,
3.30469,0.33854,-0.94667,0.32908,0.16656,0.51521,0.82740,,,0.95299,0.28307,-0.10810,-0.00040,
3.31250,0.23571,-1.01868,0.39944,0.17238,0.51424,0.82981,,,0.95298,0.28308,-0.10818,-0.00039,
3.32031,0.30427,-0.80265,0.22354,0.16414,0.51473,0.83465,,,0.95296,0.28310,-0.10823,-0.00039,
3.32813,0.37282,-0.73064,0.25872,0.16317,0.49909,0.82401,,,0.95295,0.28312,-0.10829,-0.00038,
3.33594,0.44138,-0.73064,0.15319,0.15783,0.50105,0.82304,,,0.95294,0.28315,-0.10834,-0.00038,
3.34375,0.47565,-0.69464,0.18836,0.15202,0.48884,0.80515,,,0.95292,0.28318,-0.10838,-0.00038,
3.35156,0.44138,-1.01868,0.01247,0.18498,0.52450,0.84384,,,0.95291,0.28321,-0.10845,-0.00040,
3.35938,0.61277,-0.58662,0.01247,0.15977,0.52498,0.83997,,,0.95289,0.28325,-0.10849,-0.00040,
3.36719,0.37282,-0.69464,0.04765,0.16026,0.49616,0.81095,,,0.95288,0.28327,-0.10854,-0.00041,
3.37500,0.16715,-0.58662,0.18836,0.15783,0.49958,0.81869,,,0.95287,0.28328,-0.10858,-0.00041,
3.38281,0.16715,-0.80265,0.15319,0.16462,0.50789,0.82208,,,0.95286,0.28329,-0.10863,-0.00041,
3.39063,0.47565,-0.69464,0.01247,0.16026,0.52743,0.84335,,,0.95285,0.28332,-0.10868,-0.00042,
3.39844,0.37282,-0.58662,0.22354,0.15638,0.51766,0.83852,,,0.95284,0.28334,-0.10872,-0.00041,
3.40625,0.47565,-0.62263,0.11801,0.15202,0.50154,0.83562,,,0.95282,0.28337,-0.10876,-0.00042,
3.41406,0.26999,-0.98267,0.22354,0.17383,0.51326,0.83465,,,0.95281,0.28339,-0.10883,-0.00042,
3.42188,0.33854,-1.05468,0.18836,0.16947,0.52792,0.83707,,,0.95280,0.28341,-0.10890,-0.00042,
3.42969,0.33854,-0.80265,0.15319,0.16656,0.52645,0.83320,,,0.95278,0.28343,-0.10896,-0.00043,
3.43750,0.33854,-0.76665,0.18836,0.15832,0.50154,0.81869,,,0.95277,0.28345,-0.10901,-0.00043,
3.44531,0.26999,-0.73064,0.18836,0.16317,0.49958,0.81966,,,0.95276,0.28347,-0.10906,-0.00043,
3.45313,0.37282,-0.65863,-0.09307,0.15299,0.49714,0.80709,,,0.95275,0.28349,-0.10910,-0.00044,
3.46094,0.64704,-0.55062,-0.12824,0.16462,0.52743,0.84625,,,0.95273,0.28353,-0.10914,-0.00046,
3.46875,0.71560,-0.76665,-0.02271,0.16656,0.52498,0.84142,,,0.95271,0.28358,-0.10919,-0.00047,
3.47656,0.20143,-0.65863,0.08283,0.15541,0.50251,0.82111,,,0.95270,0.28359,-0.10923,-0.00047,
3.48438,0.40710,-0.58662,0.11801,0.16510,0.51912,0.83658,,,0.95269,0.28362,-0.10927,-0.00047,
3.49219,0.30427,-0.83866,0.15319,0.16462,0.52059,0.83610,,,0.95268,0.28364,-0.10933,-0.00048,
3.50000,0.44138,-0.73064,0.22354,0.15299,0.50496,0.83223,,,0.95267,0.28366,-0.10938,-0.00047,
3.50781,0.37282,-0.55062,0.29390,0.15153,0.50007,0.82933,,,0.95265,0.28369,-0.10942,-0.00046,
3.51563,0.37282,-0.62263,0.29390,0.15589,0.50935,0.82933,,,0.95264,0.28371,-0.10947,-0.00045,
3.52344,0.37282,-0.83866,0.15319,0.16656,0.53036,0.84384,,,0.95263,0.28373,-0.10952,-0.00046,
3.53125,0.44138,-1.01868,0.29390,0.17577,0.53036,0.85157,,,0.95261,0.28376,-0.10960,-0.00045,
3.53906,0.61277,-0.80265,0.18836,0.16656,0.52889,0.84577,,,0.95259,0.28380,-0.10965,-0.00045,
3.54688,0.23571,-0.87466,0.43462,0.15444,0.49323,0.81386,,,0.95258,0.28381,-0.10972,-0.00044,
3.55469,0.23571,-0.69464,0.18836,0.15735,0.50154,0.82063,,,0.95257,0.28382,-0.10977,-0.00044,
3.56250,0.20143,-0.94667,0.36426,0.16607,0.50154,0.81386,,,0.95256,0.28383,-0.10983,-0.00043,
3.57031,0.47565,-0.76665,0.25872,0.17044,0.50984,0.83368,,,0.95255,0.28386,-0.10989,-0.00043,
3.57813,0.44138,-0.69464,0.18836,0.15250,0.50691,0.82885,,,0.95253,0.28389,-0.10994,-0.00043,
3.58594,0.26999,-1.05468,0.18836,0.16995,0.52889,0.83707,,,0.95252,0.28390,-0.11001,-0.00043,
3.59375,0.33854,-0.76665,0.15319,0.17092,0.52498,0.84335,,,0.95251,0.28392,-0.11006,-0.00043,
3.60156,0.40710,-0.76665,0.11801,0.16995,0.52450,0.84674,,,0.95250,0.28395,-0.11012,-0.00044,
3.60938,0.30427,-0.73064,0.25872,0.15832,0.50251,0.82353,,,0.95248,0.28397,-0.11017,-0.00043,
3.61719,0.33854,-0.69464,0.22354,0.16656,0.50545,0.82014,,,0.95247,0.28399,-0.11022,-0.00043,
3.62500,0.33854,-0.58662,0.22354,0.15686,0.49519,0.81966,,,0.95246,0.28401,-0.11026,-0.00042,
3.63281,0.50993,-0.62263,0.22354,0.16365,0.52303,0.83900,,,0.95245,0.28404,-0.11030,-0.00042,
3.64063,0.57849,-0.65863,0.11801,0.15541,0.52498,0.84093,,,0.95243,0.28408,-0.11035,-0.00042,
3.64844,0.57849,-0.58662,0.04765,0.15977,0.51570,0.83271,,,0.95241,0.28411,-0.11039,-0.00042,
3.65625,0.20143,-0.69464,0.18836,0.16898,0.51180,0.82691,,,0.95241,0.28413,-0.11044,-0.00042,
3.66406,0.33854,-0.73064,0.11801,0.17189,0.51033,0.82836,,,0.95239,0.28415,-0.11049,-0.00043,
3.67188,0.47565,-0.73064,0.04765,0.16656,0.51131,0.82643,,,0.95238,0.28418,-0.11053,-0.00043,
3.67969,0.78416,-0.65863,0.01247,0.15395,0.51228,0.83852,,,0.95236,0.28423,-0.11058,-0.00044,
3.68750,0.50993,-0.65863,-0.02271,0.16898,0.50691,0.82063,,,0.95234,0.28426,-0.11062,-0.00045,
3.69531,0.50993,-0.69464,0.08283,0.16656,0.51766,0.84093,,,0.95233,0.28429,-0.11067,-0.00045,
3.70313,0.40710,-0.51461,0.08283,0.16317,0.52254,0.83465,,,0.95232,0.28432,-0.11070,-0.00046,
3.71094,0.57849,-0.55062,0.08283,0.15395,0.51815,0.85157,,,0.95230,0.28436,-0.11074,-0.00046,
3.71875,0.26999,-0.58662,0.15319,0.16074,0.50984,0.82836,,,0.95229,0.28437,-0.11078,-0.00046,
3.72656,0.20143,-0.65863,0.25872,0.16220,0.50349,0.81676,,,0.95228,0.28438,-0.11083,-0.00045,
3.73438,0.26999,-0.62263,0.08283,0.17044,0.50642,0.83126,,,0.95227,0.28440,-0.11087,-0.00045,
3.74219,0.74988,-0.62263,-0.05789,0.15202,0.52596,0.84190,,,0.95225,0.28445,-0.11091,-0.00046,
3.75000,0.50993,-0.58662,0.15319,0.16414,0.52205,0.84432,,,0.95224,0.28448,-0.11095,-0.00046,
3.75781,0.50993,-0.65863,0.04765,0.15541,0.50935,0.83803,,,0.95222,0.28451,-0.11099,-0.00047,
3.76563,0.54421,-0.83866,0.04765,0.17141,0.52401,0.83997,,,0.95221,0.28455,-0.11105,-0.00048,
3.77344,0.54421,-0.73064,0.08283,0.16850,0.52840,0.83417,,,0.95219,0.28458,-0.11110,-0.00048,
3.78125,0.44138,-0.69464,0.18836,0.16801,0.52840,0.82449,,,0.95218,0.28461,-0.11115,-0.00048,
3.78906,0.40710,-0.51461,0.11801,0.15977,0.49323,0.81434,,,0.95217,0.28464,-0.11118,-0.00048,
3.79688,0.33854,-0.55062,0.15319,0.15686,0.50349,0.82594,,,0.95216,0.28466,-0.11122,-0.00048,
3.80469,0.64704,-0.69464,0.01247,0.15589,0.53280,0.84529,,,0.95214,0.28470,-0.11127,-0.00049,
3.81250,0.50993,-0.69464,0.01247,0.15686,0.51668,0.84239,,,0.95212,0.28473,-0.11131,-0.00049,
3.82031,0.54421,-0.55062,0.01247,0.15347,0.52547,0.83948,,,0.95211,0.28477,-0.11135,-0.00050,
3.82813,0.16715,-0.76665,0.11801,0.17819,0.50496,0.82933,,,0.95210,0.28478,-0.11140,-0.00051,
3.83594,0.30427,-0.83866,0.11801,0.16607,0.51277,0.82159,,,0.95209,0.28480,-0.11146,-0.00051,
3.84375,0.30427,-0.62263,0.15319,0.16317,0.51766,0.83513,,,0.95208,0.28481,-0.11150,-0.00051,
3.85156,0.54421,-0.62263,-0.02271,0.15202,0.50154,0.82594,,,0.95206,0.28485,-0.11154,-0.00052,
3.85938,0.44138,-0.58662,0.08283,0.15929,0.50545,0.82401,,,0.95205,0.28488,-0.11158,-0.00052,
3.86719,0.40710,-0.62263,0.04765,0.15832,0.50691,0.82256,,,0.95204,0.28490,-0.11162,-0.00053,
3.87500,0.47565,-0.76665,0.11801,0.16462,0.52889,0.84529,,,0.95202,0.28493,-0.11167,-0.00053,
3.88281,0.71560,-0.94667,0.01247,0.16559,0.52547,0.84674,,,0.95200,0.28498,-0.11173,-0.00055,
3.89063,0.37282,-0.83866,0.15319,0.15929,0.49958,0.81918,,,0.95199,0.28500,-0.11179,-0.00055,
3.89844,0.37282,-0.83866,0.04765,0.16317,0.50154,0.82594,,,0.95197,0.28503,-0.11185,-0.00056,
3.90625,0.20143,-0.69464,0.18836,0.16268,0.50447,0.83078,,,0.95196,0.28504,-0.11190,-0.00056,
3.91406,0.57849,-0.80265,0.11801,0.15638,0.52205,0.83997,,,0.95195,0.28507,-0.11195,-0.00056,
3.92188,0.61277,-0.91066,0.08283,0.15492,0.51277,0.82981,,,0.95193,0.28511,-0.11201,-0.00057,
3.92969,0.47565,-0.80265,0.04765,0.15638,0.51082,0.83320,,,0.95191,0.28514,-0.11206,-0.00058,
3.93750,0.40710,-1.01868,0.08283,0.16995,0.53280,0.83948,,,0.95190,0.28517,-0.11213,-0.00059,
3.94531,0.30427,-0.94667,0.08283,0.17238,0.52401,0.84239,,,0.95188,0.28519,-0.11219,-0.00060,
3.95313,0.54421,-0.91066,0.15319,0.16607,0.52889,0.84093,,,0.95186,0.28522,-0.11226,-0.00061,
3.96094,0.50993,-0.76665,0.18836,0.15395,0.50251,0.81966,,,0.95185,0.28525,-0.11231,-0.00060,
3.96875,0.30427,-0.83866,0.32908,0.16947,0.50984,0.81772,,,0.95184,0.28527,-0.11237,-0.00060,
3.97656,0.16715,-0.91066,0.22354,0.16123,0.50545,0.81821,,,0.95183,0.28528,-0.11243,-0.00060,
3.98438,0.57849,-0.98267,0.15319,0.16995,0.52498,0.83900,,,0.95181,0.28532,-0.11250,-0.00060,
3.99219,0.71560,-0.80265,0.18836,0.15735,0.52743,0.83852,,,0.95179,0.28536,-0.11256,-0.00060,
4.00000,0.23571,-0.87466,0.22354,0.15929,0.50838,0.82111,,,0.95178,0.28538,-0.11262,-0.00060,
4.00781,0.06432,-0.73064,0.01247,0.16026,0.50642,0.82498,1021.954,25.1,0.95177,0.28538,-0.11267,-0.00061,
4.01563,0.23571,-0.87466,0.18836,0.16026,0.50984,0.82401,,,0.95176,0.28539,-0.11273,-0.00062,
4.02344,0.64704,-0.65863,0.04765,0.17383,0.51375,0.82981,,,0.95174,0.28543,-0.11277,-0.00062,
4.03125,0.44138,-0.58662,-0.02271,0.16171,0.50154,0.82256,,,0.95173,0.28546,-0.11281,-0.00063,
4.03906,0.47565,-0.62263,0.01247,0.16414,0.50740,0.82159,,,0.95171,0.28549,-0.11285,-0.00064,
4.04688,0.37282,-0.37059,-0.09307,0.16268,0.51863,0.83755,,,0.95170,0.28552,-0.11287,-0.00065,
4.05469,0.54421,-0.37059,-0.09307,0.16801,0.53378,0.84577,,,0.95169,0.28556,-0.11289,-0.00066,
4.06250,0.57849,-0.62263,0.01247,0.16801,0.52743,0.84819,,,0.95167,0.28559,-0.11293,-0.00067,
4.07031,0.09860,-0.33459,0.11801,0.15638,0.49568,0.80660,,,0.95167,0.28560,-0.11296,-0.00066,
4.07813,0.16715,-0.62263,0.04765,0.16123,0.50007,0.81724,,,0.95166,0.28561,-0.11300,-0.00067,
4.08594,0.40710,-0.69464,0.11801,0.16559,0.52059,0.83078,,,0.95165,0.28563,-0.11305,-0.00067,
4.09375,0.54421,-0.76665,0.04765,0.16123,0.50691,0.82401,,,0.95163,0.28567,-0.11310,-0.00068,
4.10156,0.47565,-0.65863,0.08283,0.15492,0.50886,0.83658,,,0.95162,0.28570,-0.11314,-0.00069,
4.10938,0.30427,-0.73064,0.11801,0.16656,0.51180,0.82788,,,0.95161,0.28572,-0.11319,-0.00069,
4.11719,0.47565,-0.47861,0.01247,0.16414,0.52401,0.84625,,,0.95159,0.28575,-0.11322,-0.00070,
4.12500,0.30427,-0.83866,-0.02271,0.17383,0.52792,0.83223,,,0.95158,0.28577,-0.11327,-0.00071,
4.13281,0.44138,-0.69464,0.04765,0.16753,0.50154,0.81434,,,0.95157,0.28580,-0.11332,-0.00072,
4.14063,0.47565,-0.69464,-0.02271,0.16074,0.50007,0.81289,,,0.95155,0.28583,-0.11337,-0.00073,
4.14844,0.44138,-0.87466,0.18836,0.16268,0.50545,0.81966,,,0.95154,0.28585,-0.11343,-0.00073,
4.15625,0.54421,-0.55062,0.11801,0.14862,0.53036,0.84432,,,0.95152,0.28589,-0.11346,-0.00073,
4.16406,0.54421,-0.62263,0.15319,0.16656,0.51766,0.84142,,,0.95151,0.28592,-0.11351,-0.00073,
4.17188,0.54421,-0.76665,0.15319,0.15832,0.51766,0.83948,,,0.95149,0.28596,-0.11356,-0.00073,
4.17969,0.26999,-0.94667,0.29390,0.16801,0.51424,0.82836,,,0.95148,0.28597,-0.11363,-0.00073,
4.18750,0.16715,-0.83866,0.25872,0.16123,0.51668,0.83320,,,0.95147,0.28598,-0.11369,-0.00072,
4.19531,0.26999,-0.91066,0.36426,0.17383,0.51619,0.83223,,,0.95145,0.28600,-0.11375,-0.00072,
4.20313,0.50993,-0.83866,0.25872,0.15977,0.50984,0.83030,,,0.95144,0.28603,-0.11381,-0.00071,
4.21094,0.47565,-0.91066,0.39944,0.16123,0.50838,0.82788,,,0.95142,0.28605,-0.11388,-0.00070,
4.21875,0.47565,-0.87466,0.36426,0.16607,0.52156,0.84142,,,0.95141,0.28608,-0.11394,-0.00069,
4.22656,0.50993,-0.76665,0.22354,0.15783,0.52694,0.84770,,,0.95139,0.28611,-0.11400,-0.00069,
4.23438,0.54421,-0.94667,0.25872,0.17577,0.52987,0.84529,,,0.95137,0.28615,-0.11406,-0.00068,
4.24219,0.33854,-0.87466,0.32908,0.15444,0.50300,0.82111,,,0.95136,0.28617,-0.11413,-0.00068,
4.25000,0.09860,-0.87466,0.36426,0.16753,0.50105,0.81918,,,0.95135,0.28617,-0.11419,-0.00067,
4.25781,0.20143,-0.83866,0.36426,0.17092,0.51131,0.82885,,,0.95134,0.28618,-0.11425,-0.00066,
4.26563,0.44138,-0.73064,0.22354,0.16607,0.50984,0.83223,,,0.95133,0.28621,-0.11430,-0.00066,
4.27344,0.57849,-0.58662,0.15319,0.15299,0.50984,0.83320,,,0.95131,0.28624,-0.11434,-0.00065,
4.28125,0.40710,-0.91066,0.22354,0.15832,0.50593,0.82836,,,0.95129,0.28627,-0.11441,-0.00065,
4.28906,0.33854,-0.91066,0.32908,0.16607,0.51424,0.83803,,,0.95128,0.28629,-0.11447,-0.00065,
4.29688,0.50993,-0.87466,0.22354,0.16850,0.52547,0.85012,,,0.95126,0.28632,-0.11453,-0.00065,
4.30469,0.64704,-0.91066,0.11801,0.16268,0.53085,0.85496,,,0.95124,0.28636,-0.11460,-0.00065,
4.31250,0.30427,-0.76665,0.29390,0.16607,0.49665,0.81144,,,0.95123,0.28638,-0.11465,-0.00064,
4.32031,0.23571,-0.76665,0.25872,0.15638,0.48933,0.81434,,,0.95122,0.28639,-0.11471,-0.00064,
4.32813,0.57849,-0.98267,0.11801,0.16898,0.52889,0.83852,,,0.95120,0.28643,-0.11477,-0.00065,
4.33594,0.57849,-0.73064,0.08283,0.15347,0.52498,0.83707,,,0.95119,0.28646,-0.11482,-0.00065,
4.34375,0.54421,-0.69464,0.22354,0.16171,0.51961,0.83755,,,0.95117,0.28650,-0.11487,-0.00065,
4.35156,0.33854,-0.73064,0.11801,0.16220,0.50545,0.82256,,,0.95116,0.28652,-0.11492,-0.00065,
4.35938,0.47565,-0.80265,0.04765,0.16801,0.50886,0.83513,,,0.95114,0.28655,-0.11497,-0.00066,
4.36719,0.40710,-0.65863,0.15319,0.16850,0.52645,0.83175,,,0.95113,0.28657,-0.11502,-0.00066,
4.37500,0.37282,-0.62263,0.18836,0.15589,0.50007,0.82111,,,0.95112,0.28660,-0.11506,-0.00066,
4.38281,0.44138,-0.55062,0.18836,0.14765,0.49372,0.82208,,,0.95110,0.28662,-0.11510,-0.00065,
4.39063,0.37282,-0.65863,0.15319,0.15056,0.49958,0.81966,,,0.95109,0.28665,-0.11515,-0.00065,
4.39844,0.44138,-0.76665,0.18836,0.16268,0.53036,0.84964,,,0.95108,0.28667,-0.11520,-0.00065,
4.40625,0.44138,-0.73064,0.22354,0.16123,0.52059,0.84142,,,0.95106,0.28670,-0.11525,-0.00065,
4.41406,0.57849,-0.76665,0.15319,0.15735,0.52254,0.85254,,,0.95105,0.28674,-0.11530,-0.00065,
4.42188,0.30427,-0.98267,0.25872,0.16850,0.50886,0.81869,,,0.95103,0.28675,-0.11537,-0.00065,
4.42969,0.23571,-0.98267,0.22354,0.17189,0.51131,0.82643,,,0.95102,0.28677,-0.11544,-0.00065,
4.43750,0.68132,-0.55062,0.08283,0.14814,0.52205,0.84045,,,0.95100,0.28681,-0.11548,-0.00065,
4.44531,0.61277,-0.80265,0.15319,0.15638,0.51180,0.83465,,,0.95098,0.28685,-0.11553,-0.00065,
4.45313,0.68132,-0.44260,0.18836,0.15250,0.50984,0.83417,,,0.95097,0.28689,-0.11557,-0.00064,
4.46094,0.37282,-0.65863,0.11801,0.16898,0.52645,0.83417,,,0.95095,0.28691,-0.11561,-0.00065,
4.46875,0.61277,-0.83866,0.11801,0.17480,0.52352,0.84335,,,0.95094,0.28695,-0.11567,-0.00065,
4.47656,0.61277,-0.83866,0.01247,0.17286,0.52694,0.84915,,,0.95092,0.28699,-0.11572,-0.00066,
4.48438,0.40710,-0.73064,0.15319,0.15153,0.49177,0.80999,,,0.95090,0.28702,-0.11577,-0.00066,
4.49219,0.44138,-0.73064,0.08283,0.15589,0.50886,0.82691,,,0.95089,0.28705,-0.11582,-0.00067,
4.50000,0.30427,-0.91066,0.32908,0.16074,0.50154,0.81724,,,0.95088,0.28706,-0.11589,-0.00066,
4.50781,0.71560,-0.80265,0.15319,0.15783,0.52010,0.84867,,,0.95086,0.28711,-0.11594,-0.00066,
4.51563,0.57849,-0.69464,0.15319,0.16123,0.51619,0.83658,,,0.95084,0.28714,-0.11599,-0.00066,
4.52344,0.54421,-0.83866,0.22354,0.15735,0.51766,0.83175,,,0.95082,0.28718,-0.11605,-0.00066,
4.53125,0.20143,-0.87466,0.29390,0.16801,0.52010,0.83223,,,0.95081,0.28719,-0.11611,-0.00065,
4.53906,0.30427,-0.94667,0.39944,0.16753,0.51424,0.83417,,,0.95080,0.28720,-0.11618,-0.00064,
4.54688,0.44138,-0.76665,0.25872,0.15977,0.50398,0.82546,,,0.95078,0.28723,-0.11623,-0.00064,
4.55469,0.33854,-0.87466,0.36426,0.15686,0.50496,0.82014,,,0.95077,0.28725,-0.11630,-0.00063,
4.56250,0.13288,-0.62263,0.43462,0.15589,0.49909,0.83030,,,0.95076,0.28726,-0.11635,-0.00061,
4.57031,0.26999,-0.91066,0.25872,0.16171,0.52254,0.83852,,,0.95075,0.28727,-0.11641,-0.00061,
4.57813,0.47565,-0.87466,0.18836,0.16607,0.52450,0.84819,,,0.95073,0.28730,-0.11647,-0.00061,
4.58594,0.50993,-0.80265,0.11801,0.16753,0.52792,0.84625,,,0.95072,0.28733,-0.11653,-0.00062,
4.59375,0.13288,-0.91066,0.22354,0.16801,0.50593,0.82353,,,0.95071,0.28734,-0.11659,-0.00062,
4.60156,0.09860,-0.69464,0.18836,0.16074,0.49616,0.82159,,,0.95070,0.28734,-0.11664,-0.00062,
4.60938,0.40710,-0.73064,0.01247,0.16947,0.51180,0.82546,,,0.95069,0.28737,-0.11669,-0.00063,
4.61719,0.50993,-0.47861,0.08283,0.16171,0.51473,0.83417,,,0.95067,0.28740,-0.11672,-0.00063,
4.62500,0.40710,-0.55062,0.15319,0.15008,0.49909,0.83417,,,0.95066,0.28743,-0.11676,-0.00063,
4.63281,0.50993,-0.33459,0.08283,0.15105,0.49812,0.82304,,,0.95065,0.28746,-0.11678,-0.00063,
4.64063,0.44138,-0.80265,0.04765,0.17722,0.52743,0.84287,,,0.95063,0.28749,-0.11683,-0.00063,
4.64844,0.44138,-0.73064,0.15319,0.16850,0.52840,0.83997,,,0.95062,0.28752,-0.11688,-0.00064,
4.65625,0.44138,-0.55062,0.18836,0.14523,0.50398,0.83078,,,0.95060,0.28754,-0.11692,-0.00063,
4.66406,0.44138,-0.62263,0.08283,0.16462,0.50154,0.81869,,,0.95059,0.28757,-0.11696,-0.00063,
4.67188,0.30427,-0.87466,0.18836,0.17044,0.51033,0.82449,,,0.95058,0.28759,-0.11702,-0.00064,
4.67969,0.44138,-0.47861,0.11801,0.16074,0.51863,0.83223,,,0.95057,0.28762,-0.11706,-0.00063,
4.68750,0.40710,-0.62263,0.08283,0.15105,0.51277,0.84722,,,0.95055,0.28764,-0.11710,-0.00064,
4.69531,0.57849,-0.76665,0.22354,0.16462,0.51521,0.83948,,,0.95053,0.28768,-0.11715,-0.00063,
4.70313,0.20143,-0.87466,0.18836,0.16220,0.50398,0.82111,,,0.95052,0.28769,-0.11721,-0.00064,
4.71094,0.20143,-0.87466,0.11801,0.17092,0.51717,0.82111,,,0.95051,0.28770,-0.11727,-0.00065,
4.71875,0.37282,-0.73064,0.08283,0.17238,0.52352,0.82981,,,0.95050,0.28772,-0.11732,-0.00065,
4.72656,0.47565,-0.47861,0.08283,0.15638,0.50496,0.82740,,,0.95049,0.28775,-0.11735,-0.00065,
4.73438,0.40710,-0.69464,0.11801,0.15929,0.49909,0.81531,,,0.95047,0.28778,-0.11740,-0.00065,
4.74219,0.37282,-0.58662,0.01247,0.15541,0.49568,0.81676,,,0.95046,0.28780,-0.11744,-0.00066,
4.75000,0.50993,-0.73064,-0.05789,0.17141,0.53768,0.84625,,,0.95045,0.28784,-0.11749,-0.00068,
4.75781,0.71560,-0.76665,0.04765,0.15977,0.52938,0.85109,,,0.95043,0.28788,-0.11754,-0.00068,
4.76563,0.30427,-0.62263,0.22354,0.16317,0.49714,0.81482,,,0.95041,0.28790,-0.11758,-0.00068,
4.77344,0.44138,-0.65863,0.15319,0.15977,0.50642,0.83078,,,0.95040,0.28793,-0.11763,-0.00068,
4.78125,0.37282,-0.76665,0.29390,0.16317,0.51375,0.83320,,,0.95039,0.28795,-0.11768,-0.00067,
4.78906,0.68132,-0.65863,0.29390,0.15589,0.50691,0.83078,,,0.95037,0.28799,-0.11773,-0.00066,
4.79688,0.50993,-0.62263,0.22354,0.16462,0.50935,0.83175,,,0.95035,0.28802,-0.11778,-0.00065,
4.80469,0.44138,-0.58662,0.11801,0.15492,0.50984,0.82353,,,0.95034,0.28805,-0.11782,-0.00065,
4.81250,0.33854,-0.91066,0.22354,0.17383,0.52889,0.83368,,,0.95033,0.28807,-0.11788,-0.00065,
4.82031,0.40710,-0.83866,0.22354,0.17432,0.52596,0.84190,,,0.95031,0.28809,-0.11794,-0.00065,
4.82813,0.54421,-0.91066,0.04765,0.17383,0.52694,0.84722,,,0.95029,0.28813,-0.11800,-0.00066,
4.83594,0.33854,-0.69464,0.18836,0.15202,0.48688,0.81482,,,0.95028,0.28815,-0.11805,-0.00066,
4.84375,0.40710,-0.69464,0.25872,0.15832,0.50203,0.81676,,,0.95027,0.28817,-0.11810,-0.00066,
4.85156,0.23571,-0.80265,0.22354,0.16850,0.49763,0.83562,,,0.95026,0.28819,-0.11815,-0.00065,
4.85938,0.61277,-0.58662,0.18836,0.15783,0.51570,0.84480,,,0.95024,0.28823,-0.11819,-0.00065,
4.86719,0.74988,-0.94667,0.15319,0.16801,0.52156,0.83852,,,0.95022,0.28827,-0.11826,-0.00065,
4.87500,0.33854,-0.65863,0.11801,0.16850,0.51961,0.83320,,,0.95021,0.28829,-0.11830,-0.00065,
4.88281,0.16715,-0.91066,0.18836,0.16995,0.51863,0.83707,,,0.95019,0.28830,-0.11837,-0.00066,
4.89063,0.37282,-0.69464,0.18836,0.17044,0.52645,0.83900,,,0.95018,0.28833,-0.11842,-0.00066,
4.89844,0.50993,-0.65863,0.15319,0.14523,0.49323,0.82304,,,0.95017,0.28836,-0.11846,-0.00066,
4.90625,0.37282,-0.51461,0.15319,0.15347,0.49861,0.81337,,,0.95016,0.28838,-0.11850,-0.00065,
4.91406,0.23571,-0.47861,0.11801,0.15008,0.48639,0.80709,,,0.95015,0.28839,-0.11853,-0.00065,
4.92188,0.64704,-0.91066,0.04765,0.17383,0.52889,0.84335,,,0.95013,0.28844,-0.11859,-0.00066,
4.92969,0.64704,-0.62263,0.01247,0.17189,0.52694,0.84529,,,0.95011,0.28848,-0.11863,-0.00067,
4.93750,0.44138,-0.47861,-0.05789,0.16268,0.52010,0.83513,,,0.95010,0.28851,-0.11866,-0.00068,
4.94531,0.23571,-0.58662,0.01247,0.16801,0.51619,0.82740,,,0.95009,0.28852,-0.11870,-0.00069,
4.95313,0.40710,-0.80265,0.01247,0.17819,0.51131,0.82981,,,0.95007,0.28855,-0.11875,-0.00070,
4.96094,0.64704,-0.58662,0.15319,0.17286,0.51131,0.83513,,,0.95006,0.28859,-0.11879,-0.00070,
4.96875,0.61277,-0.62263,0.11801,0.14426,0.50838,0.83658,,,0.95004,0.28863,-0.11883,-0.00070,
4.97656,0.47565,-0.55062,0.11801,0.15492,0.50447,0.82401,,,0.95002,0.28866,-0.11887,-0.00069,
4.98438,0.30427,-0.76665,0.11801,0.16220,0.51717,0.83755,,,0.95001,0.28868,-0.11892,-0.00070,
4.99219,0.40710,-0.62263,0.01247,0.16753,0.52547,0.83175,,,0.95000,0.28870,-0.11896,-0.00071,
5.00000,0.47565,-0.76665,0.04765,0.16753,0.52938,0.83948,,,0.94998,0.28873,-0.11902,-0.00072,
5.00781,0.26999,-0.69464,0.18836,0.15977,0.50642,0.81821,1021.914,25.2,0.94997,0.28875,-0.11906,-0.00072,
5.01563,0.20143,-0.55062,0.11801,0.15832,0.49861,0.81724,,,0.94996,0.28876,-0.11910,-0.00072,
5.02344,0.20143,-0.80265,0.11801,0.16317,0.49763,0.81531,,,0.94995,0.28877,-0.11916,-0.00072,
5.03125,0.71560,-0.87466,0.01247,0.17092,0.52840,0.84190,,,0.94993,0.28882,-0.11921,-0.00073,
5.03906,0.78416,-0.83866,-0.02271,0.16898,0.52743,0.84819,,,0.94991,0.28887,-0.11927,-0.00075,
5.04688,0.81843,-0.83866,0.01247,0.16510,0.52108,0.84480,,,0.94989,0.28892,-0.11932,-0.00075,
5.05469,0.26999,-0.62263,0.04765,0.15832,0.50300,0.82740,,,0.94988,0.28894,-0.11936,-0.00076,
5.06250,0.47565,-0.91066,0.04765,0.16704,0.52450,0.84045,,,0.94986,0.28897,-0.11942,-0.00077,
5.07031,0.47565,-0.91066,0.15319,0.16123,0.50300,0.81434,,,0.94984,0.28900,-0.11948,-0.00078,
5.07813,0.30427,-0.91066,0.04765,0.15105,0.49421,0.81386,,,0.94983,0.28902,-0.11954,-0.00079,
5.08594,0.44138,-0.80265,0.15319,0.15395,0.49568,0.80709,,,0.94981,0.28905,-0.11960,-0.00079,
5.09375,0.61277,-0.87466,0.11801,0.17868,0.53524,0.84384,,,0.94980,0.28908,-0.11966,-0.00080,
5.10156,0.57849,-0.94667,0.15319,0.16220,0.53768,0.84867,,,0.94978,0.28912,-0.11972,-0.00080,
5.10938,0.40710,-0.98267,0.32908,0.15977,0.52694,0.85061,,,0.94976,0.28914,-0.11979,-0.00079,
5.11719,0.06432,-1.01868,0.32908,0.16317,0.50154,0.82159,,,0.94975,0.28915,-0.11986,-0.00079,
5.12500,0.16715,-0.98267,0.39944,0.17238,0.50838,0.81724,,,0.94974,0.28915,-0.11994,-0.00079,
5.13281,0.20143,-0.94667,0.32908,0.16753,0.51082,0.82691,,,0.94973,0.28916,-0.12000,-0.00078,
5.14063,0.47565,-0.73064,0.36426,0.15638,0.50838,0.83078,,,0.94971,0.28919,-0.12006,-0.00077,
5.14844,0.37282,-0.62263,0.25872,0.15444,0.50496,0.81821,,,0.94970,0.28921,-0.12010,-0.00076,
5.15625,0.50993,-0.80265,0.11801,0.16220,0.49861,0.82256,,,0.94968,0.28924,-0.12016,-0.00076,
5.16406,0.61277,-0.91066,0.04765,0.16995,0.52938,0.84287,,,0.94966,0.28928,-0.12022,-0.00077,
5.17188,0.61277,-1.01868,0.18836,0.16656,0.52010,0.84722,,,0.94964,0.28932,-0.12029,-0.00078,
5.17969,0.54421,-0.65863,0.15319,0.16268,0.49665,0.81434,,,0.94963,0.28936,-0.12033,-0.00078,
5.18750,0.40710,-0.76665,0.11801,0.16268,0.49470,0.81821,,,0.94961,0.28938,-0.12038,-0.00078,
5.19531,0.37282,-0.76665,0.15319,0.15686,0.50300,0.82449,,,0.94960,0.28940,-0.12044,-0.00078,
5.20313,0.54421,-0.73064,0.08283,0.15783,0.52010,0.84384,,,0.94958,0.28944,-0.12049,-0.00079,
5.21094,0.57849,-0.73064,0.01247,0.15832,0.51521,0.84287,,,0.94957,0.28948,-0.12053,-0.00080,
5.21875,0.47565,-0.73064,0.29390,0.15783,0.51766,0.83417,,,0.94955,0.28950,-0.12059,-0.00079,
5.22656,0.30427,-0.65863,0.18836,0.16559,0.52108,0.83562,,,0.94954,0.28952,-0.12063,-0.00079,
5.23438,0.20143,-0.83866,0.36426,0.16607,0.52254,0.83900,,,0.94953,0.28953,-0.12069,-0.00078,
5.24219,0.20143,-0.83866,0.18836,0.16317,0.51815,0.83610,,,0.94952,0.28954,-0.12075,-0.00078,
5.25000,0.30427,-0.69464,0.25872,0.15589,0.50545,0.82594,,,0.94951,0.28956,-0.12080,-0.00077,
5.25781,0.47565,-0.76665,0.25872,0.15395,0.49909,0.82014,,,0.94949,0.28959,-0.12086,-0.00077,
5.26563,0.13288,-0.87466,0.29390,0.16365,0.49568,0.82449,,,0.94948,0.28960,-0.12092,-0.00077,
5.27344,0.30427,-0.51461,0.11801,0.16123,0.52352,0.84432,,,0.94947,0.28961,-0.12095,-0.00077,
5.28125,0.57849,-0.58662,0.04765,0.16074,0.51863,0.83803,,,0.94945,0.28965,-0.12099,-0.00077,
5.28906,0.13288,-0.76665,0.08283,0.16850,0.50545,0.81627,,,0.94944,0.28966,-0.12104,-0.00078,
5.29688,0.20143,-0.58662,0.08283,0.16704,0.50398,0.82014,,,0.94944,0.28967,-0.12108,-0.00078,
5.30469,0.23571,-0.47861,0.01247,0.16365,0.50349,0.82401,,,0.94943,0.28969,-0.12112,-0.00079,
5.31250,0.57849,-0.62263,0.08283,0.16171,0.51961,0.83562,,,0.94941,0.28972,-0.12116,-0.00079,
5.32031,0.61277,-0.47861,-0.02271,0.15347,0.51668,0.83320,,,0.94939,0.28976,-0.12119,-0.00080,
5.32813,0.23571,-0.37059,0.18836,0.15347,0.50691,0.82208,,,0.94939,0.28978,-0.12122,-0.00079,
5.33594,0.26999,-0.69464,0.15319,0.17044,0.53817,0.84045,,,0.94938,0.28979,-0.12126,-0.00079,
5.34375,0.26999,-0.40660,0.15319,0.16607,0.53768,0.85834,,,0.94937,0.28981,-0.12129,-0.00079,
5.35156,0.26999,-0.58662,0.11801,0.17141,0.54501,0.85109,,,0.94936,0.28982,-0.12133,-0.00079,
5.35938,0.09860,-0.51461,0.39944,0.14717,0.49909,0.82256,,,0.94935,0.28983,-0.12137,-0.00077,
5.36719,0.13288,-0.55062,0.22354,0.16510,0.50154,0.82981,,,0.94934,0.28983,-0.12141,-0.00077,
5.37500,-0.10707,-0.51461,0.29390,0.16656,0.49616,0.81627,,,0.94934,0.28982,-0.12145,-0.00076,
5.38281,0.40710,-0.40660,0.04765,0.16074,0.52450,0.84674,,,0.94933,0.28985,-0.12148,-0.00076,
5.39063,0.20143,-0.26258,0.36426,0.15153,0.51082,0.82594,,,0.94932,0.28986,-0.12150,-0.00074,
5.39844,0.13288,-0.73064,0.29390,0.17868,0.52645,0.83465,,,0.94932,0.28987,-0.12156,-0.00074,
5.40625,0.03004,-0.51461,0.15319,0.16317,0.51668,0.83513,,,0.94931,0.28987,-0.12159,-0.00074,
5.41406,-0.07279,-0.37059,0.08283,0.17577,0.51912,0.83223,,,0.94931,0.28986,-0.12162,-0.00074,
5.42188,0.30427,-0.08256,0.25872,0.16074,0.51033,0.82933,,,0.94930,0.28988,-0.12163,-0.00072,
5.42969,0.16715,-0.22658,0.29390,0.16947,0.50105,0.81386,,,0.94930,0.28989,-0.12165,-0.00071,
5.43750,0.30427,-0.29858,0.08283,0.16414,0.49714,0.81192,,,0.94929,0.28991,-0.12167,-0.00070,
5.44531,0.64704,-0.15457,0.08283,0.15153,0.52401,0.84964,,,0.94928,0.28995,-0.12168,-0.00070,
5.45313,0.50993,-0.04655,-0.16342,0.17432,0.52205,0.84142,,,0.94926,0.28998,-0.12168,-0.00070,
5.46094,0.78416,-0.19057,-0.40967,0.15832,0.51619,0.84819,,,0.94925,0.29004,-0.12169,-0.00073,
5.46875,0.44138,0.09747,-0.48003,0.16656,0.49519,0.82111,,,0.94924,0.29007,-0.12167,-0.00075,
5.47656,0.57849,0.09747,-0.72628,0.16365,0.51033,0.82594,,,0.94923,0.29011,-0.12165,-0.00079,
5.48438,0.61277,0.24149,-0.58557,0.16026,0.51619,0.82933,,,0.94922,0.29016,-0.12162,-0.00082,
5.49219,0.68132,0.34950,-0.69111,0.14911,0.50838,0.83368,,,0.94921,0.29021,-0.12159,-0.00085,
5.50000,0.88699,0.20548,-0.48003,0.15541,0.50789,0.82353,,,0.94919,0.29027,-0.12156,-0.00087,
5.50781,0.44138,0.16948,-0.37450,0.15735,0.52450,0.83513,,,0.94919,0.29030,-0.12154,-0.00089,
5.51563,0.44138,-0.11856,-0.33932,0.16317,0.52108,0.83223,,,0.94918,0.29033,-0.12155,-0.00091,
5.52344,0.47565,-0.01055,-0.12824,0.14862,0.52645,0.84335,,,0.94917,0.29036,-0.12154,-0.00092,
5.53125,0.33854,-0.37059,-0.05789,0.15783,0.49519,0.80950,,,0.94916,0.29038,-0.12157,-0.00092,
5.53906,0.47565,-0.44260,-0.02271,0.16171,0.50838,0.82256,,,0.94914,0.29042,-0.12159,-0.00093,
5.54688,0.40710,-0.58662,0.11801,0.16559,0.50740,0.83030,,,0.94913,0.29044,-0.12163,-0.00093,
5.55469,0.54421,-0.22658,0.11801,0.14911,0.52059,0.84384,,,0.94912,0.29048,-0.12165,-0.00092,
5.56250,0.61277,-0.55062,0.08283,0.15880,0.51277,0.84529,,,0.94910,0.29051,-0.12169,-0.00092,
5.57031,0.64704,-0.47861,0.08283,0.15347,0.52059,0.84625,,,0.94908,0.29056,-0.12172,-0.00092,
5.57813,0.37282,-0.73064,0.15319,0.17238,0.51521,0.82740,,,0.94907,0.29058,-0.12177,-0.00092,
5.58594,0.44138,-0.55062,0.08283,0.16704,0.51277,0.83126,,,0.94906,0.29061,-0.12181,-0.00093,
5.59375,0.54421,-0.33459,-0.02271,0.15541,0.51619,0.83417,,,0.94904,0.29064,-0.12183,-0.00093,
5.60156,0.71560,-0.33459,-0.19860,0.16026,0.50740,0.82111,,,0.94903,0.29069,-0.12185,-0.00094,
5.60938,0.44138,-0.11856,-0.16342,0.16317,0.50447,0.82304,,,0.94902,0.29072,-0.12185,-0.00095,
5.61719,0.68132,-0.19057,-0.26896,0.16317,0.52303,0.83948,,,0.94900,0.29076,-0.12186,-0.00097,
5.62500,0.85271,-0.08256,-0.23378,0.16704,0.52352,0.82740,,,0.94898,0.29082,-0.12186,-0.00098,
5.63281,0.64704,0.49352,-0.62075,0.15105,0.51473,0.82788,,,0.94898,0.29087,-0.12182,-0.00100,
5.64063,0.71560,-0.04655,-0.58557,0.17335,0.51424,0.82063,,,0.94896,0.29092,-0.12181,-0.00104,
5.64844,0.85271,-0.08256,-0.48003,0.16462,0.50447,0.81772,,,0.94894,0.29098,-0.12180,-0.00106,
5.65625,1.22977,-0.11856,-0.72628,0.17383,0.49519,0.81676,,,0.94892,0.29106,-0.12180,-0.00110,
5.66406,1.81249,0.02546,-1.21879,0.16801,0.51180,0.84045,,,0.94888,0.29119,-0.12177,-0.00116,
5.67188,2.08671,0.78156,-2.41486,0.17722,0.50545,0.82353,,,0.94885,0.29135,-0.12167,-0.00129,
5.67969,2.70372,1.96971,-3.61094,0.17141,0.50935,0.83658,,,0.94881,0.29155,-0.12147,-0.00146,
5.68750,2.80655,2.36576,-4.31452,0.17868,0.50300,0.82836,,,0.94877,0.29177,-0.12123,-0.00167,
5.69531,3.21788,3.19387,-5.72167,0.18401,0.50349,0.82304,,,0.94873,0.29203,-0.12091,-0.00195,
5.70313,3.73205,4.70607,-7.44543,0.18547,0.49274,0.81869,,,0.94870,0.29233,-0.12046,-0.00230,
5.71094,4.24622,5.28214,-8.46561,0.19662,0.49421,0.82836,,,0.94866,0.29267,-0.11995,-0.00271,
5.71875,4.93178,7.11838,-10.36527,0.22716,0.50447,0.80902,,,0.94861,0.29308,-0.11929,-0.00320,
5.72656,5.61733,8.63058,-11.59652,0.22522,0.51228,0.81772,,,0.94857,0.29354,-0.11850,-0.00373,
5.73438,6.67995,11.61897,-14.58672,0.25043,0.49763,0.82401,,,0.94852,0.29409,-0.11745,-0.00439,
5.74219,8.49667,15.79551,-19.05442,0.27273,0.47858,0.83465,,,0.94847,0.29480,-0.11605,-0.00524,
5.75000,9.86779,18.13582,-21.62247,0.28970,0.47174,0.83852,,,0.94841,0.29561,-0.11445,-0.00619,
5.75781,14.28963,22.70841,-28.34161,0.30957,0.46734,0.85641,,,0.94828,0.29676,-0.11242,-0.00746,
5.76563,20.93954,29.62132,-38.26203,0.34254,0.46979,0.86173,,,0.94806,0.29842,-0.10974,-0.00917,
5.77344,26.93816,35.45408,-45.22742,0.29406,0.46686,0.94393,,,0.94774,0.30052,-0.10654,-0.01117,
5.78125,41.30059,49.74794,-65.98289,0.39490,0.48200,0.95892,,,0.94719,0.30370,-0.10200,-0.01411,
5.78906,50.04144,56.55283,-85.36639,-0.07196,0.75652,1.07787,,,0.94643,0.30757,-0.09663,-0.01811,
5.79688,48.19043,35.31006,-99.29718,-0.58390,0.63636,1.02516,,,0.94550,0.31137,-0.09232,-0.02346,
5.80469,48.25899,-52.61340,-141.72277,-0.06711,0.31836,0.89267,,,0.94387,0.31527,-0.09278,-0.03340,
5.81250,52.02956,-69.82365,-180.34905,1.19771,0.98318,1.11704,,,0.94181,0.31957,-0.09351,-0.04617,
5.82031,40.61503,-66.22318,-191.11376,1.66165,0.78485,0.95457,,,0.93980,0.32316,-0.09372,-0.05962,
5.82813,39.65525,1.82569,-210.88422,1.88126,1.15463,0.82014,,,0.93798,0.32702,-0.08911,-0.07283,
5.83594,40.13514,41.17882,-215.35193,1.52591,1.01639,1.13928,,,0.93616,0.33106,-0.08187,-0.08543,
5.84375,23.71604,88.56100,-222.73947,0.88647,1.39838,1.58704,,,0.93470,0.33428,-0.07132,-0.09750,
5.85156,-14.70944,102.35080,-207.71813,1.45077,1.49021,1.71131,,,0.93403,0.33500,-0.05996,-0.10846,
5.85938,-32.22542,56.15677,-148.82888,1.54773,1.23963,1.75241,,,0.93384,0.33395,-0.05274,-0.11678,
5.86719,-64.00100,-23.16157,-60.53018,1.74019,0.06777,0.88010,,,0.93472,0.32990,-0.05233,-0.12139,
5.87500,-43.50284,-40.87587,-2.30933,1.93217,-0.32350,0.59820,,,0.93552,0.32679,-0.05453,-0.12261,
5.88281,-29.62031,-36.91536,18.93865,1.88854,-0.57848,0.43428,,,0.93620,0.32452,-0.05706,-0.12233,
5.89063,11.41029,-17.47282,49.40346,1.57827,-0.55211,0.62479,,,0.93628,0.32490,-0.05936,-0.11952,
5.89844,35.50763,-23.08956,83.31578,1.12693,-0.39091,0.93329,,,0.93606,0.32664,-0.06297,-0.11457,
5.90625,40.47792,-34.93510,101.81981,0.97131,-0.30201,1.06578,,,0.93578,0.32850,-0.06779,-0.10867,
5.91406,38.35269,-66.40320,140.51646,0.67607,-0.30347,1.21520,,,0.93560,0.32978,-0.07545,-0.10101,
5.92188,30.12600,-89.66223,168.06143,0.72698,-0.24925,1.27467,,,0.93554,0.33019,-0.08515,-0.09214,
5.92969,23.92171,-88.90614,174.46396,0.75897,-0.24437,1.24566,,,0.93550,0.33011,-0.09489,-0.08287,
5.93750,11.95874,-68.34746,175.66004,0.63535,-0.11590,1.31384,,,0.93570,0.32932,-0.10326,-0.07312,
5.94531,3.80061,-56.14186,173.47896,0.44919,-0.03188,1.36848,,,0.93601,0.32804,-0.11075,-0.06328,
5.95313,-17.58878,-45.08842,168.02625,0.07299,0.11564,1.41635,,,0.93673,0.32543,-0.11730,-0.05369,
5.96094,-41.27478,-53.11747,159.72406,-0.14662,0.24118,1.36606,,,0.93774,0.32130,-0.12408,-0.04500,
5.96875,-52.96353,-59.88635,153.63813,-0.17958,0.28563,1.29546,,,0.93880,0.31640,-0.13110,-0.03693,
5.97656,-72.84469,-69.75164,135.41553,-0.14468,0.35548,1.13106,,,0.94002,0.31034,-0.13829,-0.03042,
5.98438,-87.13855,-72.41599,113.39363,-0.10153,0.39749,0.94925,,,0.94136,0.30351,-0.14514,-0.02551,
5.99219,-91.62895,-72.59601,102.20678,-0.09280,0.41312,0.86269,,,0.94267,0.29648,-0.15174,-0.02135,
6.00000,-95.05674,-74.07220,83.13989,-0.03172,0.43022,0.69974,,,0.94389,0.28939,-0.15804,-0.01849,
6.00781,-90.46351,-78.24875,72.62144,0.05118,0.45122,0.55806,1021.862,25.2,0.94489,0.28267,-0.16438,-0.01634,
6.01563,-85.97311,-80.44503,70.68661,0.12196,0.46588,0.49859,,,0.94568,0.27624,-0.17083,-0.01430,
6.02344,-72.36480,-81.63319,73.04359,0.23443,0.47614,0.39172,,,0.94612,0.27063,-0.17739,-0.01197,
6.03125,-52.75786,-80.37302,76.73736,0.29648,0.51082,0.34627,,,0.94615,0.26623,-0.18394,-0.00914,
6.03906,-41.06911,-74.32423,89.50725,0.30036,0.54745,0.25730,,,0.94599,0.26240,-0.19032,-0.00523,
6.04688,-14.29810,-66.79925,107.16699,0.30812,0.71354,0.25923,,,0.94538,0.26006,-0.19654,0.00030,
6.05469,-1.95807,-61.61458,117.29847,0.30036,0.84152,0.27181,,,0.94455,0.25835,-0.20258,0.00675,
6.06250,17.82025,-46.70863,137.56144,0.28630,1.07110,0.28486,,,0.94348,0.25761,-0.20799,0.01503,
6.07031,32.62829,-26.18596,156.76904,0.22861,1.36663,0.35014,,,0.94232,0.25750,-0.21238,0.02511,
6.07813,36.26174,-12.54018,164.71945,0.16171,1.51903,0.39462,,,0.94115,0.25745,-0.21600,0.03599,
6.08594,34.82207,15.18343,176.04701,-0.04190,1.68609,0.37432,,,0.94026,0.25704,-0.21802,0.04807,
6.09375,32.25123,37.86639,176.78576,-0.37156,1.89076,0.40913,,,0.93961,0.25634,-0.21856,0.06053,
6.10156,28.41211,45.89544,173.02163,-0.58535,1.96501,0.40381,,,0.93901,0.25537,-0.21851,0.07284,
6.10938,16.79192,48.30775,156.31172,-0.97124,2.00556,0.31194,,,0.93860,0.25387,-0.21804,0.08393,
6.11719,6.44000,39.19856,125.45994,-1.13656,1.99530,0.12287,,,0.93831,0.25218,-0.21765,0.09272,
6.12500,4.31477,34.12190,105.97091,-1.15547,1.98699,0.00102,,,0.93805,0.25067,-0.21726,0.10015,
6.13281,7.22839,30.80947,63.05282,-1.03621,1.94596,-0.29636,,,0.93794,0.24999,-0.21631,0.10481,
6.14063,14.42674,34.40994,40.81984,-0.94361,1.93424,-0.40902,,,0.93790,0.25007,-0.21470,0.10822,
6.14844,36.02179,50.03598,-0.19860,-0.80351,2.00556,-0.49461,,,0.93801,0.25200,-0.21122,0.10958,
6.15625,57.75396,64.04180,-27.74357,-0.66486,2.15552,-0.40612,,,0.93813,0.25562,-0.20621,0.10974,
6.16406,65.77498,68.25435,-35.55326,-0.61201,2.19118,-0.37082,,,0.93819,0.25981,-0.20073,0.10957,
6.17188,78.69773,69.98258,-41.18186,-0.55966,2.12035,-0.36889,,,0.93803,0.26489,-0.19493,0.10925,
6.17969,92.44315,68.11033,-39.24703,-0.54414,1.84143,-0.43223,,,0.93753,0.27081,-0.18917,0.10919,
6.18750,102.04095,66.67014,-37.38256,-0.55045,1.71589,-0.42498,,,0.93674,0.27731,-0.18345,0.10935,
6.19531,122.64195,62.92566,-32.98521,-0.59408,1.49412,-0.38920,,,0.93541,0.28508,-0.17788,0.10996,
6.20313,140.67210,58.67710,-26.82893,-0.57420,1.31192,-0.23108,,,0.93354,0.29392,-0.17255,0.11108,
6.21094,146.15656,60.94540,-24.71820,-0.55093,1.20690,-0.17886,,,0.93146,0.30304,-0.16706,0.11244,
6.21875,152.73791,74.98723,-25.17553,-0.53348,0.97047,-0.02654,,,0.92929,0.31243,-0.16059,0.11413,
6.22656,152.70363,97.34614,-33.61843,-0.63577,0.70816,0.09289,,,0.92729,0.32169,-0.15250,0.11573,
6.23438,152.80646,103.75498,-40.44311,0.56166,1.07794,0.61657,,,0.92526,0.33093,-0.14384,0.11703,
6.24219,136.93581,265.27203,-65.38485,8.27372,13.48622,12.29025,,,0.92509,0.33802,-0.12452,0.12021,
6.25000,-147.98175,409.54284,65.09318,-2.81442,6.15272,6.14926,,,0.93102,0.32464,-0.10134,0.13243,
6.25781,-191.99453,-45.95254,-35.76433,0.79679,-3.32128,-1.67639,,,0.93519,0.31308,-0.10520,0.12781,
6.26563,-58.82504,49.81995,-97.67896,1.71498,-0.65957,2.55703,,,0.93762,0.30958,-0.10045,0.12222,
6.27344,-80.83143,43.44712,-31.40217,-0.18007,-2.57733,-0.14162,,,0.93987,0.30425,-0.09768,0.12057,
6.28125,47.29921,46.57953,-21.86872,-1.80508,2.00556,2.67936,,,0.93937,0.30704,-0.09384,0.12045,
6.28906,-15.32644,-40.65985,-8.99329,0.44483,-0.30982,0.15962,,,0.93950,0.30645,-0.09639,0.11892,
6.29688,5.06889,-35.04311,-6.74185,1.50216,0.05995,0.38495,,,0.93921,0.30710,-0.09845,0.11779,
6.30469,6.13150,12.73511,3.10820,0.00125,0.66225,0.52083,,,0.93914,0.30737,-0.09765,0.11830,
6.31250,-2.40369,1.32163,-6.42524,-0.20576,0.97683,1.04064,,,0.93926,0.30725,-0.09745,0.11790,
6.32031,-12.72132,-6.05934,-1.00771,0.06572,0.65980,0.84819,,,0.93949,0.30649,-0.09792,0.11762,
6.32813,-8.91648,-6.34737,8.31466,0.32412,0.43413,0.79597,,,0.93957,0.30591,-0.09857,0.11796,
6.33594,-0.34701,-2.27884,1.63069,0.33914,0.43315,0.76163,,,0.93955,0.30590,-0.09875,0.11802,
6.34375,0.95554,3.15787,-0.62075,0.12147,0.55625,0.74809,,,0.93955,0.30594,-0.09853,0.11805,
6.35156,1.02410,0.02546,-1.00771,0.09530,0.65199,0.81918,,,0.93954,0.30601,-0.09850,0.11799,
6.35938,0.57849,-3.46700,0.11801,0.26837,0.58653,0.81386,,,0.93950,0.30608,-0.09872,0.11793,
6.36719,4.31477,-0.37059,1.63069,0.11614,0.45220,0.84190,,,0.93940,0.30634,-0.09874,0.11806,
6.37500,10.31340,-3.21496,0.36426,0.22473,0.41508,0.77227,,,0.93916,0.30703,-0.09887,0.11808,
6.38281,14.52958,-2.56688,-0.97254,0.19953,0.48346,0.79597,,,0.93884,0.30798,-0.09890,0.11807,
6.39063,18.60864,-2.35085,-3.22398,0.16317,0.55820,0.89896,,,0.93846,0.30922,-0.09883,0.11793,
6.39844,17.61458,-3.03494,-4.56077,0.16317,0.56260,0.93426,,,0.93811,0.31040,-0.09879,0.11770,
6.40625,17.37464,-4.07908,-3.54058,0.14329,0.53866,0.92604,,,0.93774,0.31156,-0.09883,0.11750,
6.41406,20.01403,-6.27536,-1.88718,0.14087,0.46588,0.87962,,,0.93729,0.31291,-0.09903,0.11738,
6.42188,23.44182,-6.81543,0.99748,0.08172,0.48884,0.86318,,,0.93673,0.31445,-0.09930,0.11746,
6.42969,24.71010,-6.34737,0.25872,0.07687,0.59484,0.82643,,,0.93615,0.31608,-0.09952,0.11751,
6.43750,26.90388,-8.14761,0.99748,0.20777,0.61340,0.76889,,,0.93551,0.31785,-0.09984,0.11758,
6.44531,27.48661,-6.77943,-0.30414,0.09626,0.54062,0.80902,,,0.93487,0.31966,-0.10005,0.11760,
6.45313,26.52683,-7.57153,-2.06308,0.18304,0.51570,0.74278,,,0.93425,0.32143,-0.10027,0.11748,
6.46094,27.04100,-6.49139,-2.76665,0.22619,0.53866,0.71183,,,0.93364,0.32322,-0.10041,0.11735,
6.46875,27.10955,-4.25910,-3.71648,0.15153,0.54257,0.79210,,,0.93304,0.32500,-0.10038,0.11720,
6.47656,24.43588,-4.04307,-5.19399,0.18110,0.54501,0.80999,,,0.93251,0.32662,-0.10032,0.11695,
6.48438,22.03643,-2.99894,-5.61613,0.17480,0.59826,0.74858,,,0.93204,0.32809,-0.10021,0.11668,
6.49219,21.86504,-2.06281,-6.10863,0.10790,0.62512,0.76937,,,0.93159,0.32953,-0.10003,0.11639,
6.50000,21.24804,-4.18709,-4.42005,0.09481,0.58458,0.81337,,,0.93111,0.33095,-0.10003,0.11616,
6.50781,19.70553,-6.34737,-3.39987,0.17529,0.59826,0.81482,,,0.93065,0.33227,-0.10020,0.11594,
6.51563,19.05425,-6.85144,-1.50022,0.18207,0.61291,0.80273,,,0.93019,0.33354,-0.10045,0.11581,
6.52344,18.36870,-7.49952,-0.16342,0.17674,0.55527,0.83417,,,0.92972,0.33477,-0.10078,0.11576,
6.53125,18.02592,-7.17548,0.99748,0.12632,0.54501,0.81241,,,0.92925,0.33596,-0.10111,0.11578,
6.53906,18.40298,-8.43565,0.99748,0.17189,0.58262,0.76985,,,0.92876,0.33719,-0.10152,0.11578,
6.54688,20.83670,-9.62380,2.22873,0.14571,0.54648,0.78726,,,0.92820,0.33857,-0.10202,0.11584,
6.55469,23.23615,-11.13600,3.14338,0.08657,0.52596,0.79887,,,0.92756,0.34010,-0.10261,0.11595,
6.56250,24.43588,-12.57619,3.10820,0.18207,0.52840,0.77711,,,0.92687,0.34172,-0.10329,0.11602,
6.57031,27.28094,-11.38803,4.26910,0.13068,0.56699,0.76163,,,0.92612,0.34351,-0.10389,0.11622,
6.57813,28.44639,-12.32415,4.44499,0.16462,0.54697,0.78001,,,0.92533,0.34537,-0.10454,0.11641,
6.58594,30.05745,-11.74808,5.21893,0.09675,0.54452,0.80854,,,0.92450,0.34732,-0.10517,0.11668,
6.59375,31.42856,-12.82822,6.30947,0.22716,0.64710,0.74423,,,0.92361,0.34935,-0.10588,0.11700,
6.60156,32.69684,-10.41590,7.68144,0.15880,0.65883,0.77179,,,0.92269,0.35144,-0.10645,0.11747,
6.60938,34.54785,-10.52392,8.80716,0.18013,0.58116,0.80564,,,0.92171,0.35363,-0.10705,0.11802,
6.61719,37.35863,-10.63193,8.42019,0.25818,0.56944,0.78968,,,0.92066,0.35600,-0.10762,0.11857,
6.62500,39.07252,-10.73995,7.61108,0.26158,0.58360,0.77856,,,0.91957,0.35848,-0.10816,0.11907,
6.63281,43.08303,-11.24401,4.02285,0.27079,0.54648,0.80709,,,0.91840,0.36125,-0.10862,0.11936,
6.64063,46.85360,-10.84796,-0.16342,0.25140,0.55478,0.79210,,,0.91716,0.36427,-0.10891,0.11943,
6.64844,49.59583,-11.78408,-1.21879,0.25188,0.57481,0.77130,,,0.91585,0.36747,-0.10921,0.11943,
6.65625,56.51995,-11.31602,-3.36469,0.19177,0.59777,0.78629,,,0.91437,0.37111,-0.10937,0.11936,
6.66406,62.72425,-12.79221,-3.36469,0.13505,0.54648,0.81337,,,0.91270,0.37515,-0.10957,0.11929,
6.67188,65.80925,-12.97224,-4.34970,0.18983,0.56064,0.78920,,,0.91095,0.37938,-0.10973,0.11918,
6.67969,74.24161,-13.40429,-4.20898,0.18353,0.61438,0.76308,,,0.90895,0.38412,-0.10985,0.11912,
6.68750,78.80056,-14.41242,-3.96273,0.18304,0.57432,0.81676,,,0.90680,0.38915,-0.11000,0.11909,
6.69531,86.54736,-15.63658,-4.20898,0.14814,0.56162,0.79742,,,0.90440,0.39465,-0.11015,0.11906,
6.70313,96.17944,-16.96876,-3.47023,0.16656,0.68814,0.69829,,,0.90170,0.40073,-0.11032,0.11911,
6.71094,101.52678,-17.29280,-2.97772,0.17480,0.71402,0.75680,,,0.89880,0.40713,-0.11047,0.11921,
6.71875,108.96508,-18.98502,-1.60575,0.13214,0.65443,0.75535,,,0.89562,0.41396,-0.11070,0.11941,
6.72656,117.94588,-20.42521,-0.51521,0.20146,0.65394,0.71666,,,0.89211,0.42131,-0.11097,0.11968,
6.73438,122.60767,-19.38107,-0.19860,0.14377,0.69204,0.69200,,,0.88841,0.42892,-0.11114,0.12004,
6.74219,132.30830,-20.85726,-0.97254,0.21795,0.67299,0.75341,,,0.88435,0.43709,-0.11128,0.12037,
6.75000,140.70638,-22.87353,-2.06308,0.24703,0.67006,0.70361,,,0.87996,0.44575,-0.11144,0.12062,
6.75781,145.71094,-23.62963,-1.74647,0.22619,0.71549,0.63011,,,0.87533,0.45468,-0.11160,0.12090,
6.76563,155.27447,-24.02568,-2.23897,0.19128,0.73308,0.70119,,,0.87030,0.46413,-0.11168,0.12120,
6.77344,163.32976,-26.54601,-2.52040,0.18692,0.67055,0.69104,,,0.86489,0.47403,-0.11182,0.12144,
6.78125,167.85444,-28.09421,-2.83701,0.25237,0.69888,0.66202,,,0.85922,0.48415,-0.11198,0.12164,
6.78906,178.92619,-29.93045,-2.34451,0.20486,0.84298,0.67605,,,0.85304,0.49486,-0.11217,0.12187,
6.79688,183.00526,-31.44264,-2.37969,0.21310,0.83859,0.69394,,,0.84658,0.50574,-0.11239,0.12206,
6.80469,191.06055,-33.96297,-2.59076,0.25188,0.86985,0.64945,,,0.83968,0.51703,-0.11266,0.12219,
6.81250,202.54364,-35.29515,-0.93736,0.24849,0.90453,0.59530,,,0.83220,0.52887,-0.11294,0.12244,
6.82031,209.19354,-36.51931,-0.97254,0.20583,0.96608,0.78339,,,0.82429,0.54099,-0.11322,0.12267,
6.82813,216.11767,-40.22779,-2.13343,0.28339,0.72721,0.64220,,,0.81594,0.55343,-0.11358,0.12272,
6.83594,234.28493,-43.10817,-2.66112,0.24316,0.91430,0.79355,,,0.80668,0.56677,-0.11391,0.12274,
6.84375,240.86628,-46.52861,-3.57576,0.29067,0.93042,0.76163,,,0.79693,0.58035,-0.11430,0.12260,
6.85156,257.97093,-53.62154,-5.51060,0.31442,0.96999,0.86028,,,0.78623,0.59476,-0.11482,0.12217,
6.85938,278.05776,-59.95836,-10.78741,0.36096,0.96168,0.87140,,,0.77443,0.61013,-0.11525,0.12131,
6.86719,290.15784,-63.88287,-13.42582,0.37744,1.05449,0.85883,,,0.76182,0.62595,-0.11564,0.12020,
6.87500,311.71862,-70.65176,-19.72282,0.35611,1.18785,1.02565,,,0.74794,0.64272,-0.11589,0.11859,
6.88281,329.40599,-80.08499,-25.17553,0.35417,1.24842,1.04837,,,0.73288,0.66018,-0.11617,0.11637,
6.89063,338.55818,-82.85735,-28.83412,0.42980,1.31045,1.04064,,,0.71702,0.67779,-0.11630,0.11385,
6.89844,352.09794,-85.52169,-36.57344,0.50834,1.58205,1.19537,,,0.70014,0.69574,-0.11602,0.11087,
6.90625,351.75516,-85.30567,-42.27240,0.61548,1.71882,1.24324,,,0.68289,0.71328,-0.11539,0.10755,
6.91406,345.51659,-74.72029,-54.12765,0.66299,1.75741,1.50581,,,0.66571,0.73012,-0.11367,0.10409,
6.92188,323.85298,-59.20226,-60.95233,0.36775,0.90160,1.09915,,,0.64940,0.74551,-0.11099,0.10086,
6.92969,331.08561,-64.27892,-69.57113,0.54130,1.45114,1.58559,,,0.63239,0.76093,-0.10800,0.09699,
6.93750,303.25199,-81.23714,-58.63053,0.18450,1.37591,1.94680,,,0.61631,0.77478,-0.10643,0.09246,
6.94531,261.94717,-107.77259,-55.46444,0.13020,0.73210,1.49807,,,0.60193,0.78671,-0.10635,0.08632,
6.95313,259.41060,-126.67506,-57.92695,0.17480,1.13851,1.67359,,,0.58733,0.79836,-0.10689,0.07902,
6.96094,205.59436,-133.69597,-83.29084,1.40278,3.34398,4.19285,,,0.57554,0.80778,-0.10659,0.06990,
6.96875,11.23890,-59.67032,-79.38600,1.30679,1.67681,2.67211,,,0.57487,0.80905,-0.10450,0.06358,
6.97656,-28.35202,-33.89096,-77.52153,1.33442,1.44479,2.59039,,,0.57652,0.80862,-0.10168,0.05847,
6.98438,-108.08233,32.24966,-76.85313,0.78661,0.64271,2.02368,,,0.58300,0.80473,-0.09660,0.05648,
6.99219,-145.68514,40.17069,-68.90273,0.27612,0.10001,1.56093,,,0.59149,0.79918,-0.09178,0.05499,
7.00000,-153.60332,31.70959,-63.09823,0.16220,-0.03286,1.43231,,,0.60026,0.79321,-0.08763,0.05321,
7.00781,-164.33229,-0.33459,-46.77529,0.11614,-0.10466,1.21230,1021.901,25.2,0.60927,0.78671,-0.08571,0.05029,
7.01563,-168.41136,-17.58084,-38.19167,0.16268,-0.06119,1.17071,,,0.61830,0.77994,-0.08496,0.04677,
7.02344,-180.03155,-40.40781,-22.50194,0.30472,0.04579,1.10978,,,0.62766,0.77254,-0.08604,0.04263,
7.03125,-196.34781,-42.89214,-10.82259,0.48410,0.18794,1.06868,,,0.63772,0.76425,-0.08787,0.03876,
7.03906,-206.32267,-36.55531,-6.74185,0.53888,0.25290,1.04160,,,0.64821,0.75534,-0.08964,0.03532,
7.04688,-227.67778,-16.06864,-0.26896,0.54664,0.37209,1.01114,,,0.65976,0.74523,-0.09088,0.03309,
7.05469,-250.12977,2.18574,6.83715,0.45743,0.45171,0.97439,,,0.67237,0.73382,-0.09168,0.03195,
7.06250,-260.79019,7.04637,11.55111,0.39538,0.48688,0.95457,,,0.68534,0.72166,-0.09249,0.03120,
7.07031,-280.84274,8.09051,22.63242,0.31345,0.59044,0.92265,,,0.69903,0.70824,-0.09380,0.03088,
7.07813,-300.20973,2.72581,34.66355,0.30085,0.69107,0.88784,,,0.71332,0.69356,-0.09596,0.03074,
7.08594,-309.22480,-0.08256,40.18662,0.31345,0.72428,0.86608,,,0.72770,0.67810,-0.09849,0.03066,
7.09375,-324.64984,-3.25097,49.57935,0.33624,0.80244,0.83030,,,0.74240,0.66150,-0.10159,0.03078,
7.10156,-337.36693,-2.81891,53.37866,0.34448,0.82247,0.80322,,,0.75728,0.64388,-0.10482,0.03101,
7.10938,-341.85733,-2.42286,59.78119,0.33624,0.84787,0.74664,,,0.77193,0.62563,-0.10827,0.03154,
7.11719,-347.41034,-2.31485,65.02283,0.28000,0.88304,0.71570,,,0.78636,0.60670,-0.11188,0.03229,
7.12500,-348.67862,-4.11508,66.92248,0.26400,0.90942,0.70989,,,0.80037,0.58733,-0.11560,0.03304,
7.13281,-349.43273,-9.80382,70.01821,0.27418,0.99930,0.71231,,,0.81389,0.56756,-0.11969,0.03371,
7.14063,-348.13017,-14.98850,72.69180,0.31297,1.09894,0.73359,,,0.82683,0.54752,-0.12410,0.03431,
7.14844,-346.99900,-16.68072,73.85270,0.31442,1.15365,0.75680,,,0.83922,0.52722,-0.12857,0.03490,
7.15625,-344.32533,-19.99315,74.83770,0.33139,1.26063,0.78049,,,0.85100,0.50676,-0.13318,0.03544,
7.16406,-340.96610,-21.68537,74.41556,0.38665,1.36809,0.78291,,,0.86216,0.48622,-0.13779,0.03590,
7.17188,-338.56665,-21.25332,73.39537,0.43513,1.41206,0.77469,,,0.87276,0.46555,-0.14227,0.03632,
7.17969,-332.08814,-17.58084,73.43055,0.53888,1.47556,0.74809,,,0.88270,0.44501,-0.14643,0.03690,
7.18750,-321.32489,-13.98037,79.37576,0.58590,1.59377,0.73262,,,0.89189,0.42480,-0.15045,0.03803,
7.19531,-315.56621,-13.11626,85.32097,0.61741,1.63969,0.69007,,,0.90044,0.40468,-0.15449,0.03959,
7.20313,-299.83267,-11.67607,101.50321,0.66299,1.69147,0.59046,,,0.90811,0.38515,-0.15878,0.04233,
7.21094,-289.37792,-9.40777,110.50897,0.68577,1.73152,0.53969,,,0.91508,0.36598,-0.16307,0.04579,
7.21875,-265.86331,-1.45073,127.00781,0.69692,1.78330,0.43959,,,0.92111,0.34792,-0.16713,0.05071,
7.22656,-239.26369,8.81060,140.83306,0.60578,1.84289,0.39608,,,0.92623,0.33121,-0.17071,0.05702,
7.23438,-226.13527,12.91514,146.42649,0.52724,1.86585,0.38447,,,0.93076,0.31513,-0.17405,0.06392,
7.24219,-200.11838,16.11956,154.65832,0.35417,1.97136,0.34772,,,0.93444,0.30049,-0.17720,0.07169,
7.25000,-179.24316,13.99528,157.22637,0.25770,2.10081,0.27519,,,0.93738,0.28707,-0.18038,0.07982,
7.25781,-170.50231,12.91514,155.95993,0.23588,2.15894,0.21571,,,0.93991,0.27416,-0.18351,0.08793,
7.26563,-156.85972,15.18343,147.72810,0.18062,2.25908,0.10740,,,0.94204,0.26215,-0.18621,0.09570,
7.27344,-148.08459,21.59227,132.67159,0.11469,2.28887,0.02955,,,0.94401,0.25080,-0.18814,0.10271,
7.28125,-145.23953,25.19274,123.13815,0.08027,2.27666,-0.00478,,,0.94587,0.23969,-0.18963,0.10920,
7.28906,-141.91457,32.32167,100.02570,0.04439,2.29620,-0.01155,,,0.94779,0.22900,-0.19022,0.11433,
7.29688,-143.01146,37.43433,74.38038,0.00949,2.23465,-0.06087,,,0.94987,0.21850,-0.19006,0.11785,
7.30469,-143.62847,37.65036,61.61049,-0.00990,2.18239,-0.11648,,,0.95194,0.20809,-0.18968,0.12053,
7.31250,-142.46302,31.38555,38.77947,-0.03124,2.01728,-0.26589,,,0.95400,0.19809,-0.18935,0.12164,
7.32031,-138.41823,25.12073,29.52745,-0.02833,1.94792,-0.34761,,,0.95590,0.18850,-0.18926,0.12211,
7.32813,-123.71303,10.71885,14.96345,0.03664,1.81945,-0.50718,,,0.95746,0.18016,-0.18977,0.12162,
7.33594,-101.15820,-0.47861,5.81697,0.14135,1.74471,-0.62517,,,0.95863,0.17349,-0.19071,0.12068,
7.34375,-87.75556,-3.28697,2.61570,0.18644,1.73396,-0.67014,,,0.95958,0.16775,-0.19167,0.11966,
7.35156,-58.85932,-5.26723,-1.14843,0.24800,1.73348,-0.68222,,,0.96019,0.16397,-0.19249,0.11876,
7.35938,-30.47725,-4.40312,-0.83182,0.27127,1.80284,-0.61646,,,0.96047,0.16203,-0.19301,0.11825,
7.36719,-18.13722,-3.46700,0.96230,0.26837,1.80333,-0.57101,,,0.96062,0.16087,-0.19340,0.11803,
7.37500,4.38333,-1.48674,7.40001,0.23928,1.77939,-0.44239,,,0.96049,0.16108,-0.19354,0.11856,
7.38281,22.37921,0.02546,14.89309,0.18304,1.65483,-0.35293,,,0.96012,0.16236,-0.19352,0.11983,
7.39063,30.60589,0.96158,18.05918,0.15638,1.56495,-0.32102,,,0.95964,0.16412,-0.19341,0.12142,
7.39844,44.83120,2.76181,23.23045,0.06621,1.39740,-0.18079,,,0.95898,0.16673,-0.19311,0.12356,
7.40625,75.54417,20.33210,2.89713,-0.54511,1.45162,-1.26634,,,0.95835,0.17147,-0.19118,0.12497,
7.41406,127.74935,29.62132,-22.57230,0.50543,-0.06021,0.08322,,,0.95739,0.17985,-0.18788,0.12550,
7.42188,208.40515,34.95001,-67.03825,-0.21982,0.66225,0.90041,,,0.95575,0.19399,-0.18297,0.12421,
7.42969,216.56328,28.32515,-97.50306,-0.39531,-0.26488,1.50000,,,0.95394,0.20905,-0.17797,0.12092,
7.43750,195.79090,40.53074,-130.64146,-0.29787,0.81319,2.54397,,,0.95259,0.22300,-0.17183,0.11536,
7.44531,143.58572,16.51561,-133.80755,-0.48015,1.09894,1.48066,,,0.95157,0.23375,-0.16757,0.10859,
7.45313,142.62594,4.05798,-133.17433,-0.32938,1.31680,1.09576,,,0.95025,0.24447,-0.16411,0.10163,
7.46094,161.65015,-11.53205,-122.65588,0.63147,2.15454,1.69729,,,0.94818,0.25638,-0.16168,0.09529,
7.46875,122.50483,3.69794,-84.83871,1.56373,2.11840,1.71131,,,0.94658,0.26520,-0.15916,0.09122,
7.47656,102.07523,20.80017,-60.67090,1.59184,1.68560,1.24179,,,0.94531,0.27231,-0.15608,0.08878,
7.48438,96.48794,49.13586,-24.57749,0.75461,1.00369,1.08512,,,0.94416,0.27849,-0.15187,0.08914,
7.49219,93.33438,56.80486,-18.38602,-0.38368,0.63147,1.33173,,,0.94306,0.28433,-0.14729,0.08999,
7.50000,86.44453,48.81182,-25.21070,-0.64207,0.58897,1.25726,,,0.94201,0.28984,-0.14312,0.09018,
7.50781,70.71099,28.64919,-43.85545,-0.14710,0.97585,1.18763,,,0.94114,0.29462,-0.13998,0.08862,
7.51563,40.58075,24.58066,-36.22166,0.65862,1.06573,0.92169,,,0.94077,0.29743,-0.13743,0.08718,
7.52344,29.85178,27.35302,-25.28106,0.59754,0.78681,0.81241,,,0.94057,0.29941,-0.13498,0.08639,
7.53125,23.16760,31.81760,-17.40102,0.11323,0.57188,1.08754,,,0.94049,0.30087,-0.13245,0.08614,
7.53906,14.94091,29.15325,-19.30067,0.03906,0.56015,1.04596,,,0.94055,0.30183,-0.13009,0.08563,
7.54688,7.22839,20.26010,-18.24531,0.20195,0.58800,0.82981,,,0.94069,0.30234,-0.12837,0.08494,
7.55469,6.74850,11.40294,-7.44543,0.08318,0.50154,0.88977,,,0.94069,0.30277,-0.12745,0.08476,
7.56250,5.72017,9.38668,-5.96792,0.01870,0.55576,0.92217,,,0.94069,0.30313,-0.12669,0.08462,
7.57031,3.83488,3.19387,-6.49560,0.33769,0.66420,0.82885,,,0.94068,0.30341,-0.12633,0.08430,
7.57813,6.02867,4.05798,-1.64093,0.10063,0.53280,0.91298,,,0.94060,0.30379,-0.12600,0.08433,
7.58594,7.02273,1.10560,-1.18361,0.08463,0.50593,0.90428,,,0.94047,0.30425,-0.12586,0.08434,
7.59375,9.69640,-4.22310,-2.06308,0.23685,0.59777,0.84867,,,0.94024,0.30491,-0.12603,0.08420,
7.60156,11.95874,-5.95132,-0.05789,0.20922,0.56992,0.86076,,,0.93994,0.30571,-0.12634,0.08418,
7.60938,12.67857,-6.27536,0.25872,0.18450,0.51717,0.90476,,,0.93962,0.30656,-0.12668,0.08417,
7.61719,14.08396,-6.70742,-1.04289,0.19080,0.54062,0.82401,,,0.93928,0.30750,-0.12700,0.08409,
7.62500,16.72336,-7.17548,-1.25397,0.17092,0.51228,0.82014,,,0.93887,0.30863,-0.12734,0.08400,
7.63281,18.16303,-7.75156,-0.62075,0.16559,0.46930,0.81095,,,0.93842,0.30984,-0.12772,0.08395,
7.64063,20.87098,-5.98733,-1.35950,0.18644,0.50447,0.78484,,,0.93794,0.31122,-0.12795,0.08392,
7.64844,21.83076,-5.26723,-1.99272,0.22716,0.54403,0.77856,,,0.93744,0.31266,-0.12812,0.08387,
7.65625,22.75626,-3.71903,-1.71129,0.23588,0.55576,0.81821,,,0.93693,0.31415,-0.12819,0.08388,
7.66406,21.72793,-3.46700,-2.09826,0.17480,0.51424,0.82836,,,0.93645,0.31558,-0.12824,0.08386,
7.67188,21.48798,-3.35898,-2.76665,0.20098,0.55380,0.80902,,,0.93597,0.31699,-0.12828,0.08380,
7.67969,21.48798,-3.25097,-3.50541,0.20340,0.63196,0.82159,,,0.93550,0.31841,-0.12828,0.08370,
7.68750,19.70553,-3.43099,-3.11844,0.20146,0.54697,0.83900,,,0.93505,0.31972,-0.12832,0.08360,
7.69531,19.12281,-2.42286,-4.10345,0.15153,0.54794,0.84577,,,0.93464,0.32098,-0.12828,0.08345,
7.70313,17.44320,-2.60289,-5.79203,0.24413,0.56992,0.76260,,,0.93427,0.32216,-0.12822,0.08317,
7.71094,17.16897,-0.04655,-8.11382,0.25431,0.51326,0.80515,,,0.93394,0.32332,-0.12794,0.08281,
7.71875,16.51769,1.53765,-8.88776,0.19516,0.47858,0.82159,,,0.93363,0.32444,-0.12756,0.08242,
7.72656,16.24347,3.22988,-11.80759,0.22425,0.57090,0.77227,,,0.93337,0.32556,-0.12700,0.08188,
7.73438,16.00352,4.20200,-13.63689,0.23152,0.52450,0.78098,,,0.93313,0.32667,-0.12634,0.08124,
7.74219,15.90069,5.49817,-13.98868,0.18159,0.48835,0.78678,,,0.93290,0.32777,-0.12559,0.08061,
7.75000,15.42080,6.32628,-16.59191,0.20340,0.51912,0.81386,,,0.93270,0.32886,-0.12473,0.07983,
7.75781,14.39247,4.70607,-16.13458,0.24800,0.51033,0.74713,,,0.93250,0.32989,-0.12399,0.07903,
7.76563,13.87830,6.93836,-16.97887,0.15395,0.55332,0.79065,,,0.93234,0.33088,-0.12309,0.07823,
7.77344,12.02729,5.89422,-15.29029,0.11905,0.53866,0.81724,,,0.93220,0.33174,-0.12231,0.07749,
7.78125,11.68451,5.49817,-15.21993,0.14232,0.59679,0.77759,,,0.93206,0.33258,-0.12155,0.07674,
7.78906,11.03324,3.87796,-13.88314,0.18595,0.62366,0.78436,,,0.93191,0.33337,-0.12093,0.07604,
7.79688,9.62784,3.69794,-12.47599,0.08802,0.57383,0.83562,,,0.93179,0.33407,-0.12036,0.07541,
7.80469,8.63379,2.50978,-13.81278,0.20437,0.56357,0.80950,,,0.93168,0.33471,-0.11984,0.07466,
7.81250,7.81112,3.51791,-13.98868,0.17626,0.59435,0.77517,,,0.93160,0.33531,-0.11926,0.07391,
7.82031,7.02273,1.28562,-16.48637,0.25285,0.52743,0.81337,,,0.93154,0.33588,-0.11876,0.07295,
7.82813,6.95417,1.60966,-16.41601,0.16220,0.49909,0.83417,,,0.93147,0.33644,-0.11825,0.07200,
7.83594,9.25079,0.92557,-18.21013,0.14280,0.57627,0.78243,,,0.93135,0.33717,-0.11773,0.07094,
7.84375,12.37007,-2.13482,-16.52155,0.11275,0.54648,0.83368,,,0.93113,0.33810,-0.11742,0.06994,
7.85156,13.63835,-3.61102,-15.92351,0.10305,0.52205,0.81869,,,0.93086,0.33911,-0.11722,0.06896,
7.85938,17.06614,-8.07560,-14.65707,0.18595,0.53280,0.78774,,,0.93047,0.34035,-0.11731,0.06798,
7.86719,18.19731,-8.39964,-13.53135,0.11614,0.57041,0.75728,,,0.93005,0.34165,-0.11744,0.06707,
7.87500,18.95142,-11.67607,-12.72224,0.20534,0.57969,0.75777,,,0.92957,0.34300,-0.11780,0.06614,
7.88281,19.60270,-10.59593,-10.68187,0.12293,0.53768,0.78823,,,0.92907,0.34438,-0.11813,0.06538,
7.89063,20.56248,-11.85609,-9.80240,0.22086,0.60607,0.71715,,,0.92854,0.34581,-0.11856,0.06464,
7.89844,23.54465,-12.36016,-7.55096,0.26643,0.55185,0.76889,,,0.92791,0.34742,-0.11906,0.06406,
7.90625,28.51494,-7.28350,-4.10345,0.06475,0.50007,0.86656,,,0.92719,0.34928,-0.11930,0.06386,
7.91406,31.32573,-8.32763,-2.94255,0.14911,0.51424,0.83417,,,0.92639,0.35132,-0.11962,0.06373,
7.92188,39.65525,-7.75156,-0.05789,0.09869,0.59435,0.83465,,,0.92538,0.35386,-0.11993,0.06387,
7.92969,47.53916,-11.13600,3.60070,0.11808,0.45757,0.88059,,,0.92412,0.35687,-0.12051,0.06421,
7.93750,52.50945,-10.70394,3.88213,0.08851,0.49421,0.87962,,,0.92273,0.36019,-0.12105,0.06463,
7.94531,65.15798,-13.29628,5.53554,0.13068,0.57383,0.82691,,,0.92099,0.36430,-0.12173,0.06519,
7.95313,78.66345,-17.18479,7.29447,0.08657,0.48786,0.90041,,,0.91884,0.36925,-0.12264,0.06587,
7.96094,85.27908,-20.38920,8.24430,0.09772,0.47272,0.88252,,,0.91647,0.37461,-0.12374,0.06658,
7.96875,101.08117,-24.20570,8.87752,0.19080,0.53817,0.79355,,,0.91363,0.38095,-0.12502,0.06737,
7.97656,109.92486,-24.60175,8.91270,0.15250,0.57627,0.81724,,,0.91049,0.38782,-0.12627,0.06822,
7.98438,126.61818,-26.90605,7.64626,0.23540,0.46099,0.82643,,,0.90684,0.39572,-0.12755,0.06907,
7.99219,144.06561,-25.75390,5.39482,0.20922,0.53915,0.78968,,,0.90266,0.40468,-0.12860,0.06996,
8.00000,154.28041,-25.68189,3.91731,0.20971,0.63636,0.74423,,,0.89811,0.41424,-0.12955,0.07084,
8.00781,173.44173,-25.60988,-0.12824,0.17238,0.46881,0.81095,1021.874,25.2,0.89293,0.42495,-0.13026,0.07164,
8.01563,194.38550,-26.36598,-2.66112,0.11760,0.55625,0.69829,,,0.88700,0.43689,-0.13083,0.07243,
8.02344,206.38276,-28.02220,-5.86238,0.23201,0.63294,0.75922,,,0.88054,0.44952,-0.13132,0.07308,
8.03125,228.52625,-30.86657,-10.22455,0.33284,0.72721,0.73020,,,0.87320,0.46342,-0.13170,0.07355,
8.03906,252.14370,-31.37064,-11.66688,0.18789,0.62952,0.91202,,,0.86488,0.47862,-0.13191,0.07412,
8.04688,262.59844,-35.29515,-15.11440,0.24025,0.53817,0.88107,,,0.85594,0.49434,-0.13215,0.07443,
8.05469,292.21452,-47.60875,-19.51174,0.28145,0.70523,0.83610,,,0.84559,0.51170,-0.13276,0.07430,
8.06250,321.62492,-63.55883,-24.50713,0.24849,0.77655,0.93281,,,0.83371,0.53065,-0.13391,0.07356,
8.07031,336.05590,-71.40785,-26.68821,0.19953,0.78192,0.90186,,,0.82081,0.55020,-0.13528,0.07251,
8.07813,367.35158,-92.54261,-27.67322,0.27952,1.15365,1.04064,,,0.80604,0.57127,-0.13756,0.07086,
8.08594,380.24006,-99.81556,-28.30644,0.19031,1.25233,1.12139,,,0.79015,0.59270,-0.14005,0.06895,
8.09375,407.90229,-126.02697,-26.47714,0.32460,1.43795,1.35494,,,0.77227,0.61525,-0.14379,0.06630,
8.10156,419.38537,-136.86439,-37.87506,1.01494,1.39496,1.30562,,,0.75317,0.63802,-0.14744,0.06265,
8.10938,421.09927,-122.21048,-53.24818,1.03191,1.59719,1.31529,,,0.73352,0.66040,-0.14954,0.05881,
8.11719,415.88903,-96.82717,-79.66743,0.57572,1.88783,1.44004,,,0.71383,0.68209,-0.14906,0.05468,
8.12500,402.21217,-104.10012,-85.36639,0.18256,1.72566,1.49468,,,0.69410,0.70262,-0.14859,0.04975,
8.13281,397.79032,-108.78073,-88.53248,0.25285,1.53173,1.27757,,,0.67397,0.72240,-0.14808,0.04436,
8.14063,398.37305,-94.52287,-106.47365,0.45646,1.51415,1.90956,,,0.65346,0.74175,-0.14592,0.03882,
8.14844,373.96721,-48.68889,-141.30063,1.24522,1.76913,1.97774,,,0.63421,0.75964,-0.13990,0.03378,
8.15625,342.26019,-24.60175,-142.46153,0.97374,1.40620,2.37183,,,0.61640,0.77560,-0.13275,0.02960,
8.16406,260.61033,-21.25332,-127.12358,0.96549,0.37356,1.63201,,,0.60258,0.78758,-0.12638,0.02550,
8.17188,263.72961,-25.03381,-109.46384,1.37660,2.67037,1.61267,,,0.58829,0.79924,-0.12105,0.02193,
8.17969,239.76939,-29.06633,-88.25105,1.58069,3.21844,4.04247,,,0.57506,0.80948,-0.11703,0.01879,
8.18750,31.77134,13.27518,-32.45753,1.57439,1.66265,2.88874,,,0.57347,0.81095,-0.11468,0.01851,
8.19531,-23.79307,23.82456,-7.19918,1.47016,1.27773,2.53817,,,0.57500,0.81003,-0.11338,0.01937,
8.20313,-100.50692,71.09872,19.57186,0.99798,0.29345,1.86121,,,0.58107,0.80580,-0.11181,0.02329,
8.21094,-132.72811,88.48899,31.11050,0.34545,-0.30103,1.36509,,,0.58896,0.80011,-0.11022,0.02838,
8.21875,-136.25873,85.39259,33.32676,0.13796,-0.40312,1.25775,,,0.59694,0.79417,-0.10886,0.03335,
8.22656,-139.96073,62.70963,36.49285,-0.08117,-0.40556,1.13541,,,0.60487,0.78801,-0.10860,0.03719,
8.23438,-147.05625,31.96162,37.90000,-0.09862,-0.24241,1.12429,,,0.61288,0.78153,-0.10968,0.03938,
8.24219,-153.63760,18.74790,36.87982,-0.05451,-0.14521,1.14025,,,0.62108,0.77474,-0.11127,0.04077,
8.25000,-173.21026,0.78156,32.58801,0.05845,0.07656,1.17071,,,0.63010,0.76709,-0.11343,0.04087,
8.25781,-200.35832,-2.42286,25.37636,0.19953,0.31494,1.18812,,,0.64044,0.75822,-0.11541,0.04028,
8.26563,-215.68053,-0.19057,21.64741,0.24413,0.44439,1.20601,,,0.65146,0.74854,-0.11712,0.03952,
8.27344,-250.06122,7.19039,16.19470,0.29018,0.61242,1.18377,,,0.66415,0.73717,-0.11828,0.03860,
8.28125,-267.26870,10.46682,15.10416,0.29551,0.66957,1.15959,,,0.67752,0.72479,-0.11925,0.03765,
8.28906,-299.01000,12.95114,17.07417,0.27515,0.72428,1.07158,,,0.69222,0.71066,-0.12024,0.03664,
8.29688,-324.82123,9.67472,23.96921,0.23540,0.77802,0.97439,,,0.70781,0.69493,-0.12172,0.03557,
8.30469,-335.72159,6.21826,28.89424,0.22280,0.79120,0.91202,,,0.72351,0.67829,-0.12357,0.03447,
8.31250,-350.73529,-0.98267,40.18662,0.23201,0.77850,0.77759,,,0.73942,0.66046,-0.12626,0.03344,
8.32031,-357.17953,-4.61915,50.91614,0.27467,0.75945,0.69490,,,0.75512,0.64183,-0.12957,0.03271,
8.32813,-357.07670,-4.47513,55.52456,0.29842,0.77997,0.69007,,,0.77035,0.62277,-0.13298,0.03221,
8.33594,-354.47158,-0.80265,64.07300,0.35078,0.85373,0.73891,,,0.78502,0.60339,-0.13648,0.03232,
8.34375,-352.58630,6.93836,73.11394,0.35175,0.97878,0.83852,,,0.79919,0.58364,-0.13985,0.03323,
8.35156,-352.58630,10.68285,78.07415,0.34545,1.04521,0.89364,,,0.81290,0.56349,-0.14313,0.03454,
8.35938,-354.54013,15.50748,87.92420,0.28000,1.17612,0.98116,,,0.82621,0.54278,-0.14644,0.03653,
8.36719,-358.65348,16.01154,97.14104,0.20486,1.27626,1.02516,,,0.83913,0.52139,-0.14997,0.03901,
8.37500,-360.26454,14.93140,100.94035,0.18110,1.30850,1.03097,,,0.85154,0.49955,-0.15361,0.04161,
8.38281,-361.77276,11.83500,106.35788,0.16510,1.39203,1.04934,,,0.86340,0.47724,-0.15752,0.04439,
8.39063,-361.73848,10.79086,107.13181,0.19128,1.41841,1.05853,,,0.87467,0.45461,-0.16141,0.04714,
8.39844,-359.88748,12.48308,105.61912,0.26982,1.46432,1.07545,,,0.88534,0.43181,-0.16504,0.04985,
8.40625,-355.53419,20.65615,100.83481,0.49040,1.53125,1.07835,,,0.89541,0.40901,-0.16791,0.05252,
8.41406,-352.27780,27.56905,99.81462,0.55876,1.56690,1.05611,,,0.90490,0.38615,-0.17022,0.05534,
8.42188,-341.06894,40.24270,106.78002,0.54954,1.74178,1.07400,,,0.91367,0.36361,-0.17178,0.05901,
8.42969,-329.14024,45.64340,124.51012,0.56069,2.03828,1.07062,,,0.92159,0.34137,-0.17330,0.06402,
8.43750,-324.30706,47.55165,135.23964,0.56263,2.19753,1.03629,,,0.92884,0.31911,-0.17482,0.06977,
8.44531,-315.56621,53.49243,156.45244,0.53500,2.51748,0.98551,,,0.93532,0.29693,-0.17628,0.07705,
8.45313,-312.48120,65.95005,166.30249,0.58299,2.67672,0.81144,,,0.94128,0.27459,-0.17703,0.08521,
8.46094,-311.45286,74.44716,165.17677,0.60966,2.67868,0.68523,,,0.94676,0.25212,-0.17710,0.09341,
8.46875,-305.48852,94.14173,150.82383,0.54712,2.56633,0.40478,,,0.95190,0.22993,-0.17551,0.10104,
8.47656,-290.85187,101.52269,130.10354,0.32799,2.42614,0.14512,,,0.95653,0.20876,-0.17292,0.10756,
8.48438,-279.54018,95.65392,121.37921,0.22619,2.37973,0.04212,,,0.96052,0.18837,-0.17041,0.11351,
8.49219,-254.65445,73.72706,106.11162,0.21746,2.33381,-0.19530,,,0.96364,0.16988,-0.16889,0.11842,
8.50000,-241.52603,60.94540,98.75926,0.25285,2.31574,-0.31183,,,0.96617,0.15238,-0.16795,0.12281,
8.50781,-212.62980,41.03480,83.56204,0.25528,2.29913,-0.57343,,,0.96803,0.13707,-0.16787,0.12629,
8.51563,-179.79161,24.00458,69.27946,0.11517,2.22537,-0.80601,,,0.96930,0.12422,-0.16847,0.12901,
8.52344,-160.04756,13.45521,62.41960,0.06378,2.31623,-0.86065,,,0.97019,0.11282,-0.16951,0.13140,
8.53125,-122.85608,-9.26375,45.56897,-0.00554,2.41734,-1.00378,,,0.97058,0.10427,-0.17156,0.13291,
8.53906,-87.30994,-30.72255,22.13991,0.00609,2.40660,-1.13482,,,0.97062,0.09853,-0.17454,0.13313,
8.54688,-69.58829,-39.14765,8.56091,0.05409,2.33870,-1.20445,,,0.97053,0.09420,-0.17782,0.13260,
8.55469,-30.51153,-48.54487,-21.27068,0.20049,2.24247,-1.20203,,,0.97032,0.09290,-0.18117,0.13051,
8.56250,7.19412,-48.86892,-51.80585,0.47683,1.96208,-1.29246,,,0.97012,0.09447,-0.18401,0.12685,
8.57031,32.73112,-41.23592,-70.59131,0.35708,1.76181,-1.20784,,,0.96998,0.09789,-0.18600,0.12233,
8.57813,133.13097,13.20318,-112.91136,0.89859,1.53320,-2.18701,,,0.97013,0.10802,-0.18327,0.11662,
8.58594,258.62221,71.38676,-132.68183,0.04342,0.21724,-1.16818,,,0.96996,0.12620,-0.17548,0.11158,
8.59375,336.09018,42.97906,-131.34504,0.18692,0.98269,1.27854,,,0.96829,0.14963,-0.16889,0.10725,
8.60156,297.21908,-3.97106,-70.76720,0.98246,1.37493,3.15710,,,0.96552,0.17006,-0.16622,0.10594,
8.60938,250.05275,-13.00824,-36.32719,1.19529,1.38177,2.87713,,,0.96259,0.18700,-0.16483,0.10621,
8.61719,180.88003,1.39364,1.87694,0.15832,0.57481,0.52953,,,0.96021,0.19882,-0.16343,0.10838,
8.62500,235.75888,-22.62149,11.93807,-0.10153,1.07110,0.45894,,,0.95655,0.21427,-0.16331,0.11146,
8.63281,252.10942,-29.78643,14.43576,-0.26054,1.51073,1.06385,,,0.95229,0.23075,-0.16352,0.11476,
8.64063,225.30413,-26.36598,-11.98349,-0.39047,1.83410,2.11652,,,0.94843,0.24569,-0.16324,0.11606,
8.64844,169.56833,-8.36364,-65.31450,-0.48791,1.35637,1.71083,,,0.94594,0.25744,-0.16133,0.11357,
8.65625,158.66798,-9.29976,-84.24067,-0.21109,1.22399,1.56818,,,0.94364,0.26865,-0.15920,0.10971,
8.66406,145.16250,-13.87235,-91.73375,0.83363,1.26845,1.32351,,,0.94145,0.27907,-0.15732,0.10512,
8.67188,130.76580,10.03476,-69.14898,1.72031,1.59768,1.14895,,,0.93951,0.28813,-0.15442,0.10227,
8.67969,118.87138,34.33793,-53.21300,1.56809,1.52880,0.96811,,,0.93786,0.29605,-0.15035,0.10079,
8.68750,99.67578,61.70150,-23.90909,0.41380,1.14633,1.16588,,,0.93662,0.30224,-0.14523,0.10152,
8.69531,72.35633,57.30892,-27.35661,-0.66001,0.95387,1.46277,,,0.93587,0.30673,-0.14049,0.10166,
8.70313,53.46923,45.78742,-36.46791,-0.33617,0.88353,1.33028,,,0.93543,0.31017,-0.13643,0.10080,
8.71094,26.25260,31.13351,-32.28164,0.55827,0.81660,0.99954,,,0.93538,0.31193,-0.13358,0.09965,
8.71875,20.49392,31.63758,-21.48175,0.42786,0.71207,0.91685,,,0.93537,0.31321,-0.13097,0.09914,
8.72656,15.93497,24.58066,-12.26492,0.01821,0.62268,1.06868,,,0.93533,0.31417,-0.12903,0.09902,
8.73438,9.73068,13.81526,-13.17957,0.23055,0.65101,0.91443,,,0.93533,0.31481,-0.12780,0.09856,
8.74219,9.83351,9.31467,-10.15419,0.35320,0.65541,0.84722,,,0.93527,0.31547,-0.12692,0.09820,
8.75000,7.94823,7.62245,-3.96273,0.13359,0.54403,0.84384,,,0.93519,0.31596,-0.12629,0.09818,
8.75781,8.32528,3.01385,-4.13862,0.22134,0.54794,0.85544,,,0.93507,0.31650,-0.12595,0.09805,
8.76563,8.59951,0.85357,-3.15362,0.27273,0.49079,0.82788,,,0.93491,0.31707,-0.12577,0.09794,
8.77344,10.34768,1.39364,-4.10345,0.23734,0.55722,0.86124,,,0.93472,0.31775,-0.12553,0.09780,
8.78125,11.65024,1.53765,-4.80702,0.20922,0.51326,0.84770,,,0.93452,0.31853,-0.12525,0.09763,
8.78906,13.12418,2.43777,-5.19399,0.13602,0.49323,0.89606,,,0.93429,0.31939,-0.12489,0.09746,
8.79688,15.69502,0.02546,-4.94774,0.15735,0.52059,0.85979,,,0.93398,0.32043,-0.12467,0.09728,
8.80469,18.26586,-0.47861,-4.45523,0.13844,0.64368,0.83465,,,0.93361,0.32163,-0.12448,0.09714,
8.81250,17.71742,-2.09882,-4.31452,0.26594,0.53817,0.79887,,,0.93323,0.32281,-0.12440,0.09697,
8.82031,18.81431,0.20548,-5.05327,0.14814,0.53036,0.80999,,,0.93285,0.32405,-0.12415,0.09681,
8.82813,19.63698,-0.69464,-6.28453,0.19177,0.55332,0.82304,,,0.93245,0.32536,-0.12393,0.09656,
8.83594,19.97976,0.31349,-5.58095,0.14184,0.60607,0.79016,,,0.93204,0.32667,-0.12365,0.09638,
8.84375,18.06020,-1.77478,-5.82720,0.21358,0.52889,0.84819,,,0.93167,0.32788,-0.12352,0.09612,
8.85156,17.10042,-0.94667,-5.40506,0.14280,0.52889,0.84915,,,0.93131,0.32901,-0.12334,0.09590,
8.85938,16.99758,-2.31485,-6.84739,0.17238,0.62170,0.78388,,,0.93095,0.33017,-0.12322,0.09556,
8.86719,17.10042,-4.43912,-4.38488,0.11808,0.53036,0.83948,,,0.93056,0.33132,-0.12329,0.09532,
8.87500,17.03186,-5.77130,-3.75166,0.10354,0.52352,0.82836,,,0.93015,0.33246,-0.12346,0.09510,
8.88281,16.68908,-8.65167,-2.27415,0.20001,0.56553,0.76163,,,0.92971,0.33360,-0.12385,0.09490,
8.89063,17.13469,-9.04773,-0.65593,0.17819,0.57969,0.78146,,,0.92925,0.33475,-0.12430,0.09480,
8.89844,17.10042,-9.76782,-0.02271,0.14571,0.53182,0.82885,,,0.92878,0.33589,-0.12480,0.09472,
8.90625,17.20325,-9.80382,0.39944,0.11760,0.53475,0.83658,,,0.92830,0.33704,-0.12532,0.09466,
8.91406,16.41486,-9.73181,0.39944,0.20340,0.58214,0.76937,,,0.92783,0.33814,-0.12584,0.09460,
8.92188,15.55791,-9.01172,-0.44485,0.24219,0.54403,0.78581,,,0.92740,0.33918,-0.12630,0.09450,
8.92969,12.91852,-7.17548,-2.02790,0.20340,0.50105,0.80854,,,0.92705,0.34006,-0.12662,0.09432,
8.93750,11.85590,-6.09534,-3.54058,0.21261,0.54550,0.79597,,,0.92675,0.34088,-0.12685,0.09406,
8.94531,9.55929,-4.29511,-4.45523,0.22473,0.56309,0.76550,,,0.92652,0.34155,-0.12695,0.09376,
8.95313,7.39978,-3.57501,-5.47542,0.23007,0.51424,0.79016,,,0.92635,0.34209,-0.12700,0.09339,
8.96094,6.88561,-1.30672,-6.35489,0.16559,0.51863,0.81482,,,0.92622,0.34258,-0.12689,0.09302,
8.96875,6.91989,-0.40660,-7.41025,0.17335,0.62366,0.76985,,,0.92610,0.34309,-0.12670,0.09260,
8.97656,6.64567,-1.12669,-6.31971,0.12778,0.54257,0.82449,,,0.92598,0.34357,-0.12658,0.09223,
8.98438,6.54284,-2.24284,-7.12882,0.19128,0.54599,0.77276,,,0.92585,0.34405,-0.12651,0.09179,
8.99219,6.40572,-3.14296,-10.96330,0.36290,0.53622,0.71666,,,0.92574,0.34457,-0.12641,0.09108,
9.00000,11.78735,-4.00707,-19.82835,0.20437,0.52694,0.80805,,,0.92555,0.34551,-0.12613,0.08983,
9.00781,13.84402,-4.76317,-18.66745,0.02985,0.51815,0.85786,1021.916,25.2,0.92530,0.34657,-0.12590,0.08866,
9.01563,15.07802,-8.61567,-9.73205,-0.02154,0.61731,0.82304,,,0.92493,0.34766,-0.12612,0.08797,
9.02344,14.46102,-11.64006,0.36426,0.16656,0.63685,0.74423,,,0.92448,0.34864,-0.12677,0.08784,
9.03125,14.08396,-12.79221,2.93231,0.20243,0.54257,0.80950,,,0.92402,0.34957,-0.12756,0.08784,
9.03906,14.15252,-11.89210,5.21893,0.14377,0.51033,0.83030,,,0.92355,0.35049,-0.12835,0.08801,
9.04688,14.42674,-12.72020,6.55572,0.21019,0.54745,0.78871,,,0.92305,0.35142,-0.12922,0.08825,
9.05469,16.24347,-11.38803,8.91270,0.22764,0.55527,0.79887,,,0.92251,0.35243,-0.13005,0.08868,
9.06250,19.46559,-10.45191,8.52573,0.25625,0.42094,0.86318,,,0.92189,0.35364,-0.13080,0.08914,
9.07031,22.96193,-7.53553,6.97787,0.19516,0.48200,0.83320,,,0.92123,0.35506,-0.13130,0.08960,
9.07813,31.25717,-9.98385,5.32446,0.26740,0.56895,0.79693,,,0.92035,0.35703,-0.13186,0.08997,
9.08594,38.86686,-11.17200,7.47037,0.09287,0.48884,0.88977,,,0.91926,0.35947,-0.13250,0.09052,
9.09375,43.04876,-13.94436,8.03323,0.12729,0.49470,0.83658,,,0.91802,0.36218,-0.13331,0.09107,
9.10156,54.60039,-14.41242,9.33484,0.15056,0.55771,0.80854,,,0.91648,0.36560,-0.13410,0.09179,
9.10938,66.87187,-16.89675,9.26449,0.16607,0.51717,0.83997,,,0.91459,0.36979,-0.13496,0.09256,
9.11719,72.73338,-18.58897,10.07360,0.14523,0.48004,0.89267,,,0.91251,0.37434,-0.13591,0.09338,
9.12500,86.58164,-20.78526,9.54592,0.17286,0.55478,0.79790,,,0.91003,0.37976,-0.13690,0.09425,
9.13281,103.37779,-23.16157,9.26449,0.22231,0.50838,0.86124,,,0.90706,0.38623,-0.13790,0.09519,
9.14063,111.81014,-23.73764,8.59609,0.18934,0.45171,0.89316,,,0.90381,0.39320,-0.13887,0.09614,
9.14844,130.11452,-26.65402,5.18375,0.32121,0.41508,0.83658,,,0.90000,0.40132,-0.13979,0.09697,
9.15625,140.46643,-25.96993,3.21374,0.21989,0.43462,0.80177,,,0.89584,0.41006,-0.14053,0.09779,
9.16406,164.04960,-29.96645,-2.52040,0.29842,0.45122,0.82740,,,0.89093,0.42028,-0.14119,0.09837,
9.17188,189.41522,-30.57853,-10.25973,0.25140,0.50447,0.87623,,,0.88520,0.43204,-0.14147,0.09868,
9.17969,202.95497,-31.37064,-15.25511,0.32266,0.51375,0.79983,,,0.87894,0.44460,-0.14154,0.09879,
9.18750,236.06738,-33.06286,-22.60748,0.25867,0.59484,0.90186,,,0.87150,0.45913,-0.14122,0.09870,
9.19531,267.46590,-40.08377,-30.31162,0.22328,0.45416,0.95457,,,0.86280,0.47549,-0.14083,0.09820,
9.20313,285.73600,-43.36020,-33.86468,0.25334,0.47321,0.86028,,,0.85319,0.49281,-0.14034,0.09753,
9.21094,329.33744,-53.44151,-36.36237,0.15250,0.63245,0.97246,,,0.84163,0.51254,-0.14000,0.09674,
9.21875,373.76154,-71.98393,-39.59882,0.18886,0.75213,1.06917,,,0.82787,0.53465,-0.14023,0.09549,
9.22656,396.86482,-84.69359,-40.23204,0.32072,0.80830,1.15379,,,0.81255,0.55776,-0.14090,0.09389,
9.23438,440.67192,-96.03506,-47.76029,0.42010,1.08820,1.06095,,,0.79480,0.58296,-0.14152,0.09178,
9.24219,470.73361,-98.66341,-62.64091,0.54518,1.56642,1.41442,,,0.77511,0.60935,-0.14135,0.08896,
9.25000,471.69339,-99.52752,-71.78739,0.80454,1.57130,1.34624,,,0.75458,0.63521,-0.14069,0.08553,
9.25781,467.68288,-75.65641,-104.29257,1.06294,1.65043,1.39652,,,0.73382,0.66034,-0.13726,0.08134,
9.26563,467.40865,-56.78995,-118.50479,0.76528,1.70856,1.41635,,,0.71252,0.68477,-0.13211,0.07719,
9.27344,456.13124,-70.43573,-120.15819,0.57863,1.99725,1.62234,,,0.69087,0.70799,-0.12745,0.07213,
9.28125,431.82824,-74.79230,-120.43962,0.50543,1.82873,1.53288,,,0.66966,0.72938,-0.12297,0.06657,
9.28906,420.31088,-74.21622,-121.81159,0.44047,1.72371,1.81721,,,0.64841,0.74957,-0.11834,0.06082,
9.29688,383.32507,-78.96884,-120.65069,0.53597,1.29971,1.91778,,,0.62846,0.76751,-0.11403,0.05452,
9.30469,324.40142,-94.34284,-116.18299,0.92671,1.00516,2.38005,,,0.61102,0.78241,-0.11076,0.04712,
9.31250,293.41424,-88.11403,-109.53420,0.89084,0.28856,1.80560,,,0.59493,0.79553,-0.10762,0.04007,
9.32031,269.45402,-84.22553,-103.87042,1.16474,1.37493,1.50726,,,0.57987,0.80727,-0.10465,0.03327,
9.32813,160.27903,-72.05594,-76.57170,2.17262,3.31614,4.49120,,,0.57071,0.81422,-0.10292,0.02744,
9.33594,24.05882,-16.93275,-49.20262,1.98356,2.24540,3.78232,,,0.56938,0.81549,-0.10080,0.02477,
9.34375,-120.79941,40.71076,0.75122,1.58263,0.92700,2.45984,,,0.57638,0.81068,-0.09947,0.02624,
9.35156,-157.16822,74.51917,13.90808,1.20401,0.32373,2.02997,,,0.58552,0.80421,-0.09759,0.02985,
9.35938,-192.64580,98.13825,34.45248,0.39683,-0.31813,1.38734,,,0.59661,0.79599,-0.09595,0.03532,
9.36719,-197.17048,77.50756,46.94094,-0.03366,-0.47884,1.11172,,,0.60765,0.78738,-0.09581,0.04015,
9.37500,-197.03337,58.42507,52.67508,-0.12965,-0.50766,1.03822,,,0.61840,0.77863,-0.09674,0.04417,
9.38281,-196.99909,14.49934,61.96227,-0.13498,-0.36746,0.99277,,,0.62872,0.76979,-0.10000,0.04625,
9.39063,-204.16317,-14.01637,64.67104,0.02936,-0.12127,1.02807,,,0.63907,0.76055,-0.10463,0.04689,
9.39844,-211.43007,-19.20105,62.98246,0.13359,-0.01674,1.02855,,,0.64963,0.75086,-0.10939,0.04713,
9.40625,-230.52284,-13.04425,54.99688,0.25334,0.20161,1.05273,,,0.66108,0.74018,-0.11351,0.04717,
9.41406,-254.03745,3.66193,45.00611,0.22958,0.37453,1.07352,,,0.67369,0.72825,-0.11642,0.04741,
9.42188,-266.13753,10.57483,40.96055,0.18789,0.44487,1.07497,,,0.68675,0.71554,-0.11880,0.04770,
9.42969,-290.50909,15.36346,36.38731,0.06378,0.53720,1.03435,,,0.70079,0.70144,-0.12078,0.04779,
9.43750,-311.52142,7.11838,37.51303,0.00173,0.63440,1.00437,,,0.71547,0.68606,-0.12322,0.04735,
9.44531,-321.32489,0.34950,39.69412,0.00803,0.68423,0.97101,,,0.73020,0.66988,-0.12606,0.04659,
9.45313,-337.67543,-12.07212,45.95594,0.06330,0.79023,0.89896,,,0.74518,0.65253,-0.12980,0.04541,
9.46094,-350.49535,-16.64472,51.93633,0.10935,0.80097,0.85592,,,0.76025,0.63413,-0.13400,0.04419,
9.46875,-354.40302,-15.09651,53.94152,0.23831,0.82589,0.80225,,,0.77504,0.61512,-0.13814,0.04309,
9.47656,-358.61920,-4.11508,57.14278,0.32460,0.87425,0.80950,,,0.78964,0.59546,-0.14176,0.04254,
9.48438,-359.47615,3.33789,58.93690,0.32703,0.91528,0.84964,,,0.80385,0.57534,-0.14497,0.04237,
9.49219,-361.01865,14.39133,64.49515,0.27176,1.04814,0.96375,,,0.81771,0.55470,-0.14770,0.04288,
9.50000,-365.71472,16.87565,72.93805,0.20631,1.20446,1.07642,,,0.83123,0.53335,-0.15054,0.04389,
9.50781,-369.17678,15.07542,77.40575,0.20292,1.27968,1.12332,,,0.84430,0.51142,-0.15355,0.04502,
9.51563,-377.19780,9.27866,85.07472,0.20728,1.37542,1.16201,,,0.85699,0.48861,-0.15708,0.04627,
9.52344,-383.74487,5.17413,89.89421,0.24703,1.45358,1.18232,,,0.86924,0.46505,-0.16092,0.04757,
9.53125,-385.69871,4.02198,90.84404,0.27176,1.48484,1.18860,,,0.88090,0.44102,-0.16475,0.04883,
9.53906,-386.89843,3.55392,90.17564,0.36145,1.57814,1.20504,,,0.89194,0.41660,-0.16847,0.04999,
9.54688,-383.16215,4.16600,89.75350,0.41671,1.68902,1.23405,,,0.90224,0.39212,-0.17201,0.05114,
9.55469,-379.04880,3.33789,91.19583,0.43222,1.79454,1.26597,,,0.91177,0.36760,-0.17550,0.05237,
9.56250,-370.03373,-1.63076,97.45765,0.47586,2.04512,1.29015,,,0.92036,0.34333,-0.17930,0.05394,
9.57031,-365.13199,-4.79917,102.55857,0.50494,2.21365,1.27467,,,0.92816,0.31908,-0.18328,0.05578,
9.57813,-356.45969,-8.25562,117.08740,0.51561,2.54288,1.15572,,,0.93506,0.29502,-0.18764,0.05853,
9.58594,-346.27917,-6.99546,133.19927,0.57087,2.81887,0.97536,,,0.94110,0.27120,-0.19208,0.06243,
9.59375,-341.51455,-2.56688,137.63180,0.62469,2.91510,0.80709,,,0.94649,0.24744,-0.19618,0.06671,
9.60156,-328.38613,13.92327,137.70215,0.65329,2.98984,0.38157,,,0.95130,0.22431,-0.19904,0.07141,
9.60938,-305.52280,31.34954,132.74195,0.50882,2.98349,-0.11164,,,0.95550,0.20252,-0.20047,0.07633,
9.61719,-290.57765,36.21017,130.70158,0.39974,2.95174,-0.34423,,,0.95909,0.18160,-0.20138,0.08134,
9.62500,-255.34001,35.05802,130.13872,0.17722,2.77295,-0.77748,,,0.96182,0.16293,-0.20208,0.08676,
9.63281,-211.84141,26.41690,130.42015,0.12681,2.51113,-1.14594,,,0.96362,0.14709,-0.20302,0.09266,
9.64063,-185.68740,24.65267,129.29443,0.11081,2.41685,-1.28278,,,0.96488,0.13296,-0.20385,0.09882,
9.64844,-128.10060,27.82108,124.79155,0.08754,2.42027,-1.46363,,,0.96551,0.12263,-0.20400,0.10548,
9.65625,-70.41096,36.46221,109.59432,0.05457,2.76123,-1.45686,,,0.96578,0.11624,-0.20302,0.11201,
9.66406,-47.92468,39.19856,95.80425,-0.07099,2.85160,-1.42543,,,0.96594,0.11149,-0.20155,0.11796,
9.67188,-11.96721,24.86870,64.38961,-0.37107,2.85306,-1.27505,,,0.96584,0.10965,-0.20050,0.12221,
9.67969,2.84083,7.91049,50.14221,-0.39774,2.80373,-1.19188,,,0.96550,0.10912,-0.20032,0.12560,
9.68750,29.61184,-25.21383,24.98939,-0.13789,2.60101,-1.02602,,,0.96471,0.11098,-0.20191,0.12746,
9.69531,58.67946,-34.71907,-0.33932,0.17189,2.37191,-0.77942,,,0.96378,0.11517,-0.20368,0.12797,
9.70313,72.21921,-29.60641,-13.39064,0.27127,2.24931,-0.66385,,,0.96290,0.12039,-0.20489,0.12785,
9.71094,99.57295,-15.20453,-45.15706,-0.60086,-0.13592,-0.60824,,,0.96224,0.12768,-0.20464,0.12615,
9.71875,157.15975,-8.03959,-93.80929,0.94077,-2.77126,0.42654,,,0.96149,0.13933,-0.20300,0.12212,
9.72656,152.22374,30.66545,-102.39291,0.55294,-2.14259,0.37818,,,0.96125,0.15043,-0.19874,0.11780,
9.73438,210.90743,52.05224,-129.41020,0.83799,-0.15449,3.35342,,,0.96069,0.16555,-0.19227,0.11270,
9.74219,119.76261,18.99993,-102.11148,-0.23145,0.22604,0.56290,,,0.96032,0.17458,-0.18894,0.10779,
9.75000,133.81653,7.47843,-102.92059,-0.27218,0.12492,-0.44239,,,0.95951,0.18460,-0.18623,0.10285,
9.75781,221.46501,14.42733,-105.98115,-0.12819,1.18736,0.43089,,,0.95752,0.20032,-0.18237,0.09890,
9.76563,216.49472,-11.09999,-82.44655,0.62856,1.81163,2.06623,,,0.95486,0.21553,-0.18048,0.09604,
9.77344,179.61175,-4.90719,-70.52095,0.76770,1.52197,1.69632,,,0.95253,0.22811,-0.17857,0.09358,
9.78125,147.93901,25.15673,-74.00365,0.30182,0.83566,1.05321,,,0.95095,0.23845,-0.17482,0.09096,
9.78906,152.63507,27.89309,-77.97885,0.33914,0.87180,1.05466,,,0.94922,0.24908,-0.17079,0.08817,
9.79688,159.01075,30.26940,-76.25509,0.72407,1.29189,1.35881,,,0.94726,0.26007,-0.16657,0.08559,
9.80469,140.46643,49.24387,-67.39004,0.65620,1.29092,1.19924,,,0.94566,0.26960,-0.16136,0.08370,
9.81250,132.58252,53.63645,-59.26375,0.58978,1.21227,1.16104,,,0.94410,0.27849,-0.15605,0.08232,
