Gait Up - Physilog data export
Created on: YYYY-MM-DD hh:mm:ss
Total data points: 22091

Time [128 hz],Gyro [128 hz],,,Accel [128 hz],,,Baro [1 hz],,Event [128 hz],Quaternion [128 hz],,,,
Time,Gyro X,Gyro Y,Gyro Z,Accel X,Accel Y,Accel Z,Pressure,Temperature,Quat W,Quat X,Quat Y,Quat Z,
[s],[deg/s],[deg/s],[deg/s],[g],[g],[g],[mBar],[degree C],[],[],[],[],
0.00781,0.09424,0.00362,-0.57167,0.12502,0.96015,0.30031,1022.737,24.7,0.80663,0.58692,-0.06978,-0.00048,
0.01563,0.16293,0.00362,-0.71137,0.11532,0.94844,0.31435,,,0.80663,0.58693,-0.06975,-0.00051,
0.02344,0.16293,0.00362,-0.64152,0.10949,0.93868,0.29935,,,0.80662,0.58694,-0.06973,-0.00055,
0.03125,0.36899,0.28856,-0.78122,0.10610,0.96845,0.30951,,,0.80661,0.58696,-0.06968,-0.00058,
0.03906,0.30030,0.28856,-0.67645,0.10852,0.96845,0.31193,,,0.80660,0.58698,-0.06964,-0.00060,
0.04688,0.47202,0.25295,-0.78122,0.09979,0.96747,0.31193,,,0.80658,0.58701,-0.06959,-0.00063,
0.05469,0.33465,0.21733,-0.71137,0.10367,0.94014,0.31048,,,0.80657,0.58704,-0.06955,-0.00066,
0.06250,0.43768,0.11047,-0.74630,0.10804,0.94649,0.31435,,,0.80655,0.58706,-0.06952,-0.00070,
0.07031,0.26596,0.32418,-0.71137,0.10076,0.94795,0.31048,,,0.80654,0.58708,-0.06947,-0.00072,
0.07813,0.47202,0.35980,-0.74630,0.11046,0.94893,0.30128,,,0.80652,0.58711,-0.06942,-0.00075,
0.08594,0.57505,0.14609,-0.74630,0.10852,0.96894,0.30999,,,0.80650,0.58715,-0.06938,-0.00078,
0.09375,0.57505,0.50227,-0.85107,0.11726,0.96894,0.31193,,,0.80648,0.58718,-0.06932,-0.00080,
0.10156,0.50636,0.25295,-0.57167,0.11823,0.96942,0.30661,,,0.80646,0.58721,-0.06928,-0.00082,
0.10938,0.26596,0.50227,-0.53674,0.09736,0.95820,0.32209,,,0.80645,0.58723,-0.06924,-0.00083,
0.11719,0.26596,0.50227,-0.53674,0.10755,0.95966,0.32499,,,0.80645,0.58725,-0.06919,-0.00084,
0.12500,0.40333,0.35980,-0.64152,0.10173,0.96210,0.32209,,,0.80643,0.58727,-0.06914,-0.00086,
0.13281,0.50636,0.35980,-0.71137,0.12162,0.97284,0.31628,,,0.80641,0.58730,-0.06909,-0.00088,
0.14063,0.40333,0.03924,-0.74630,0.11338,0.96015,0.32306,,,0.80640,0.58733,-0.06906,-0.00092,
0.14844,0.60939,0.39542,-0.71137,0.11435,0.96015,0.30515,,,0.80637,0.58737,-0.06901,-0.00094,
0.15625,0.64374,0.64475,-0.67645,0.09639,0.96210,0.31967,,,0.80635,0.58740,-0.06895,-0.00094,
0.16406,0.50636,0.43104,-0.71137,0.09882,0.95332,0.31096,,,0.80633,0.58744,-0.06890,-0.00096,
0.17188,0.43768,0.46665,-0.46689,0.09979,0.96308,0.31144,,,0.80632,0.58746,-0.06885,-0.00097,
0.17969,0.47202,0.35980,-0.53674,0.11046,0.95186,0.31193,,,0.80630,0.58749,-0.06881,-0.00098,
0.18750,0.64374,0.35980,-0.29227,0.10561,0.95674,0.31725,,,0.80628,0.58753,-0.06878,-0.00098,
0.19531,0.54071,0.39542,-0.22242,0.11095,0.95137,0.30854,,,0.80626,0.58756,-0.06875,-0.00097,
0.20313,0.54071,0.43104,-0.29227,0.10173,0.96796,0.30564,,,0.80624,0.58759,-0.06871,-0.00097,
0.21094,0.54071,0.25295,-0.15257,0.11386,0.97528,0.31774,,,0.80622,0.58762,-0.06869,-0.00097,
0.21875,0.57505,0.28856,-0.15257,0.11240,0.96942,0.29741,,,0.80619,0.58765,-0.06867,-0.00096,
0.22656,0.50636,0.28856,-0.22242,0.11871,0.96357,0.30370,,,0.80618,0.58768,-0.06865,-0.00096,
0.23438,0.30030,0.53789,-0.22242,0.10464,0.94307,0.30709,,,0.80617,0.58770,-0.06861,-0.00095,
0.24219,0.23162,0.35980,-0.25734,0.10755,0.93624,0.30564,,,0.80616,0.58771,-0.06858,-0.00095,
0.25000,0.33465,0.35980,-0.32719,0.10173,0.94844,0.30757,,,0.80615,0.58773,-0.06854,-0.00095,
0.25781,0.57505,0.21733,-0.57167,0.12065,0.96991,0.30903,,,0.80612,0.58777,-0.06851,-0.00097,
0.26563,0.50636,0.39542,-0.36212,0.11677,0.96308,0.31193,,,0.80611,0.58780,-0.06847,-0.00097,
0.27344,0.64374,0.07486,-0.43197,0.11483,0.96308,0.29644,,,0.80608,0.58783,-0.06845,-0.00099,
0.28125,0.43768,0.57351,-0.25734,0.09542,0.95625,0.31096,,,0.80607,0.58786,-0.06841,-0.00098,
0.28906,0.50636,0.46665,-0.32719,0.10367,0.95576,0.31290,,,0.80605,0.58789,-0.06837,-0.00097,
0.29688,0.67808,0.35980,-0.29227,0.10173,0.95722,0.30709,,,0.80602,0.58793,-0.06834,-0.00097,
0.30469,0.78111,0.11047,-0.36212,0.11338,0.96015,0.29789,,,0.80599,0.58797,-0.06832,-0.00098,
0.31250,0.64374,0.28856,-0.29227,0.11629,0.95186,0.29983,,,0.80597,0.58801,-0.06829,-0.00099,
0.32031,0.57505,0.21733,-0.32719,0.11386,0.95088,0.30419,,,0.80594,0.58804,-0.06827,-0.00099,
0.32813,0.50636,0.28856,-0.29227,0.10416,0.95771,0.30951,,,0.80593,0.58807,-0.06824,-0.00099,
0.33594,0.26596,0.35980,-0.32719,0.11143,0.96650,0.32161,,,0.80592,0.58809,-0.06821,-0.00100,
0.34375,0.43768,0.28856,-0.43197,0.10852,0.96308,0.31241,,,0.80590,0.58811,-0.06817,-0.00101,
0.35156,0.33465,0.35980,-0.53674,0.11629,0.94112,0.30467,,,0.80589,0.58813,-0.06813,-0.00102,
0.35938,0.40333,0.25295,-0.36212,0.11483,0.94844,0.30515,,,0.80587,0.58816,-0.06810,-0.00103,
0.36719,0.40333,0.25295,-0.53674,0.10124,0.94893,0.31241,,,0.80586,0.58818,-0.06807,-0.00105,
0.37500,0.60939,0.21733,-0.36212,0.11580,0.94746,0.31725,,,0.80584,0.58822,-0.06804,-0.00105,
0.38281,0.64374,0.28856,-0.39704,0.10658,0.97040,0.31338,,,0.80581,0.58825,-0.06801,-0.00106,
0.39063,0.60939,0.11047,-0.50182,0.11095,0.97430,0.31774,,,0.80579,0.58829,-0.06798,-0.00108,
0.39844,0.50636,0.28856,-0.64152,0.11726,0.97528,0.31435,,,0.80577,0.58832,-0.06794,-0.00110,
0.40625,0.47202,0.14609,-0.57167,0.10124,0.95283,0.32112,,,0.80575,0.58835,-0.06791,-0.00113,
0.41406,0.33465,0.25295,-0.46689,0.10804,0.94649,0.31628,,,0.80574,0.58837,-0.06788,-0.00114,
0.42188,0.43768,0.35980,-0.53674,0.10076,0.95088,0.31870,,,0.80572,0.58840,-0.06784,-0.00115,
0.42969,0.57505,0.25295,-0.53674,0.12454,0.97040,0.29983,,,0.80570,0.58843,-0.06780,-0.00117,
0.43750,0.43768,0.00362,-0.53674,0.11338,0.96552,0.32257,,,0.80568,0.58846,-0.06778,-0.00120,
0.44531,0.50636,0.18171,-0.71137,0.11240,0.96601,0.31483,,,0.80566,0.58849,-0.06774,-0.00123,
0.45313,0.43768,0.32418,-0.71137,0.10318,0.95869,0.31822,,,0.80565,0.58852,-0.06770,-0.00125,
0.46094,0.26596,0.25295,-0.60659,0.10367,0.95625,0.32403,,,0.80564,0.58853,-0.06766,-0.00127,
0.46875,0.16293,0.25295,-0.81615,0.10221,0.94795,0.31532,,,0.80563,0.58855,-0.06761,-0.00131,
0.47656,0.54071,0.03924,-0.74630,0.11580,0.95966,0.31677,,,0.80561,0.58858,-0.06758,-0.00134,
0.48438,0.54071,0.03924,-0.95585,0.11483,0.95625,0.30564,,,0.80559,0.58861,-0.06754,-0.00139,
0.49219,0.50636,0.00362,-0.78122,0.11823,0.95186,0.30903,,,0.80557,0.58864,-0.06751,-0.00143,
0.50000,0.43768,0.21733,-0.92092,0.10513,0.96015,0.32161,,,0.80555,0.58867,-0.06746,-0.00147,
0.50781,0.50636,0.35980,-0.88600,0.09882,0.96991,0.31290,,,0.80553,0.58870,-0.06740,-0.00150,
0.51563,0.47202,0.28856,-0.85107,0.11046,0.97235,0.31193,,,0.80551,0.58873,-0.06735,-0.00154,
0.52344,0.47202,0.00362,-1.06062,0.11095,0.96845,0.31290,,,0.80550,0.58876,-0.06731,-0.00159,
0.53125,0.47202,0.14609,-0.81615,0.10658,0.94356,0.30612,,,0.80548,0.58879,-0.06727,-0.00163,
0.53906,0.36899,0.03924,-0.67645,0.10755,0.94795,0.31144,,,0.80546,0.58882,-0.06724,-0.00166,
0.54688,0.33465,0.32418,-0.53674,0.10901,0.94405,0.30661,,,0.80545,0.58884,-0.06720,-0.00168,
0.55469,0.36899,0.21733,-0.64152,0.12357,0.96942,0.31338,,,0.80544,0.58886,-0.06716,-0.00170,
0.56250,0.47202,0.18171,-0.57167,0.11483,0.96796,0.30854,,,0.80542,0.58889,-0.06713,-0.00173,
0.57031,0.36899,0.14609,-0.71137,0.11871,0.96747,0.30370,,,0.80540,0.58891,-0.06709,-0.00176,
0.57813,0.26596,0.18171,-0.60659,0.10998,0.94795,0.30177,,,0.80539,0.58893,-0.06706,-0.00178,
0.58594,0.16293,0.21733,-0.57167,0.10513,0.94356,0.31096,,,0.80539,0.58894,-0.06702,-0.00180,
0.59375,0.16293,0.25295,-0.67645,0.10416,0.94844,0.30806,,,0.80538,0.58896,-0.06698,-0.00183,
0.60156,0.26596,0.28856,-0.71137,0.11726,0.96845,0.29644,,,0.80537,0.58897,-0.06694,-0.00186,
0.60938,0.16293,0.11047,-0.92092,0.11871,0.96601,0.30128,,,0.80537,0.58899,-0.06690,-0.00190,
0.61719,0.23162,-0.06762,-0.85107,0.11920,0.96308,0.30370,,,0.80536,0.58900,-0.06687,-0.00195,
0.62500,0.05990,0.21733,-0.71137,0.11143,0.95039,0.30564,,,0.80536,0.58901,-0.06683,-0.00198,
0.63281,0.05990,0.03924,-0.78122,0.11240,0.95820,0.31435,,,0.80535,0.58902,-0.06679,-0.00202,
0.64063,0.16293,0.21733,-0.92092,0.10367,0.96796,0.31919,,,0.80535,0.58903,-0.06674,-0.00206,
0.64844,0.05990,0.11047,-0.71137,0.10027,0.94795,0.29596,,,0.80535,0.58904,-0.06671,-0.00210,
0.65625,0.02556,-0.03200,-0.50182,0.11532,0.94649,0.30467,,,0.80534,0.58904,-0.06669,-0.00213,
0.66406,0.05990,-0.10323,-0.71137,0.11095,0.94795,0.30854,,,0.80534,0.58905,-0.06667,-0.00217,
0.67188,0.05990,-0.03200,-0.67645,0.11726,0.94356,0.30419,,,0.80534,0.58905,-0.06664,-0.00221,
0.67969,-0.00879,-0.03200,-0.64152,0.11143,0.96796,0.31919,,,0.80534,0.58905,-0.06662,-0.00224,
0.68750,0.05990,0.03924,-0.64152,0.10513,0.97040,0.31822,,,0.80534,0.58906,-0.06659,-0.00228,
0.69531,0.19727,-0.03200,-0.85107,0.10804,0.97430,0.31483,,,0.80533,0.58908,-0.06656,-0.00232,
0.70313,0.16293,0.00362,-0.60659,0.10561,0.95283,0.30757,,,0.80532,0.58909,-0.06653,-0.00236,
0.71094,0.05990,0.03924,-0.71137,0.11483,0.95527,0.33419,,,0.80532,0.58909,-0.06650,-0.00239,
0.71875,-0.11182,0.07486,-0.74630,0.10804,0.94844,0.32016,,,0.80532,0.58909,-0.06647,-0.00243,
0.72656,0.23162,0.07486,-0.92092,0.11483,0.97333,0.31193,,,0.80532,0.58911,-0.06643,-0.00248,
0.73438,0.23162,0.03924,-0.74630,0.11095,0.97381,0.31193,,,0.80531,0.58912,-0.06639,-0.00252,
0.74219,0.02556,-0.21009,-0.85107,0.11386,0.96601,0.31290,,,0.80530,0.58913,-0.06637,-0.00257,
0.75000,0.02556,-0.03200,-0.85107,0.10027,0.95625,0.32016,,,0.80530,0.58913,-0.06634,-0.00262,
0.75781,-0.18051,0.11047,-0.57167,0.10027,0.94210,0.31677,,,0.80531,0.58913,-0.06631,-0.00265,
0.76563,-0.21485,0.03924,-0.74630,0.09348,0.95381,0.32790,,,0.80532,0.58912,-0.06628,-0.00269,
0.77344,-0.00879,-0.21009,-0.71137,0.11920,0.97186,0.31241,,,0.80532,0.58912,-0.06626,-0.00274,
0.78125,-0.18051,-0.24571,-0.71137,0.11968,0.96894,0.31144,,,0.80532,0.58912,-0.06625,-0.00279,
0.78906,-0.18051,-0.35256,-0.60659,0.11629,0.96894,0.30806,,,0.80533,0.58911,-0.06624,-0.00283,
0.79688,-0.21485,-0.28133,-0.71137,0.11677,0.95869,0.30515,,,0.80534,0.58910,-0.06623,-0.00288,
0.80469,-0.52394,-0.17447,-0.74630,0.10561,0.95722,0.31193,,,0.80536,0.58907,-0.06621,-0.00293,
0.81250,-0.52394,-0.21009,-0.85107,0.10513,0.95820,0.31290,,,0.80538,0.58905,-0.06618,-0.00299,
0.82031,-0.31788,-0.31694,-0.74630,0.10318,0.96064,0.30564,,,0.80539,0.58903,-0.06617,-0.00305,
0.82813,-0.48960,-0.38818,-0.85107,0.11289,0.95478,0.30128,,,0.80541,0.58901,-0.06616,-0.00311,
0.83594,-0.55828,-0.38818,-0.88600,0.11968,0.94893,0.31144,,,0.80543,0.58898,-0.06614,-0.00318,
0.84375,-0.14616,-0.31694,-0.92092,0.11240,0.94649,0.30225,,,0.80543,0.58898,-0.06613,-0.00324,
0.85156,-0.04313,-0.17447,-0.99077,0.10852,0.96747,0.30273,,,0.80543,0.58898,-0.06610,-0.00330,
0.85938,-0.11182,-0.17447,-1.13047,0.10901,0.96991,0.30370,,,0.80543,0.58898,-0.06606,-0.00337,
0.86719,-0.07747,-0.21009,-1.09555,0.11968,0.97625,0.31725,,,0.80544,0.58898,-0.06603,-0.00344,
0.87500,-0.35222,-0.24571,-1.27017,0.10561,0.94356,0.31193,,,0.80545,0.58897,-0.06599,-0.00352,
0.88281,-0.35222,-0.24571,-1.20032,0.10949,0.93673,0.29983,,,0.80546,0.58895,-0.06595,-0.00360,
0.89063,-0.42091,-0.38818,-1.47972,0.10901,0.94307,0.31483,,,0.80548,0.58894,-0.06592,-0.00370,
0.89844,-0.21485,-0.31694,-1.37495,0.11483,0.97186,0.31580,,,0.80548,0.58893,-0.06588,-0.00379,
0.90625,-0.35222,-0.35256,-1.40987,0.11240,0.97040,0.31048,,,0.80550,0.58892,-0.06584,-0.00388,
0.91406,-0.45525,-0.60189,-1.61942,0.11435,0.96162,0.31580,,,0.80551,0.58890,-0.06581,-0.00400,
0.92188,-0.55828,-0.24571,-1.72420,0.08863,0.94893,0.31967,,,0.80553,0.58888,-0.06575,-0.00410,
0.92969,-0.66131,-0.24571,-1.61942,0.09396,0.94795,0.31967,,,0.80556,0.58885,-0.06570,-0.00421,
0.93750,-0.59263,-0.10323,-1.61942,0.09396,0.94356,0.31048,,,0.80558,0.58882,-0.06564,-0.00430,
0.94531,-0.48960,-0.06762,-1.44480,0.10027,0.94893,0.31096,,,0.80560,0.58880,-0.06559,-0.00439,
0.95313,-0.18051,-0.28133,-1.30510,0.11871,0.95186,0.29935,,,0.80560,0.58880,-0.06555,-0.00447,
0.96094,0.12859,-0.21009,-1.30510,0.10610,0.95820,0.30177,,,0.80560,0.58881,-0.06551,-0.00455,
0.96875,-0.14616,-0.10323,-0.99077,0.10513,0.95771,0.31048,,,0.80560,0.58881,-0.06548,-0.00461,
0.97656,-0.21485,0.14609,-0.88600,0.09154,0.96650,0.32112,,,0.80561,0.58880,-0.06543,-0.00465,
0.98438,-0.38657,0.00362,-0.81615,0.11289,0.95478,0.31822,,,0.80563,0.58878,-0.06540,-0.00470,
0.99219,-0.11182,0.00362,-1.02570,0.09008,0.96601,0.32209,,,0.80563,0.58878,-0.06536,-0.00476,
1.00000,-0.04313,-0.21009,-0.74630,0.10416,0.95576,0.32257,,,0.80563,0.58878,-0.06534,-0.00481,
1.00781,-0.00879,-0.03200,-0.78122,0.11580,0.95869,0.31677,1022.775,24.7,0.80563,0.58879,-0.06531,-0.00485,
1.01563,-0.11182,0.03924,-0.85107,0.09979,0.95234,0.31386,,,0.80564,0.58878,-0.06527,-0.00490,
1.02344,-0.07747,0.00362,-0.95585,0.09493,0.96991,0.31580,,,0.80564,0.58878,-0.06523,-0.00495,
1.03125,-0.07747,0.11047,-0.46689,0.10464,0.96698,0.32209,,,0.80564,0.58878,-0.06521,-0.00497,
1.03906,0.43768,0.11047,-0.71137,0.10367,0.98309,0.32257,,,0.80563,0.58881,-0.06518,-0.00500,
1.04688,0.36899,0.35980,-0.43197,0.09493,0.94990,0.32741,,,0.80561,0.58883,-0.06514,-0.00501,
1.05469,0.43768,0.25295,-0.15257,0.10173,0.95186,0.32306,,,0.80560,0.58886,-0.06512,-0.00501,
1.06250,0.33465,0.46665,-0.01287,0.10804,0.94893,0.31677,,,0.80558,0.58887,-0.06509,-0.00499,
1.07031,0.57505,0.53789,-0.15257,0.10998,0.96894,0.31193,,,0.80556,0.58891,-0.06506,-0.00497,
1.07813,0.71242,0.28856,0.05698,0.10998,0.97333,0.31290,,,0.80554,0.58895,-0.06504,-0.00495,
1.08594,0.67808,0.25295,0.12683,0.11192,0.96942,0.31677,,,0.80551,0.58898,-0.06503,-0.00493,
1.09375,0.78111,0.28856,0.16176,0.12065,0.97381,0.32112,,,0.80548,0.58902,-0.06503,-0.00491,
1.10156,0.54071,0.43104,0.26653,0.09493,0.95332,0.32935,,,0.80546,0.58905,-0.06501,-0.00487,
1.10938,0.78111,0.46665,0.33638,0.09979,0.95820,0.31919,,,0.80543,0.58909,-0.06500,-0.00483,
1.11719,0.60939,0.60913,0.33638,0.10173,0.95625,0.32306,,,0.80541,0.58913,-0.06498,-0.00479,
1.12500,0.84980,0.25295,0.09191,0.11580,0.96308,0.32064,,,0.80538,0.58917,-0.06497,-0.00477,
1.13281,0.84980,0.43104,0.16176,0.12308,0.95722,0.31435,,,0.80534,0.58922,-0.06495,-0.00474,
1.14063,0.81545,0.25295,0.02206,0.11240,0.94746,0.30564,,,0.80531,0.58926,-0.06494,-0.00472,
1.14844,0.71242,0.53789,-0.01287,0.10270,0.96503,0.31290,,,0.80529,0.58930,-0.06491,-0.00470,
1.15625,0.78111,0.53789,0.02206,0.10318,0.96552,0.32209,,,0.80526,0.58935,-0.06488,-0.00467,
1.16406,0.84980,0.78722,0.02206,0.10513,0.96991,0.31532,,,0.80523,0.58939,-0.06484,-0.00464,
1.17188,0.84980,0.43104,-0.08272,0.11338,0.94600,0.30951,,,0.80519,0.58944,-0.06481,-0.00462,
1.17969,0.88414,0.50227,-0.18749,0.11289,0.94063,0.30806,,,0.80516,0.58949,-0.06478,-0.00461,
1.18750,0.74677,0.43104,-0.22242,0.11920,0.93770,0.31241,,,0.80513,0.58953,-0.06475,-0.00460,
1.19531,0.95283,0.60913,-0.15257,0.11095,0.96894,0.30903,,,0.80510,0.58959,-0.06471,-0.00458,
1.20313,0.84980,0.71598,-0.22242,0.11774,0.96454,0.30467,,,0.80507,0.58963,-0.06466,-0.00456,
1.21094,0.98717,0.53789,-0.36212,0.11483,0.96894,0.30709,,,0.80503,0.58969,-0.06462,-0.00455,
1.21875,0.91848,0.57351,-0.29227,0.11240,0.93966,0.30757,,,0.80499,0.58974,-0.06457,-0.00454,
1.22656,0.74677,0.57351,-0.53674,0.10270,0.94795,0.30806,,,0.80497,0.58978,-0.06452,-0.00454,
1.23438,0.71242,0.57351,-0.71137,0.10852,0.95186,0.31774,,,0.80494,0.58983,-0.06446,-0.00456,
1.24219,0.57505,0.50227,-0.81615,0.11386,0.94649,0.30903,,,0.80492,0.58986,-0.06440,-0.00458,
1.25000,0.95283,0.25295,-0.74630,0.12017,0.97040,0.30515,,,0.80488,0.58992,-0.06436,-0.00461,
1.25781,0.81545,0.28856,-0.92092,0.12551,0.96894,0.30661,,,0.80485,0.58997,-0.06430,-0.00464,
1.26563,0.78111,0.28856,-0.95585,0.11046,0.96503,0.31096,,,0.80482,0.59001,-0.06425,-0.00468,
1.27344,0.50636,0.43104,-0.78122,0.11046,0.95918,0.31677,,,0.80480,0.59005,-0.06420,-0.00470,
1.28125,0.40333,0.39542,-0.85107,0.10027,0.94698,0.31822,,,0.80479,0.59007,-0.06414,-0.00473,
1.28906,0.57505,0.50227,-0.85107,0.09736,0.96308,0.31774,,,0.80476,0.59011,-0.06408,-0.00475,
1.29688,0.47202,0.21733,-0.78122,0.11532,0.95430,0.30128,,,0.80475,0.59014,-0.06404,-0.00479,
1.30469,0.43768,0.11047,-0.78122,0.11338,0.95283,0.31919,,,0.80473,0.59016,-0.06400,-0.00482,
1.31250,0.40333,0.28856,-0.78122,0.11192,0.94795,0.31290,,,0.80471,0.59019,-0.06395,-0.00485,
1.32031,0.50636,0.57351,-0.81615,0.09396,0.96064,0.31822,,,0.80470,0.59022,-0.06389,-0.00487,
1.32813,0.36899,0.60913,-0.71137,0.09882,0.96454,0.30564,,,0.80468,0.59024,-0.06382,-0.00489,
1.33594,0.33465,0.39542,-0.57167,0.10561,0.96845,0.32354,,,0.80467,0.59027,-0.06378,-0.00490,
1.34375,0.36899,0.28856,-0.78122,0.11629,0.94454,0.31725,,,0.80466,0.59029,-0.06373,-0.00493,
1.35156,0.54071,0.14609,-0.60659,0.11532,0.95869,0.32548,,,0.80464,0.59032,-0.06370,-0.00495,
1.35938,0.30030,0.18171,-0.57167,0.11532,0.95771,0.32693,,,0.80462,0.59034,-0.06367,-0.00498,
1.36719,0.19727,0.07486,-0.46689,0.10949,0.94746,0.31725,,,0.80462,0.59035,-0.06364,-0.00500,
1.37500,0.19727,0.32418,-0.43197,0.10804,0.97381,0.32645,,,0.80461,0.59037,-0.06361,-0.00501,
1.38281,0.26596,0.39542,-0.32719,0.11192,0.97137,0.30661,,,0.80460,0.59038,-0.06358,-0.00501,
1.39063,0.16293,0.21733,-0.36212,0.11046,0.96747,0.31628,,,0.80459,0.59039,-0.06355,-0.00502,
1.39844,-0.00879,0.50227,-0.25734,0.09445,0.94795,0.32257,,,0.80460,0.59039,-0.06351,-0.00501,
1.40625,0.12859,0.25295,-0.36212,0.09688,0.95430,0.32887,,,0.80459,0.59040,-0.06348,-0.00502,
1.41406,0.19727,0.25295,-0.22242,0.10173,0.95381,0.32306,,,0.80459,0.59041,-0.06346,-0.00502,
1.42188,0.36899,-0.06762,-0.43197,0.11289,0.97040,0.30854,,,0.80457,0.59044,-0.06345,-0.00505,
1.42969,0.54071,0.03924,-0.25734,0.11483,0.96308,0.31870,,,0.80455,0.59047,-0.06343,-0.00506,
1.43750,0.33465,0.11047,-0.36212,0.11532,0.96991,0.30951,,,0.80454,0.59049,-0.06341,-0.00507,
1.44531,0.33465,0.32418,-0.22242,0.10513,0.95625,0.31435,,,0.80452,0.59051,-0.06339,-0.00507,
1.45313,0.30030,0.35980,-0.22242,0.10221,0.96308,0.31628,,,0.80451,0.59052,-0.06336,-0.00507,
1.46094,0.23162,0.35980,-0.18749,0.09930,0.95234,0.31338,,,0.80451,0.59054,-0.06333,-0.00506,
1.46875,0.40333,0.18171,-0.11764,0.11483,0.95430,0.29693,,,0.80449,0.59056,-0.06332,-0.00506,
1.47656,0.47202,0.11047,-0.36212,0.12260,0.94990,0.31241,,,0.80447,0.59059,-0.06330,-0.00507,
1.48438,0.50636,0.14609,-0.39704,0.11726,0.95674,0.30999,,,0.80445,0.59062,-0.06327,-0.00509,
1.49219,0.36899,0.35980,-0.46689,0.10901,0.96259,0.31677,,,0.80444,0.59064,-0.06323,-0.00510,
1.50000,0.47202,0.25295,-0.71137,0.10852,0.96113,0.31677,,,0.80442,0.59067,-0.06319,-0.00512,
1.50781,0.43768,0.46665,-0.88600,0.10416,0.96601,0.31338,,,0.80440,0.59070,-0.06313,-0.00515,
1.51563,0.57505,0.53789,-0.74630,0.10707,0.96406,0.30709,,,0.80438,0.59073,-0.06307,-0.00517,
1.52344,0.47202,0.28856,-0.74630,0.11240,0.94698,0.31193,,,0.80436,0.59076,-0.06302,-0.00519,
1.53125,0.40333,0.18171,-0.81615,0.11240,0.94161,0.30612,,,0.80435,0.59079,-0.06298,-0.00523,
1.53906,0.47202,0.32418,-0.81615,0.10901,0.94551,0.30951,,,0.80433,0.59082,-0.06293,-0.00526,
1.54688,0.50636,0.28856,-0.88600,0.11046,0.96796,0.30467,,,0.80431,0.59085,-0.06288,-0.00529,
1.55469,0.40333,0.32418,-0.71137,0.11192,0.96406,0.30999,,,0.80430,0.59087,-0.06283,-0.00532,
1.56250,0.47202,0.18171,-0.74630,0.12114,0.96162,0.31725,,,0.80428,0.59090,-0.06279,-0.00535,
1.57031,0.16293,0.39542,-0.67645,0.10124,0.94210,0.31193,,,0.80427,0.59091,-0.06275,-0.00537,
1.57813,0.26596,0.35980,-0.71137,0.10367,0.94942,0.31290,,,0.80426,0.59093,-0.06270,-0.00539,
1.58594,0.19727,0.39542,-0.50182,0.09833,0.94844,0.31580,,,0.80426,0.59094,-0.06266,-0.00540,
1.59375,0.47202,0.07486,-0.71137,0.12260,0.96503,0.30612,,,0.80424,0.59097,-0.06262,-0.00544,
1.60156,0.47202,0.21733,-0.64152,0.11046,0.96601,0.30999,,,0.80422,0.59100,-0.06259,-0.00546,
1.60938,0.54071,0.03924,-0.53674,0.11871,0.95674,0.30612,,,0.80420,0.59103,-0.06256,-0.00549,
1.61719,0.43768,0.32418,-0.64152,0.09591,0.96406,0.32209,,,0.80418,0.59106,-0.06252,-0.00551,
1.62500,0.40333,0.21733,-0.64152,0.10173,0.96454,0.32016,,,0.80417,0.59109,-0.06248,-0.00553,
1.63281,0.43768,0.39542,-0.67645,0.10464,0.96601,0.32064,,,0.80415,0.59111,-0.06243,-0.00555,
1.64063,0.33465,0.11047,-0.71137,0.11338,0.95283,0.31241,,,0.80414,0.59113,-0.06240,-0.00559,
1.64844,0.36899,0.21733,-0.71137,0.10610,0.95137,0.30999,,,0.80412,0.59116,-0.06236,-0.00561,
1.65625,0.33465,0.28856,-0.64152,0.11774,0.95722,0.32112,,,0.80411,0.59118,-0.06232,-0.00564,
1.66406,0.47202,0.18171,-0.57167,0.11629,0.95137,0.31725,,,0.80409,0.59121,-0.06228,-0.00566,
1.67188,0.36899,0.35980,-0.71137,0.09785,0.96698,0.32451,,,0.80408,0.59123,-0.06223,-0.00568,
1.67969,0.57505,0.28856,-0.43197,0.10367,0.97186,0.32887,,,0.80406,0.59126,-0.06220,-0.00569,
1.68750,0.19727,0.21733,-0.50182,0.10707,0.96308,0.31870,,,0.80405,0.59128,-0.06217,-0.00571,
1.69531,0.43768,-0.06762,-0.50182,0.11435,0.94454,0.31677,,,0.80403,0.59130,-0.06215,-0.00574,
1.70313,0.19727,0.35980,-0.53674,0.11143,0.95137,0.32306,,,0.80402,0.59132,-0.06211,-0.00575,
1.71094,0.23162,0.07486,-0.50182,0.11192,0.94942,0.32499,,,0.80401,0.59133,-0.06209,-0.00578,
1.71875,0.30030,0.21733,-0.50182,0.10852,0.96601,0.31967,,,0.80400,0.59135,-0.06206,-0.00579,
1.72656,0.23162,0.11047,-0.71137,0.11774,0.96601,0.31870,,,0.80399,0.59137,-0.06202,-0.00583,
1.73438,0.26596,-0.06762,-0.57167,0.10901,0.97284,0.31774,,,0.80398,0.59138,-0.06200,-0.00586,
1.74219,0.19727,0.14609,-0.57167,0.10318,0.94990,0.32548,,,0.80397,0.59140,-0.06197,-0.00588,
1.75000,0.16293,0.14609,-0.43197,0.09154,0.94990,0.32209,,,0.80397,0.59141,-0.06195,-0.00590,
1.75781,-0.11182,0.25295,-0.36212,0.10464,0.95527,0.31967,,,0.80397,0.59140,-0.06192,-0.00591,
1.76563,0.40333,0.11047,-0.39704,0.11774,0.96894,0.31193,,,0.80396,0.59143,-0.06189,-0.00593,
1.77344,0.47202,0.18171,-0.22242,0.12454,0.96454,0.29789,,,0.80394,0.59145,-0.06188,-0.00593,
1.78125,0.33465,0.00362,-0.15257,0.12599,0.96210,0.31338,,,0.80393,0.59147,-0.06187,-0.00594,
1.78906,0.30030,0.14609,-0.15257,0.09202,0.94795,0.31193,,,0.80391,0.59149,-0.06186,-0.00594,
1.79688,0.33465,0.32418,-0.15257,0.10270,0.95918,0.31774,,,0.80390,0.59151,-0.06183,-0.00593,
1.80469,0.36899,0.35980,-0.18749,0.10367,0.96259,0.31144,,,0.80389,0.59153,-0.06180,-0.00593,
1.81250,0.33465,0.14609,-0.15257,0.10901,0.96308,0.32064,,,0.80388,0.59155,-0.06179,-0.00593,
1.82031,0.33465,0.14609,-0.18749,0.11871,0.94454,0.31435,,,0.80386,0.59157,-0.06178,-0.00593,
1.82813,0.43768,0.18171,-0.29227,0.11338,0.94746,0.30951,,,0.80385,0.59159,-0.06175,-0.00594,
1.83594,0.19727,0.25295,-0.22242,0.10367,0.93624,0.30806,,,0.80384,0.59161,-0.06173,-0.00594,
1.84375,0.33465,0.14609,-0.43197,0.11289,0.96796,0.31822,,,0.80383,0.59163,-0.06171,-0.00595,
1.85156,0.26596,0.18171,-0.39704,0.11240,0.96454,0.31096,,,0.80382,0.59164,-0.06168,-0.00597,
1.85938,0.36899,0.35980,-0.57167,0.11338,0.96991,0.30419,,,0.80380,0.59166,-0.06164,-0.00598,
1.86719,0.47202,0.14609,-0.53674,0.10367,0.94405,0.30806,,,0.80378,0.59169,-0.06161,-0.00600,
1.87500,0.12859,0.21733,-0.53674,0.10901,0.94502,0.31580,,,0.80378,0.59170,-0.06157,-0.00602,
1.88281,0.26596,0.11047,-0.60659,0.11046,0.95234,0.31580,,,0.80377,0.59172,-0.06154,-0.00605,
1.89063,0.33465,0.21733,-0.60659,0.11386,0.96454,0.31580,,,0.80376,0.59174,-0.06151,-0.00607,
1.89844,0.47202,0.07486,-0.50182,0.11386,0.97284,0.30854,,,0.80374,0.59177,-0.06148,-0.00610,
1.90625,0.26596,-0.03200,-0.60659,0.11920,0.96942,0.30806,,,0.80373,0.59179,-0.06146,-0.00613,
1.91406,0.19727,0.14609,-0.60659,0.10513,0.95039,0.31967,,,0.80372,0.59180,-0.06143,-0.00616,
1.92188,0.36899,0.11047,-0.53674,0.10464,0.94893,0.31193,,,0.80370,0.59182,-0.06140,-0.00618,
1.92969,0.12859,0.28856,-0.60659,0.10998,0.95527,0.32935,,,0.80370,0.59183,-0.06136,-0.00620,
1.93750,0.19727,0.14609,-0.71137,0.09736,0.96259,0.31483,,,0.80369,0.59184,-0.06132,-0.00623,
1.94531,0.36899,-0.10323,-0.78122,0.11968,0.95771,0.31483,,,0.80368,0.59187,-0.06130,-0.00628,
1.95313,0.26596,0.03924,-0.74630,0.11338,0.95430,0.30999,,,0.80367,0.59189,-0.06127,-0.00632,
1.96094,0.26596,-0.03200,-0.78122,0.10901,0.95478,0.31144,,,0.80365,0.59190,-0.06124,-0.00636,
1.96875,0.19727,0.32418,-0.95585,0.09591,0.95576,0.31822,,,0.80365,0.59192,-0.06118,-0.00640,
1.97656,0.16293,0.18171,-0.95585,0.10124,0.96991,0.32064,,,0.80364,0.59193,-0.06113,-0.00644,
1.98438,0.23162,0.18171,-0.99077,0.10076,0.96308,0.32112,,,0.80363,0.59195,-0.06108,-0.00649,
1.99219,0.33465,0.03924,-0.92092,0.11629,0.95234,0.31338,,,0.80362,0.59197,-0.06104,-0.00654,
2.00000,0.30030,0.00362,-0.95585,0.11823,0.94405,0.32306,,,0.80361,0.59199,-0.06100,-0.00659,
2.00781,0.36899,0.00362,-0.92092,0.11289,0.96113,0.32548,1022.783,24.7,0.80359,0.59202,-0.06097,-0.00664,
2.01563,0.12859,0.07486,-0.78122,0.10755,0.96454,0.31580,,,0.80358,0.59203,-0.06093,-0.00668,
2.02344,0.36899,0.21733,-0.99077,0.10464,0.96894,0.31580,,,0.80357,0.59205,-0.06088,-0.00672,
2.03125,0.33465,0.18171,-0.95585,0.11192,0.96991,0.31677,,,0.80356,0.59207,-0.06083,-0.00676,
2.03906,0.19727,0.03924,-0.81615,0.11095,0.95186,0.32645,,,0.80355,0.59209,-0.06080,-0.00681,
2.04688,0.23162,0.03924,-0.88600,0.10221,0.94405,0.32451,,,0.80354,0.59210,-0.06076,-0.00685,
2.05469,0.19727,0.03924,-0.81615,0.09396,0.93673,0.31483,,,0.80353,0.59212,-0.06072,-0.00689,
2.06250,0.36899,-0.03200,-0.88600,0.12551,0.97577,0.32499,,,0.80352,0.59214,-0.06069,-0.00694,
2.07031,0.16293,-0.03200,-0.95585,0.11774,0.96552,0.31725,,,0.80351,0.59215,-0.06065,-0.00700,
2.07813,0.36899,0.11047,-0.74630,0.11192,0.96406,0.31725,,,0.80349,0.59218,-0.06062,-0.00703,
2.08594,0.43768,-0.03200,-0.88600,0.12551,0.97137,0.30999,,,0.80348,0.59220,-0.06058,-0.00708,
2.09375,0.09424,0.21733,-0.85107,0.09833,0.95234,0.31725,,,0.80347,0.59221,-0.06054,-0.00712,
2.10156,0.30030,0.21733,-0.85107,0.10027,0.96113,0.32016,,,0.80346,0.59223,-0.06049,-0.00715,
2.10938,0.09424,0.25295,-0.81615,0.09833,0.95771,0.31435,,,0.80346,0.59224,-0.06044,-0.00719,
2.11719,0.33465,-0.03200,-0.81615,0.11726,0.95137,0.29451,,,0.80344,0.59226,-0.06041,-0.00723,
2.12500,0.26596,-0.10323,-0.64152,0.11192,0.96113,0.31290,,,0.80343,0.59228,-0.06039,-0.00727,
2.13281,0.40333,-0.10323,-0.60659,0.11240,0.95234,0.31725,,,0.80341,0.59231,-0.06037,-0.00730,
2.14063,0.40333,0.35980,-0.57167,0.09930,0.96601,0.31870,,,0.80340,0.59233,-0.06033,-0.00732,
2.14844,0.36899,0.18171,-0.57167,0.10416,0.96552,0.31580,,,0.80339,0.59235,-0.06030,-0.00734,
2.15625,0.43768,0.14609,-0.64152,0.09445,0.96357,0.31048,,,0.80337,0.59238,-0.06027,-0.00737,
2.16406,0.43768,-0.10323,-0.46689,0.11046,0.94258,0.31048,,,0.80335,0.59241,-0.06025,-0.00740,
2.17188,0.26596,0.07486,-0.53674,0.11046,0.94063,0.30709,,,0.80334,0.59242,-0.06023,-0.00742,
2.17969,0.30030,0.21733,-0.39704,0.10707,0.93624,0.30806,,,0.80333,0.59244,-0.06020,-0.00743,
2.18750,0.47202,0.14609,-0.53674,0.10513,0.96210,0.31338,,,0.80331,0.59247,-0.06017,-0.00746,
2.19531,0.30030,0.21733,-0.50182,0.10707,0.95869,0.31435,,,0.80330,0.59249,-0.06014,-0.00747,
2.20313,0.26596,0.21733,-0.50182,0.10707,0.96454,0.31241,,,0.80329,0.59250,-0.06011,-0.00749,
2.21094,0.19727,0.25295,-0.64152,0.10610,0.94698,0.32016,,,0.80328,0.59252,-0.06007,-0.00752,
2.21875,0.36899,0.25295,-0.39704,0.10464,0.94990,0.31628,,,0.80327,0.59254,-0.06004,-0.00753,
2.22656,0.33465,0.25295,-0.57167,0.10367,0.94502,0.32161,,,0.80325,0.59256,-0.06000,-0.00755,
2.23438,0.26596,0.39542,-0.39704,0.10561,0.95869,0.32064,,,0.80324,0.59258,-0.05996,-0.00755,
2.24219,0.43768,0.28856,-0.50182,0.11338,0.96162,0.31628,,,0.80323,0.59260,-0.05993,-0.00756,
2.25000,0.60939,0.03924,-0.46689,0.10707,0.96698,0.31677,,,0.80320,0.59264,-0.05991,-0.00759,
2.25781,0.57505,0.18171,-0.39704,0.12211,0.96454,0.31677,,,0.80318,0.59267,-0.05988,-0.00760,
2.26563,0.30030,0.50227,-0.32719,0.10221,0.96015,0.32354,,,0.80317,0.59269,-0.05984,-0.00759,
2.27344,0.57505,0.18171,-0.39704,0.10561,0.95869,0.31822,,,0.80315,0.59272,-0.05981,-0.00761,
2.28125,0.47202,0.21733,-0.36212,0.10270,0.96113,0.32548,,,0.80313,0.59275,-0.05979,-0.00762,
2.28906,0.33465,0.28856,-0.53674,0.11532,0.95576,0.31628,,,0.80312,0.59277,-0.05975,-0.00763,
2.29688,0.36899,0.18171,-0.46689,0.11338,0.95674,0.32306,,,0.80310,0.59279,-0.05972,-0.00765,
2.30469,0.33465,0.32418,-0.43197,0.10852,0.96503,0.32451,,,0.80309,0.59281,-0.05969,-0.00766,
2.31250,0.40333,0.35980,-0.53674,0.10221,0.96552,0.32209,,,0.80307,0.59284,-0.05964,-0.00767,
2.32031,0.57505,0.50227,-0.53674,0.10027,0.97674,0.32403,,,0.80305,0.59287,-0.05960,-0.00768,
2.32813,0.43768,0.18171,-0.57167,0.10270,0.95820,0.32693,,,0.80303,0.59290,-0.05956,-0.00770,
2.33594,0.40333,0.39542,-0.50182,0.11289,0.95918,0.32306,,,0.80302,0.59292,-0.05952,-0.00771,
2.34375,0.36899,0.35980,-0.50182,0.11338,0.94893,0.31919,,,0.80301,0.59294,-0.05948,-0.00772,
2.35156,0.57505,0.35980,-0.46689,0.10998,0.94600,0.31628,,,0.80298,0.59298,-0.05944,-0.00773,
2.35938,0.60939,0.35980,-0.46689,0.10561,0.97137,0.31483,,,0.80296,0.59301,-0.05941,-0.00774,
2.36719,0.50636,0.35980,-0.53674,0.11968,0.96942,0.31919,,,0.80294,0.59304,-0.05936,-0.00775,
2.37500,0.54071,0.28856,-0.43197,0.12017,0.97137,0.30999,,,0.80292,0.59308,-0.05933,-0.00776,
2.38281,0.60939,0.39542,-0.46689,0.11774,0.97089,0.31386,,,0.80290,0.59311,-0.05929,-0.00777,
2.39063,0.30030,0.50227,-0.43197,0.10755,0.95576,0.32935,,,0.80289,0.59313,-0.05925,-0.00777,
2.39844,0.09424,0.57351,-0.43197,0.10173,0.94454,0.31532,,,0.80289,0.59314,-0.05920,-0.00777,
2.40625,0.40333,0.50227,-0.60659,0.10221,0.95576,0.30709,,,0.80287,0.59316,-0.05915,-0.00778,
2.41406,0.43768,0.35980,-0.60659,0.11095,0.96698,0.30612,,,0.80285,0.59319,-0.05910,-0.00780,
2.42188,0.40333,0.18171,-0.64152,0.11726,0.96162,0.31386,,,0.80284,0.59321,-0.05907,-0.00782,
2.42969,0.50636,0.43104,-0.53674,0.11629,0.96015,0.30999,,,0.80282,0.59324,-0.05902,-0.00783,
2.43750,0.47202,0.25295,-0.46689,0.10804,0.95820,0.30709,,,0.80280,0.59327,-0.05899,-0.00785,
2.44531,0.57505,0.39542,-0.39704,0.10173,0.95918,0.30951,,,0.80278,0.59330,-0.05895,-0.00785,
2.45313,0.54071,0.32418,-0.39704,0.09979,0.95918,0.30854,,,0.80276,0.59334,-0.05892,-0.00786,
2.46094,0.71242,0.00362,-0.25734,0.11920,0.95381,0.29741,,,0.80273,0.59338,-0.05891,-0.00787,
2.46875,0.40333,0.25295,-0.29227,0.10804,0.94307,0.29741,,,0.80271,0.59340,-0.05888,-0.00787,
2.47656,0.40333,0.18171,-0.43197,0.11143,0.94405,0.29886,,,0.80270,0.59342,-0.05885,-0.00789,
2.48438,0.43768,0.25295,-0.46689,0.10755,0.96503,0.30612,,,0.80268,0.59345,-0.05882,-0.00790,
2.49219,0.23162,0.32418,-0.53674,0.10901,0.97040,0.31483,,,0.80267,0.59346,-0.05878,-0.00792,
2.50000,0.33465,0.21733,-0.57167,0.10658,0.96015,0.31822,,,0.80266,0.59348,-0.05875,-0.00794,
2.50781,0.26596,0.11047,-0.53674,0.10658,0.93966,0.30564,,,0.80265,0.59350,-0.05872,-0.00796,
2.51563,0.30030,0.28856,-0.46689,0.11095,0.93624,0.30612,,,0.80264,0.59352,-0.05869,-0.00797,
2.52344,0.36899,0.28856,-0.53674,0.10658,0.93234,0.31483,,,0.80262,0.59354,-0.05865,-0.00799,
2.53125,0.23162,0.25295,-0.60659,0.11143,0.94746,0.30467,,,0.80261,0.59356,-0.05861,-0.00801,
2.53906,0.33465,0.32418,-0.71137,0.11386,0.97528,0.31677,,,0.80260,0.59358,-0.05856,-0.00804,
2.54688,0.47202,0.32418,-0.74630,0.11046,0.97381,0.31628,,,0.80258,0.59361,-0.05852,-0.00806,
2.55469,0.54071,0.39542,-0.64152,0.11046,0.97235,0.31290,,,0.80256,0.59364,-0.05847,-0.00808,
2.56250,0.30030,0.43104,-0.60659,0.10367,0.94844,0.31290,,,0.80255,0.59366,-0.05842,-0.00809,
2.57031,0.36899,0.28856,-0.60659,0.10658,0.95039,0.32112,,,0.80254,0.59368,-0.05838,-0.00811,
2.57813,0.36899,0.32418,-0.74630,0.11240,0.96015,0.32741,,,0.80252,0.59371,-0.05833,-0.00814,
2.58594,0.47202,0.21733,-0.60659,0.11386,0.95674,0.30709,,,0.80251,0.59373,-0.05830,-0.00816,
2.59375,0.47202,0.00362,-0.57167,0.11532,0.96259,0.30709,,,0.80249,0.59376,-0.05827,-0.00819,
2.60156,0.57505,0.25295,-0.50182,0.12405,0.96210,0.31580,,,0.80246,0.59380,-0.05824,-0.00821,
2.60938,0.33465,0.50227,-0.53674,0.09785,0.96162,0.32548,,,0.80245,0.59382,-0.05819,-0.00821,
2.61719,0.16293,0.21733,-0.60659,0.09445,0.95771,0.32548,,,0.80245,0.59383,-0.05815,-0.00824,
2.62500,0.33465,0.18171,-0.64152,0.10658,0.96894,0.32596,,,0.80243,0.59385,-0.05812,-0.00826,
2.63281,0.36899,0.03924,-0.53674,0.11435,0.95918,0.32257,,,0.80242,0.59387,-0.05810,-0.00829,
2.64063,0.33465,0.25295,-0.53674,0.11968,0.95722,0.32016,,,0.80240,0.59389,-0.05806,-0.00831,
2.64844,0.16293,0.11047,-0.64152,0.10852,0.94454,0.32548,,,0.80240,0.59390,-0.05803,-0.00834,
2.65625,0.43768,0.14609,-0.53674,0.11435,0.96162,0.32112,,,0.80238,0.59393,-0.05800,-0.00836,
2.66406,0.47202,0.11047,-0.50182,0.10658,0.96894,0.31532,,,0.80236,0.59396,-0.05797,-0.00838,
2.67188,0.50636,0.28856,-0.39704,0.10076,0.97381,0.32403,,,0.80234,0.59399,-0.05794,-0.00839,
2.67969,0.54071,0.21733,-0.39704,0.10658,0.97137,0.31725,,,0.80232,0.59402,-0.05791,-0.00840,
2.68750,0.36899,0.39542,-0.25734,0.10949,0.94844,0.31144,,,0.80231,0.59404,-0.05788,-0.00840,
2.69531,0.33465,0.28856,-0.22242,0.10367,0.94600,0.32016,,,0.80229,0.59406,-0.05786,-0.00840,
2.70313,0.36899,0.14609,-0.18749,0.10561,0.94698,0.31338,,,0.80228,0.59408,-0.05784,-0.00840,
2.71094,0.57505,0.18171,-0.18749,0.11920,0.97040,0.31580,,,0.80226,0.59411,-0.05782,-0.00840,
2.71875,0.47202,0.35980,-0.11764,0.11871,0.96747,0.30951,,,0.80224,0.59414,-0.05780,-0.00839,
2.72656,0.47202,0.21733,-0.22242,0.11435,0.96991,0.31048,,,0.80222,0.59416,-0.05778,-0.00839,
2.73438,0.36899,0.39542,-0.32719,0.10561,0.94990,0.31435,,,0.80221,0.59419,-0.05775,-0.00839,
2.74219,0.30030,0.32418,-0.18749,0.10658,0.95283,0.31628,,,0.80220,0.59420,-0.05772,-0.00839,
2.75000,0.26596,0.43104,-0.29227,0.10707,0.95820,0.31774,,,0.80219,0.59422,-0.05768,-0.00838,
2.75781,0.36899,0.28856,-0.36212,0.11435,0.96796,0.30757,,,0.80217,0.59424,-0.05765,-0.00839,
2.76563,0.47202,0.00362,-0.50182,0.12114,0.95869,0.30419,,,0.80215,0.59427,-0.05763,-0.00842,
2.77344,0.43768,0.32418,-0.57167,0.11483,0.95625,0.30903,,,0.80214,0.59430,-0.05759,-0.00843,
2.78125,0.40333,0.32418,-0.57167,0.10027,0.95869,0.31774,,,0.80212,0.59432,-0.05755,-0.00845,
2.78906,0.43768,0.28856,-0.71137,0.10416,0.95332,0.31532,,,0.80210,0.59435,-0.05751,-0.00847,
2.79688,0.54071,0.32418,-0.64152,0.10221,0.96894,0.32161,,,0.80208,0.59438,-0.05747,-0.00849,
2.80469,0.60939,0.25295,-0.57167,0.10852,0.95918,0.30661,,,0.80206,0.59442,-0.05743,-0.00851,
2.81250,0.57505,0.28856,-0.53674,0.11046,0.95088,0.30273,,,0.80204,0.59445,-0.05739,-0.00853,
2.82031,0.47202,0.18171,-0.39704,0.10998,0.94649,0.31483,,,0.80202,0.59448,-0.05737,-0.00854,
2.82813,0.40333,0.14609,-0.53674,0.11192,0.94258,0.31532,,,0.80200,0.59450,-0.05734,-0.00856,
2.83594,0.47202,0.25295,-0.50182,0.11677,0.96650,0.31241,,,0.80198,0.59453,-0.05730,-0.00858,
2.84375,0.57505,0.21733,-0.36212,0.10658,0.96894,0.30467,,,0.80196,0.59456,-0.05728,-0.00859,
2.85156,0.36899,0.11047,-0.46689,0.11774,0.96601,0.31483,,,0.80195,0.59458,-0.05725,-0.00861,
2.85938,0.23162,0.25295,-0.43197,0.10318,0.95234,0.32016,,,0.80194,0.59460,-0.05722,-0.00862,
2.86719,0.16293,0.32418,-0.43197,0.10949,0.94844,0.31677,,,0.80193,0.59461,-0.05719,-0.00863,
2.87500,0.30030,0.14609,-0.57167,0.09396,0.95234,0.32499,,,0.80192,0.59463,-0.05715,-0.00865,
2.88281,0.33465,0.07486,-0.60659,0.11532,0.96845,0.31919,,,0.80191,0.59465,-0.05713,-0.00868,
2.89063,0.54071,0.07486,-0.81615,0.11483,0.96650,0.31386,,,0.80188,0.59468,-0.05709,-0.00872,
2.89844,0.47202,0.35980,-0.64152,0.10949,0.96552,0.32451,,,0.80187,0.59471,-0.05704,-0.00874,
2.90625,0.30030,0.46665,-0.50182,0.10804,0.95283,0.31919,,,0.80186,0.59473,-0.05700,-0.00875,
2.91406,0.36899,0.32418,-0.53674,0.09542,0.95576,0.32741,,,0.80184,0.59475,-0.05696,-0.00876,
2.92188,0.43768,0.21733,-0.50182,0.10076,0.95820,0.32403,,,0.80182,0.59478,-0.05693,-0.00878,
2.92969,0.57505,0.00362,-0.50182,0.10949,0.95771,0.31048,,,0.80180,0.59481,-0.05691,-0.00880,
2.93750,0.36899,0.07486,-0.43197,0.12260,0.96162,0.31822,,,0.80179,0.59483,-0.05689,-0.00882,
2.94531,0.19727,0.00362,-0.57167,0.11580,0.95283,0.31580,,,0.80178,0.59485,-0.05686,-0.00885,
2.95313,0.30030,0.14609,-0.53674,0.11240,0.95137,0.32209,,,0.80177,0.59486,-0.05683,-0.00888,
2.96094,0.23162,0.21733,-0.64152,0.11240,0.96601,0.32306,,,0.80176,0.59488,-0.05679,-0.00890,
2.96875,0.30030,0.43104,-0.71137,0.10318,0.96796,0.31435,,,0.80175,0.59490,-0.05674,-0.00892,
2.97656,0.23162,0.32418,-0.67645,0.11095,0.96747,0.32064,,,0.80174,0.59491,-0.05670,-0.00894,
2.98438,0.16293,0.14609,-0.71137,0.11968,0.94063,0.31290,,,0.80173,0.59493,-0.05666,-0.00898,
2.99219,0.36899,0.18171,-0.67645,0.11046,0.94161,0.30806,,,0.80172,0.59495,-0.05662,-0.00900,
3.00000,0.36899,0.14609,-0.60659,0.11192,0.95478,0.31241,,,0.80170,0.59497,-0.05659,-0.00903,
3.00781,0.26596,0.11047,-0.74630,0.10464,0.96650,0.32112,1022.772,24.7,0.80169,0.59499,-0.05655,-0.00907,
3.01563,0.33465,0.21733,-0.60659,0.11968,0.96503,0.31580,,,0.80168,0.59501,-0.05652,-0.00909,
3.02344,0.54071,0.25295,-0.64152,0.12648,0.97333,0.32016,,,0.80166,0.59504,-0.05648,-0.00911,
3.03125,0.30030,0.43104,-0.46689,0.10513,0.94307,0.31193,,,0.80165,0.59506,-0.05644,-0.00912,
3.03906,0.30030,0.28856,-0.46689,0.11289,0.94502,0.32064,,,0.80163,0.59508,-0.05640,-0.00913,
3.04688,0.09424,0.32418,-0.53674,0.10707,0.94063,0.30903,,,0.80163,0.59509,-0.05636,-0.00915,
3.05469,0.36899,0.11047,-0.71137,0.12260,0.96552,0.30419,,,0.80162,0.59511,-0.05633,-0.00918,
3.06250,0.54071,0.11047,-0.67645,0.12502,0.97040,0.29886,,,0.80159,0.59514,-0.05630,-0.00921,
3.07031,0.19727,0.25295,-0.71137,0.11483,0.96454,0.31967,,,0.80159,0.59515,-0.05625,-0.00924,
3.07813,0.12859,0.18171,-0.74630,0.10804,0.95771,0.32790,,,0.80158,0.59516,-0.05621,-0.00927,
3.08594,0.36899,0.43104,-0.57167,0.09979,0.95771,0.30951,,,0.80157,0.59519,-0.05617,-0.00928,
3.09375,0.30030,0.32418,-0.71137,0.09591,0.95527,0.31338,,,0.80156,0.59521,-0.05612,-0.00931,
3.10156,0.26596,0.25295,-0.67645,0.10804,0.96503,0.32112,,,0.80155,0.59522,-0.05608,-0.00933,
3.10938,0.33465,0.18171,-0.67645,0.11143,0.94551,0.30951,,,0.80153,0.59524,-0.05604,-0.00936,
3.11719,0.36899,0.03924,-0.74630,0.11532,0.94942,0.30515,,,0.80152,0.59527,-0.05601,-0.00940,
3.12500,0.43768,0.07486,-0.60659,0.11726,0.95137,0.30757,,,0.80150,0.59529,-0.05598,-0.00943,
3.13281,0.36899,0.28856,-0.57167,0.10027,0.96650,0.30999,,,0.80149,0.59532,-0.05594,-0.00945,
3.14063,0.36899,0.11047,-0.46689,0.10658,0.96796,0.32403,,,0.80147,0.59534,-0.05592,-0.00947,
3.14844,0.33465,0.25295,-0.46689,0.10998,0.97137,0.32403,,,0.80146,0.59536,-0.05588,-0.00948,
3.15625,0.26596,0.07486,-0.36212,0.11192,0.95283,0.31386,,,0.80145,0.59537,-0.05587,-0.00950,
3.16406,0.19727,0.11047,-0.36212,0.11532,0.94405,0.31435,,,0.80144,0.59539,-0.05585,-0.00951,
3.17188,0.19727,0.25295,-0.43197,0.10852,0.94356,0.31628,,,0.80143,0.59540,-0.05581,-0.00952,
3.17969,0.47202,0.28856,-0.57167,0.11338,0.96308,0.31483,,,0.80141,0.59543,-0.05578,-0.00954,
3.18750,0.36899,0.03924,-0.53674,0.10658,0.96650,0.31386,,,0.80140,0.59545,-0.05575,-0.00957,
3.19531,0.57505,0.07486,-0.64152,0.10561,0.97186,0.32403,,,0.80138,0.59548,-0.05572,-0.00960,
3.20313,0.33465,0.21733,-0.64152,0.10707,0.95332,0.33225,,,0.80136,0.59550,-0.05568,-0.00962,
3.21094,0.26596,0.21733,-0.67645,0.10270,0.95186,0.31580,,,0.80135,0.59552,-0.05565,-0.00965,
3.21875,0.26596,0.25295,-0.74630,0.10367,0.95625,0.32403,,,0.80134,0.59554,-0.05560,-0.00968,
3.22656,0.47202,0.21733,-0.60659,0.10998,0.97040,0.31290,,,0.80132,0.59557,-0.05557,-0.00970,
3.23438,0.19727,0.11047,-0.60659,0.12017,0.96406,0.31435,,,0.80131,0.59558,-0.05554,-0.00973,
3.24219,0.43768,0.11047,-0.53674,0.11629,0.96357,0.31483,,,0.80130,0.59561,-0.05551,-0.00975,
3.25000,0.47202,0.00362,-0.64152,0.12114,0.95674,0.31048,,,0.80128,0.59563,-0.05548,-0.00978,
3.25781,0.43768,0.28856,-0.50182,0.09591,0.95869,0.32257,,,0.80126,0.59566,-0.05545,-0.00980,
3.26563,0.26596,0.25295,-0.50182,0.09445,0.95918,0.32645,,,0.80125,0.59568,-0.05541,-0.00981,
3.27344,0.40333,0.18171,-0.39704,0.10221,0.96259,0.32064,,,0.80123,0.59570,-0.05539,-0.00983,
3.28125,0.36899,0.11047,-0.53674,0.12017,0.96015,0.31967,,,0.80122,0.59572,-0.05536,-0.00985,
3.28906,0.19727,0.00362,-0.53674,0.10998,0.94649,0.31870,,,0.80121,0.59574,-0.05534,-0.00988,
3.29688,0.26596,0.07486,-0.67645,0.10901,0.94795,0.32645,,,0.80120,0.59575,-0.05531,-0.00991,
3.30469,0.26596,0.39542,-0.46689,0.10658,0.96747,0.32161,,,0.80119,0.59577,-0.05526,-0.00992,
3.31250,0.47202,0.25295,-0.67645,0.11143,0.96259,0.31386,,,0.80117,0.59580,-0.05522,-0.00995,
3.32031,0.26596,0.21733,-0.71137,0.10610,0.96113,0.32403,,,0.80116,0.59582,-0.05518,-0.00997,
3.32813,0.36899,0.21733,-0.85107,0.10707,0.94014,0.30999,,,0.80115,0.59584,-0.05514,-0.01001,
3.33594,0.43768,0.18171,-0.74630,0.10804,0.95722,0.31870,,,0.80113,0.59587,-0.05510,-0.01004,
3.34375,0.47202,0.32418,-0.81615,0.09930,0.94990,0.31919,,,0.80111,0.59590,-0.05505,-0.01007,
3.35156,0.50636,0.32418,-0.85107,0.11483,0.97040,0.31774,,,0.80109,0.59593,-0.05499,-0.01010,
3.35938,0.57505,0.21733,-0.81615,0.12308,0.97577,0.31822,,,0.80107,0.59596,-0.05495,-0.01014,
3.36719,0.47202,0.32418,-0.81615,0.11968,0.96454,0.31096,,,0.80105,0.59599,-0.05490,-0.01017,
3.37500,0.43768,0.18171,-0.57167,0.10949,0.95527,0.29789,,,0.80103,0.59602,-0.05487,-0.01019,
3.38281,0.30030,0.11047,-0.46689,0.10367,0.94698,0.30709,,,0.80102,0.59603,-0.05484,-0.01021,
3.39063,0.30030,0.21733,-0.39704,0.10658,0.93673,0.31048,,,0.80101,0.59605,-0.05481,-0.01022,
3.39844,0.19727,0.18171,-0.50182,0.10949,0.95527,0.31628,,,0.80100,0.59607,-0.05478,-0.01024,
3.40625,0.26596,0.21733,-0.50182,0.11143,0.95576,0.30709,,,0.80099,0.59608,-0.05475,-0.01026,
3.41406,0.36899,0.03924,-0.53674,0.11192,0.95722,0.29741,,,0.80097,0.59610,-0.05473,-0.01028,
3.42188,0.40333,-0.10323,-0.74630,0.12260,0.95088,0.30951,,,0.80096,0.59613,-0.05470,-0.01033,
3.42969,0.36899,0.28856,-0.60659,0.10124,0.96210,0.32112,,,0.80094,0.59615,-0.05466,-0.01035,
3.43750,0.33465,0.43104,-0.57167,0.10367,0.96015,0.31774,,,0.80093,0.59617,-0.05462,-0.01036,
3.44531,0.36899,0.32418,-0.60659,0.10416,0.95966,0.31725,,,0.80092,0.59619,-0.05458,-0.01038,
3.45313,0.36899,-0.06762,-0.67645,0.12065,0.95039,0.30612,,,0.80090,0.59622,-0.05455,-0.01042,
3.46094,0.30030,0.14609,-0.57167,0.11338,0.95039,0.30854,,,0.80089,0.59624,-0.05452,-0.01044,
3.46875,0.40333,0.21733,-0.64152,0.11192,0.95430,0.31338,,,0.80087,0.59626,-0.05448,-0.01047,
3.47656,0.36899,0.18171,-0.60659,0.11483,0.97089,0.31435,,,0.80086,0.59628,-0.05445,-0.01049,
3.48438,0.19727,0.21733,-0.53674,0.11046,0.96698,0.31870,,,0.80085,0.59630,-0.05442,-0.01051,
3.49219,0.30030,0.32418,-0.22242,0.11435,0.96747,0.31483,,,0.80084,0.59631,-0.05439,-0.01051,
3.50000,0.16293,0.32418,-0.36212,0.10173,0.94307,0.31338,,,0.80083,0.59632,-0.05436,-0.01051,
3.50781,0.40333,0.18171,-0.50182,0.10561,0.94502,0.32257,,,0.80082,0.59635,-0.05433,-0.01053,
3.51563,0.16293,0.28856,-0.25734,0.09736,0.94551,0.32451,,,0.80081,0.59636,-0.05430,-0.01053,
3.52344,0.23162,0.35980,-0.46689,0.10124,0.94893,0.32548,,,0.80080,0.59637,-0.05426,-0.01054,
3.53125,0.43768,0.07486,-0.71137,0.12065,0.97235,0.32016,,,0.80078,0.59640,-0.05423,-0.01058,
3.53906,0.40333,0.14609,-0.81615,0.11046,0.97430,0.32161,,,0.80077,0.59642,-0.05419,-0.01061,
3.54688,0.36899,0.07486,-0.88600,0.12114,0.97186,0.32306,,,0.80075,0.59645,-0.05415,-0.01066,
3.55469,0.33465,0.07486,-0.74630,0.09930,0.94063,0.32161,,,0.80074,0.59647,-0.05411,-0.01069,
3.56250,0.26596,0.43104,-0.64152,0.10076,0.95625,0.32645,,,0.80073,0.59649,-0.05407,-0.01071,
3.57031,0.23162,0.14609,-0.67645,0.10464,0.95283,0.32451,,,0.80072,0.59650,-0.05403,-0.01074,
3.57813,0.47202,0.11047,-0.78122,0.10561,0.96747,0.32016,,,0.80070,0.59653,-0.05399,-0.01078,
3.58594,0.57505,0.11047,-0.74630,0.11726,0.97186,0.32983,,,0.80068,0.59656,-0.05396,-0.01081,
3.59375,0.40333,0.21733,-0.60659,0.11386,0.96113,0.32257,,,0.80066,0.59659,-0.05392,-0.01083,
3.60156,0.57505,0.21733,-0.60659,0.10804,0.96942,0.33129,,,0.80064,0.59662,-0.05388,-0.01086,
3.60938,0.30030,0.43104,-0.64152,0.10755,0.96796,0.31967,,,0.80063,0.59664,-0.05383,-0.01087,
3.61719,0.47202,0.35980,-0.60659,0.10513,0.96747,0.32693,,,0.80061,0.59667,-0.05379,-0.01089,
3.62500,0.36899,-0.10323,-0.60659,0.11968,0.94942,0.31144,,,0.80059,0.59669,-0.05377,-0.01093,
3.63281,0.36899,0.32418,-0.53674,0.11240,0.95430,0.30806,,,0.80058,0.59671,-0.05373,-0.01094,
3.64063,0.30030,0.07486,-0.64152,0.11046,0.93966,0.30951,,,0.80057,0.59673,-0.05370,-0.01097,
3.64844,0.40333,0.32418,-0.74630,0.11095,0.96894,0.32354,,,0.80055,0.59676,-0.05366,-0.01100,
3.65625,0.60939,0.00362,-0.74630,0.11095,0.96845,0.31096,,,0.80052,0.59679,-0.05363,-0.01104,
3.66406,0.43768,0.25295,-0.71137,0.11580,0.96698,0.31144,,,0.80051,0.59682,-0.05358,-0.01106,
3.67188,0.40333,0.07486,-0.64152,0.12017,0.96991,0.31725,,,0.80049,0.59684,-0.05355,-0.01109,
3.67969,0.40333,0.07486,-0.60659,0.09930,0.93722,0.31193,,,0.80047,0.59687,-0.05352,-0.01112,
3.68750,0.30030,0.35980,-0.50182,0.10707,0.94844,0.30999,,,0.80046,0.59689,-0.05348,-0.01113,
3.69531,0.33465,0.28856,-0.46689,0.10901,0.94600,0.31241,,,0.80045,0.59691,-0.05345,-0.01115,
3.70313,0.43768,0.03924,-0.71137,0.11920,0.96259,0.30419,,,0.80043,0.59693,-0.05342,-0.01118,
3.71094,0.33465,0.00362,-0.36212,0.12114,0.95918,0.31096,,,0.80042,0.59695,-0.05340,-0.01120,
3.71875,0.30030,0.14609,-0.50182,0.11289,0.96259,0.30806,,,0.80041,0.59697,-0.05338,-0.01122,
3.72656,0.36899,0.28856,-0.53674,0.09882,0.95918,0.32064,,,0.80039,0.59699,-0.05334,-0.01124,
3.73438,0.16293,0.32418,-0.53674,0.10707,0.94795,0.31774,,,0.80039,0.59701,-0.05330,-0.01125,
3.74219,0.26596,0.32418,-0.50182,0.09979,0.95039,0.31096,,,0.80038,0.59702,-0.05326,-0.01126,
3.75000,0.47202,0.18171,-0.60659,0.11629,0.94893,0.30273,,,0.80036,0.59705,-0.05323,-0.01129,
3.75781,0.33465,0.03924,-0.71137,0.11046,0.95430,0.30951,,,0.80034,0.59707,-0.05320,-0.01132,
3.76563,0.19727,0.00362,-0.60659,0.11435,0.95869,0.31290,,,0.80033,0.59708,-0.05317,-0.01136,
3.77344,0.12859,0.28856,-0.64152,0.10464,0.95234,0.31822,,,0.80033,0.59709,-0.05313,-0.01138,
3.78125,0.36899,0.39542,-0.67645,0.09736,0.95918,0.31967,,,0.80032,0.59712,-0.05308,-0.01140,
3.78906,0.40333,0.14609,-0.57167,0.10901,0.97089,0.32306,,,0.80030,0.59714,-0.05305,-0.01142,
3.79688,0.33465,0.28856,-0.71137,0.10416,0.94649,0.31725,,,0.80029,0.59716,-0.05301,-0.01145,
3.80469,0.47202,0.11047,-0.60659,0.11192,0.94746,0.31870,,,0.80027,0.59719,-0.05298,-0.01148,
3.81250,0.30030,0.18171,-0.57167,0.11871,0.95137,0.31290,,,0.80025,0.59721,-0.05294,-0.01150,
3.82031,0.30030,0.28856,-0.46689,0.10707,0.93868,0.31144,,,0.80024,0.59723,-0.05291,-0.01151,
3.82813,0.26596,0.35980,-0.53674,0.11629,0.96601,0.31483,,,0.80023,0.59724,-0.05287,-0.01152,
3.83594,0.26596,0.14609,-0.60659,0.10755,0.96552,0.32209,,,0.80022,0.59726,-0.05284,-0.01155,
3.84375,0.47202,0.14609,-0.60659,0.11095,0.97333,0.31870,,,0.80020,0.59729,-0.05280,-0.01158,
3.85156,0.23162,0.00362,-0.43197,0.10416,0.94942,0.31774,,,0.80019,0.59730,-0.05279,-0.01160,
3.85938,0.36899,0.21733,-0.46689,0.09979,0.95283,0.33129,,,0.80018,0.59732,-0.05275,-0.01161,
3.86719,0.26596,0.39542,-0.64152,0.10658,0.95234,0.33177,,,0.80017,0.59734,-0.05271,-0.01163,
3.87500,0.50636,0.21733,-0.57167,0.10804,0.96454,0.32451,,,0.80015,0.59737,-0.05267,-0.01165,
3.88281,0.43768,0.11047,-0.36212,0.11240,0.96552,0.30854,,,0.80013,0.59740,-0.05265,-0.01167,
3.89063,0.33465,0.03924,-0.50182,0.12162,0.96650,0.31628,,,0.80012,0.59742,-0.05263,-0.01169,
3.89844,0.23162,0.11047,-0.39704,0.09688,0.94649,0.32499,,,0.80011,0.59743,-0.05261,-0.01171,
3.90625,0.50636,0.25295,-0.53674,0.10561,0.95820,0.31580,,,0.80009,0.59746,-0.05257,-0.01172,
3.91406,0.36899,0.21733,-0.53674,0.10416,0.96210,0.32790,,,0.80007,0.59748,-0.05254,-0.01174,
3.92188,0.60939,0.07486,-0.57167,0.10464,0.95869,0.31386,,,0.80005,0.59752,-0.05251,-0.01177,
3.92969,0.50636,0.28856,-0.50182,0.12551,0.96454,0.32306,,,0.80003,0.59755,-0.05248,-0.01178,
3.93750,0.50636,0.11047,-0.39704,0.11532,0.95527,0.30370,,,0.80001,0.59758,-0.05245,-0.01180,
3.94531,0.43768,0.32418,-0.43197,0.11483,0.94942,0.31919,,,0.79999,0.59760,-0.05242,-0.01181,
3.95313,0.54071,0.28856,-0.43197,0.10416,0.96064,0.32161,,,0.79997,0.59763,-0.05239,-0.01182,
3.96094,0.43768,0.21733,-0.46689,0.11143,0.96308,0.31048,,,0.79995,0.59766,-0.05236,-0.01183,
3.96875,0.43768,0.60913,-0.53674,0.09688,0.96259,0.32064,,,0.79994,0.59768,-0.05230,-0.01183,
3.97656,0.50636,0.25295,-0.64152,0.10852,0.95039,0.31774,,,0.79992,0.59771,-0.05226,-0.01186,
3.98438,0.40333,0.11047,-0.64152,0.10852,0.94014,0.31144,,,0.79990,0.59774,-0.05223,-0.01189,
3.99219,0.50636,0.32418,-0.64152,0.11289,0.94600,0.31144,,,0.79988,0.59777,-0.05219,-0.01191,
4.00000,0.47202,0.32418,-0.57167,0.11483,0.96601,0.31532,,,0.79986,0.59780,-0.05215,-0.01192,
4.00781,0.64374,0.18171,-0.67645,0.11580,0.96503,0.30177,1022.768,24.7,0.79983,0.59783,-0.05211,-0.01195,
4.01563,0.43768,0.18171,-0.71137,0.11338,0.96454,0.30757,,,0.79982,0.59786,-0.05207,-0.01198,
4.02344,0.36899,0.32418,-0.46689,0.09591,0.93917,0.31193,,,0.79980,0.59788,-0.05203,-0.01199,
4.03125,0.30030,0.46665,-0.39704,0.10755,0.95722,0.31435,,,0.79979,0.59790,-0.05199,-0.01199,
4.03906,0.26596,0.35980,-0.29227,0.10610,0.95039,0.31386,,,0.79978,0.59792,-0.05196,-0.01199,
4.04688,0.30030,0.28856,-0.43197,0.11532,0.96942,0.31048,,,0.79977,0.59794,-0.05193,-0.01200,
4.05469,0.33465,-0.10323,-0.36212,0.12114,0.96210,0.30951,,,0.79976,0.59795,-0.05192,-0.01203,
4.06250,0.74677,0.03924,-0.29227,0.12648,0.96845,0.30661,,,0.79973,0.59800,-0.05191,-0.01204,
4.07031,0.40333,0.35980,-0.18749,0.10998,0.95722,0.31628,,,0.79971,0.59802,-0.05188,-0.01203,
4.07813,0.36899,0.39542,-0.39704,0.10561,0.95625,0.32403,,,0.79970,0.59804,-0.05184,-0.01204,
4.08594,0.26596,0.21733,-0.36212,0.09542,0.95088,0.32209,,,0.79969,0.59806,-0.05182,-0.01205,
4.09375,0.36899,0.28856,-0.29227,0.10270,0.95918,0.32403,,,0.79967,0.59808,-0.05179,-0.01205,
4.10156,0.33465,0.03924,-0.39704,0.11677,0.96064,0.31677,,,0.79966,0.59810,-0.05177,-0.01207,
4.10938,0.33465,0.18171,-0.39704,0.10464,0.95234,0.30273,,,0.79964,0.59812,-0.05175,-0.01208,
4.11719,0.23162,-0.06762,-0.43197,0.11435,0.94649,0.31386,,,0.79963,0.59813,-0.05173,-0.01211,
4.12500,0.23162,0.25295,-0.57167,0.10367,0.96601,0.31919,,,0.79963,0.59815,-0.05169,-0.01213,
4.13281,0.36899,0.39542,-0.46689,0.10610,0.96210,0.31774,,,0.79961,0.59817,-0.05165,-0.01213,
4.14063,0.19727,0.11047,-0.46689,0.12065,0.96894,0.31725,,,0.79960,0.59818,-0.05163,-0.01215,
4.14844,0.30030,0.18171,-0.25734,0.10513,0.94454,0.31677,,,0.79959,0.59820,-0.05161,-0.01216,
4.15625,0.09424,0.11047,-0.50182,0.11483,0.94112,0.31870,,,0.79959,0.59821,-0.05158,-0.01218,
4.16406,0.43768,0.21733,-0.25734,0.10998,0.95820,0.32887,,,0.79957,0.59823,-0.05156,-0.01219,
4.17188,0.43768,0.18171,-0.25734,0.11192,0.97430,0.33274,,,0.79955,0.59826,-0.05154,-0.01219,
4.17969,0.36899,0.14609,-0.60659,0.12502,0.97089,0.32064,,,0.79954,0.59828,-0.05151,-0.01222,
4.18750,0.30030,0.28856,-0.50182,0.11143,0.96747,0.31290,,,0.79953,0.59830,-0.05147,-0.01223,
4.19531,0.09424,0.21733,-0.57167,0.10755,0.94161,0.31919,,,0.79952,0.59830,-0.05144,-0.01225,
4.20313,0.26596,0.32418,-0.53674,0.10998,0.94942,0.33129,,,0.79951,0.59832,-0.05140,-0.01227,
4.21094,0.19727,0.14609,-0.64152,0.10513,0.94405,0.31774,,,0.79950,0.59833,-0.05136,-0.01230,
4.21875,0.33465,0.03924,-0.60659,0.12065,0.96747,0.31144,,,0.79949,0.59835,-0.05134,-0.01233,
4.22656,0.30030,0.18171,-0.71137,0.10901,0.96015,0.31290,,,0.79948,0.59837,-0.05130,-0.01236,
4.23438,0.33465,0.18171,-0.78122,0.11920,0.96406,0.31677,,,0.79946,0.59839,-0.05126,-0.01239,
4.24219,0.23162,0.07486,-0.92092,0.12308,0.95576,0.31822,,,0.79945,0.59841,-0.05122,-0.01244,
4.25000,0.26596,0.21733,-0.78122,0.09882,0.96357,0.31967,,,0.79944,0.59843,-0.05117,-0.01247,
4.25781,0.23162,0.25295,-0.78122,0.10755,0.96259,0.32693,,,0.79943,0.59844,-0.05113,-0.01250,
4.26563,0.40333,0.28856,-0.81615,0.11046,0.96747,0.32209,,,0.79942,0.59847,-0.05108,-0.01253,
4.27344,0.40333,0.11047,-0.67645,0.11240,0.95527,0.31144,,,0.79940,0.59849,-0.05105,-0.01256,
4.28125,0.40333,0.07486,-0.78122,0.11240,0.95186,0.30225,,,0.79939,0.59852,-0.05101,-0.01260,
4.28906,0.30030,0.18171,-0.64152,0.10464,0.94795,0.31628,,,0.79937,0.59854,-0.05097,-0.01263,
4.29688,0.33465,0.25295,-0.85107,0.11386,0.97137,0.31822,,,0.79936,0.59856,-0.05093,-0.01266,
4.30469,0.50636,0.28856,-0.64152,0.11580,0.97235,0.32257,,,0.79934,0.59859,-0.05088,-0.01268,
4.31250,0.40333,0.07486,-0.81615,0.10852,0.96942,0.31483,,,0.79932,0.59861,-0.05085,-0.01272,
4.32031,0.50636,-0.03200,-0.74630,0.10658,0.93722,0.30903,,,0.79930,0.59864,-0.05082,-0.01276,
4.32813,0.23162,0.11047,-0.46689,0.10464,0.94063,0.31241,,,0.79929,0.59866,-0.05079,-0.01278,
4.33594,0.30030,0.14609,-0.64152,0.10707,0.94258,0.30854,,,0.79928,0.59868,-0.05076,-0.01281,
4.34375,0.43768,0.11047,-0.81615,0.12114,0.96406,0.30419,,,0.79926,0.59870,-0.05072,-0.01285,
4.35156,0.40333,0.18171,-0.64152,0.11726,0.96406,0.30322,,,0.79924,0.59873,-0.05069,-0.01288,
4.35938,0.40333,0.14609,-0.60659,0.11968,0.96454,0.31144,,,0.79923,0.59875,-0.05065,-0.01290,
4.36719,0.26596,0.03924,-0.43197,0.10755,0.93966,0.31241,,,0.79922,0.59877,-0.05063,-0.01292,
4.37500,0.30030,0.18171,-0.67645,0.11143,0.95771,0.31967,,,0.79920,0.59879,-0.05060,-0.01295,
4.38281,0.23162,0.14609,-0.43197,0.10561,0.95039,0.31870,,,0.79920,0.59880,-0.05057,-0.01297,
4.39063,0.12859,0.18171,-0.46689,0.10513,0.95234,0.31822,,,0.79919,0.59881,-0.05054,-0.01299,
4.39844,0.12859,0.00362,-0.53674,0.11532,0.95674,0.31241,,,0.79918,0.59882,-0.05052,-0.01302,
4.40625,0.33465,0.32418,-0.57167,0.10464,0.95576,0.30709,,,0.79917,0.59884,-0.05048,-0.01303,
4.41406,0.30030,0.18171,-0.50182,0.11968,0.95722,0.31580,,,0.79916,0.59886,-0.05045,-0.01305,
4.42188,0.26596,0.28856,-0.57167,0.10755,0.95820,0.32209,,,0.79915,0.59887,-0.05041,-0.01307,
4.42969,0.30030,0.35980,-0.67645,0.10270,0.96406,0.32306,,,0.79914,0.59889,-0.05036,-0.01309,
4.43750,0.43768,0.21733,-0.64152,0.10852,0.97040,0.31967,,,0.79912,0.59892,-0.05033,-0.01311,
4.44531,0.26596,0.25295,-0.57167,0.10221,0.95430,0.31822,,,0.79911,0.59893,-0.05029,-0.01313,
4.45313,0.23162,0.07486,-0.64152,0.10707,0.94698,0.32209,,,0.79910,0.59895,-0.05026,-0.01317,
4.46094,0.43768,0.14609,-0.67645,0.11871,0.95381,0.32064,,,0.79908,0.59898,-0.05022,-0.01320,
4.46875,0.47202,0.32418,-0.53674,0.09396,0.97674,0.32548,,,0.79906,0.59900,-0.05019,-0.01321,
4.47656,0.47202,0.28856,-0.67645,0.10027,0.97186,0.32209,,,0.79904,0.59903,-0.05014,-0.01323,
4.48438,0.47202,0.11047,-0.50182,0.10998,0.97040,0.32161,,,0.79902,0.59906,-0.05012,-0.01325,
4.49219,0.33465,0.25295,-0.46689,0.10901,0.94502,0.32064,,,0.79901,0.59908,-0.05008,-0.01327,
4.50000,0.47202,0.21733,-0.36212,0.10901,0.94795,0.33419,,,0.79899,0.59911,-0.05006,-0.01328,
4.50781,0.36899,0.11047,-0.43197,0.10464,0.93722,0.31628,,,0.79898,0.59913,-0.05003,-0.01330,
4.51563,0.12859,0.21733,-0.53674,0.12260,0.96796,0.32451,,,0.79897,0.59914,-0.05000,-0.01331,
4.52344,0.43768,-0.03200,-0.53674,0.11095,0.96210,0.32645,,,0.79895,0.59916,-0.04998,-0.01334,
4.53125,0.36899,0.11047,-0.57167,0.11338,0.96406,0.31919,,,0.79894,0.59918,-0.04995,-0.01337,
4.53906,0.26596,0.28856,-0.67645,0.12308,0.97284,0.31870,,,0.79893,0.59920,-0.04991,-0.01339,
4.54688,0.16293,0.32418,-0.67645,0.10270,0.95039,0.31774,,,0.79892,0.59921,-0.04986,-0.01342,
4.55469,0.23162,0.39542,-0.74630,0.10124,0.96015,0.32064,,,0.79891,0.59923,-0.04981,-0.01344,
4.56250,0.16293,0.32418,-0.81615,0.11774,0.96601,0.32596,,,0.79891,0.59924,-0.04976,-0.01347,
4.57031,0.60939,0.00362,-0.85107,0.12017,0.96308,0.31532,,,0.79888,0.59928,-0.04973,-0.01351,
4.57813,0.23162,0.21733,-0.67645,0.12260,0.96406,0.31532,,,0.79887,0.59929,-0.04969,-0.01354,
4.58594,0.40333,-0.10323,-0.78122,0.12308,0.95039,0.30806,,,0.79886,0.59932,-0.04966,-0.01359,
4.59375,0.33465,0.32418,-0.74630,0.10658,0.96552,0.31725,,,0.79884,0.59934,-0.04961,-0.01361,
4.60156,0.26596,0.25295,-0.81615,0.11726,0.96845,0.31725,,,0.79883,0.59935,-0.04957,-0.01365,
4.60938,0.23162,0.28856,-0.67645,0.10513,0.96259,0.30903,,,0.79882,0.59937,-0.04952,-0.01367,
4.61719,0.23162,0.18171,-0.67645,0.11580,0.95137,0.31290,,,0.79881,0.59938,-0.04949,-0.01370,
4.62500,0.33465,0.03924,-0.67645,0.10998,0.94112,0.31290,,,0.79880,0.59941,-0.04946,-0.01373,
4.63281,0.43768,0.18171,-0.50182,0.11386,0.95186,0.30080,,,0.79878,0.59943,-0.04943,-0.01375,
4.64063,0.40333,0.32418,-0.57167,0.11143,0.97381,0.31774,,,0.79876,0.59946,-0.04939,-0.01377,
4.64844,0.16293,0.18171,-0.46689,0.11046,0.96113,0.32257,,,0.79876,0.59947,-0.04936,-0.01379,
4.65625,0.47202,0.18171,-0.46689,0.10998,0.96991,0.30806,,,0.79874,0.59949,-0.04933,-0.01380,
4.66406,0.40333,0.07486,-0.53674,0.11143,0.97040,0.30951,,,0.79872,0.59952,-0.04930,-0.01383,
4.67188,0.23162,0.25295,-0.43197,0.10901,0.94161,0.31290,,,0.79871,0.59953,-0.04927,-0.01384,
4.67969,0.30030,0.07486,-0.57167,0.10755,0.94746,0.30806,,,0.79870,0.59955,-0.04925,-0.01387,
4.68750,0.36899,0.21733,-0.53674,0.12405,0.95869,0.31677,,,0.79869,0.59957,-0.04921,-0.01389,
4.69531,0.26596,0.14609,-0.57167,0.11192,0.96064,0.31096,,,0.79868,0.59959,-0.04918,-0.01391,
4.70313,0.43768,0.00362,-0.60659,0.12696,0.96698,0.31677,,,0.79866,0.59961,-0.04916,-0.01394,
4.71094,0.36899,0.11047,-0.64152,0.11871,0.96503,0.31386,,,0.79864,0.59964,-0.04913,-0.01397,
4.71875,0.12859,0.46665,-0.43197,0.10416,0.95576,0.31919,,,0.79864,0.59964,-0.04908,-0.01397,
4.72656,0.33465,0.28856,-0.64152,0.10027,0.96015,0.32596,,,0.79862,0.59967,-0.04904,-0.01400,
4.73438,0.40333,0.35980,-0.46689,0.10027,0.95966,0.31193,,,0.79861,0.59969,-0.04900,-0.01401,
4.74219,0.26596,0.00362,-0.57167,0.12017,0.96064,0.31290,,,0.79860,0.59971,-0.04898,-0.01404,
4.75000,0.40333,0.11047,-0.46689,0.11774,0.95283,0.31290,,,0.79858,0.59973,-0.04895,-0.01406,
4.75781,0.36899,0.03924,-0.50182,0.11435,0.94698,0.31677,,,0.79857,0.59975,-0.04893,-0.01408,
4.76563,0.23162,0.35980,-0.50182,0.11386,0.96845,0.32887,,,0.79856,0.59977,-0.04889,-0.01409,
4.77344,0.36899,0.07486,-0.43197,0.09882,0.96601,0.33225,,,0.79854,0.59979,-0.04887,-0.01411,
4.78125,0.36899,0.25295,-0.53674,0.09736,0.96308,0.32403,,,0.79853,0.59981,-0.04884,-0.01413,
4.78906,0.54071,0.28856,-0.36212,0.11240,0.95918,0.31096,,,0.79850,0.59984,-0.04881,-0.01413,
4.79688,0.40333,0.21733,-0.60659,0.10464,0.94698,0.32306,,,0.79849,0.59986,-0.04877,-0.01416,
4.80469,0.30030,0.07486,-0.53674,0.11095,0.94990,0.32403,,,0.79848,0.59988,-0.04874,-0.01418,
4.81250,0.40333,0.25295,-0.53674,0.11240,0.95186,0.32693,,,0.79846,0.59991,-0.04871,-0.01420,
4.82031,0.67808,0.07486,-0.67645,0.11192,0.97381,0.31870,,,0.79843,0.59995,-0.04868,-0.01423,
4.82813,0.60939,0.14609,-0.78122,0.12065,0.97333,0.32645,,,0.79841,0.59998,-0.04864,-0.01427,
4.83594,0.47202,0.11047,-0.60659,0.10998,0.96991,0.32064,,,0.79839,0.60001,-0.04861,-0.01429,
4.84375,0.33465,0.43104,-0.50182,0.11386,0.95186,0.31967,,,0.79837,0.60003,-0.04856,-0.01430,
4.85156,0.16293,0.35980,-0.50182,0.11095,0.95283,0.31967,,,0.79837,0.60004,-0.04852,-0.01431,
4.85938,0.33465,0.25295,-0.60659,0.10027,0.94844,0.31725,,,0.79836,0.60006,-0.04849,-0.01433,
4.86719,0.40333,0.11047,-0.53674,0.12017,0.97089,0.31677,,,0.79834,0.60008,-0.04846,-0.01436,
4.87500,0.43768,0.28856,-0.50182,0.11871,0.95966,0.31870,,,0.79832,0.60011,-0.04842,-0.01437,
4.88281,0.47202,0.03924,-0.46689,0.10949,0.96650,0.30854,,,0.79830,0.60014,-0.04840,-0.01439,
4.89063,0.43768,0.32418,-0.57167,0.10804,0.96650,0.32693,,,0.79828,0.60016,-0.04836,-0.01441,
4.89844,0.33465,0.21733,-0.67645,0.09882,0.96113,0.32016,,,0.79827,0.60018,-0.04832,-0.01444,
4.90625,0.26596,0.28856,-0.46689,0.09785,0.95722,0.32209,,,0.79826,0.60020,-0.04829,-0.01445,
4.91406,0.47202,-0.03200,-0.50182,0.12065,0.94063,0.30612,,,0.79824,0.60023,-0.04827,-0.01448,
4.92188,0.40333,0.18171,-0.43197,0.11435,0.94502,0.29499,,,0.79822,0.60025,-0.04824,-0.01449,
4.92969,0.12859,0.11047,-0.53674,0.12211,0.94307,0.30515,,,0.79822,0.60026,-0.04822,-0.01452,
4.93750,0.23162,0.25295,-0.53674,0.10901,0.96064,0.31774,,,0.79821,0.60027,-0.04818,-0.01453,
4.94531,0.36899,0.43104,-0.46689,0.10852,0.96942,0.31822,,,0.79820,0.60030,-0.04814,-0.01454,
4.95313,0.36899,0.25295,-0.46689,0.11095,0.96406,0.30806,,,0.79818,0.60032,-0.04811,-0.01455,
4.96094,0.47202,0.14609,-0.50182,0.09979,0.96259,0.30951,,,0.79816,0.60035,-0.04808,-0.01457,
4.96875,0.43768,0.25295,-0.50182,0.10804,0.95430,0.31532,,,0.79814,0.60037,-0.04804,-0.01459,
4.97656,0.43768,0.11047,-0.36212,0.11338,0.93722,0.31144,,,0.79813,0.60040,-0.04802,-0.01460,
4.98438,0.30030,0.43104,-0.36212,0.10027,0.94405,0.31193,,,0.79811,0.60041,-0.04799,-0.01460,
4.99219,0.47202,0.14609,-0.64152,0.11726,0.97089,0.30709,,,0.79809,0.60044,-0.04795,-0.01463,
5.00000,0.47202,0.28856,-0.60659,0.11046,0.97137,0.31725,,,0.79808,0.60047,-0.04791,-0.01465,
5.00781,0.54071,0.14609,-0.46689,0.11871,0.96894,0.31338,1022.753,24.7,0.79805,0.60050,-0.04788,-0.01467,
5.01563,0.30030,0.21733,-0.39704,0.10270,0.94795,0.31435,,,0.79804,0.60052,-0.04786,-0.01468,
5.02344,0.30030,0.28856,-0.50182,0.10416,0.94990,0.32112,,,0.79803,0.60054,-0.04782,-0.01469,
5.03125,0.09424,0.11047,-0.39704,0.11338,0.95234,0.32064,,,0.79803,0.60054,-0.04780,-0.01471,
5.03906,0.43768,0.14609,-0.50182,0.11289,0.96454,0.30951,,,0.79801,0.60057,-0.04777,-0.01473,
5.04688,0.40333,0.14609,-0.60659,0.11920,0.96747,0.30806,,,0.79799,0.60059,-0.04774,-0.01476,
5.05469,0.43768,0.00362,-0.57167,0.12114,0.95966,0.32064,,,0.79797,0.60062,-0.04772,-0.01479,
5.06250,0.36899,0.25295,-0.53674,0.10464,0.95674,0.32016,,,0.79796,0.60064,-0.04768,-0.01480,
5.07031,0.40333,0.35980,-0.36212,0.11774,0.96162,0.32838,,,0.79794,0.60066,-0.04765,-0.01481,
5.07813,0.60939,0.18171,-0.43197,0.09833,0.96015,0.32064,,,0.79792,0.60070,-0.04762,-0.01482,
5.08594,0.43768,0.03924,-0.43197,0.12114,0.95283,0.31580,,,0.79790,0.60072,-0.04760,-0.01484,
5.09375,0.50636,0.07486,-0.36212,0.10610,0.94649,0.32548,,,0.79788,0.60075,-0.04758,-0.01486,
5.10156,0.30030,0.25295,-0.32719,0.10318,0.94210,0.31096,,,0.79787,0.60077,-0.04756,-0.01486,
5.10938,0.36899,0.25295,-0.57167,0.11726,0.95283,0.32064,,,0.79785,0.60079,-0.04752,-0.01488,
5.11719,0.30030,0.28856,-0.46689,0.10270,0.96845,0.32161,,,0.79784,0.60081,-0.04748,-0.01490,
5.12500,0.30030,0.46665,-0.60659,0.11774,0.96942,0.32693,,,0.79783,0.60083,-0.04743,-0.01491,
5.13281,0.30030,0.53789,-0.50182,0.10852,0.97674,0.33322,,,0.79782,0.60085,-0.04738,-0.01491,
5.14063,0.23162,0.53789,-0.43197,0.10610,0.95381,0.32499,,,0.79781,0.60086,-0.04734,-0.01491,
5.14844,0.40333,0.35980,-0.64152,0.11046,0.95332,0.31967,,,0.79779,0.60089,-0.04729,-0.01493,
5.15625,0.30030,0.39542,-0.67645,0.10513,0.95039,0.32306,,,0.79778,0.60091,-0.04724,-0.01495,
5.16406,0.40333,0.32418,-0.78122,0.11580,0.97333,0.32645,,,0.79777,0.60093,-0.04719,-0.01498,
5.17188,0.54071,0.35980,-0.74630,0.11726,0.97528,0.31919,,,0.79774,0.60096,-0.04714,-0.01500,
5.17969,0.50636,0.11047,-0.60659,0.11677,0.96894,0.31338,,,0.79772,0.60099,-0.04711,-0.01503,
5.18750,0.36899,0.32418,-0.60659,0.09979,0.94893,0.32112,,,0.79771,0.60101,-0.04707,-0.01505,
5.19531,0.60939,0.28856,-0.43197,0.10561,0.94014,0.31677,,,0.79768,0.60105,-0.04704,-0.01506,
5.20313,0.54071,0.21733,-0.53674,0.10658,0.95283,0.31193,,,0.79766,0.60108,-0.04701,-0.01508,
5.21094,0.54071,0.07486,-0.57167,0.12405,0.97137,0.31096,,,0.79764,0.60111,-0.04698,-0.01510,
5.21875,0.40333,0.03924,-0.50182,0.11240,0.95869,0.31241,,,0.79762,0.60114,-0.04696,-0.01513,
5.22656,0.40333,0.11047,-0.32719,0.11871,0.95625,0.30177,,,0.79761,0.60116,-0.04694,-0.01514,
5.23438,0.36899,-0.06762,-0.53674,0.11580,0.95186,0.31048,,,0.79759,0.60118,-0.04692,-0.01517,
5.24219,0.36899,0.25295,-0.57167,0.10076,0.95527,0.31435,,,0.79758,0.60120,-0.04688,-0.01519,
5.25000,0.16293,0.39542,-0.53674,0.11240,0.96601,0.31290,,,0.79757,0.60121,-0.04684,-0.01520,
5.25781,0.09424,0.43104,-0.78122,0.10755,0.96064,0.31628,,,0.79757,0.60122,-0.04679,-0.01523,
5.26563,0.16293,0.28856,-0.81615,0.10755,0.94698,0.31096,,,0.79756,0.60123,-0.04674,-0.01526,
5.27344,0.02556,0.07486,-0.57167,0.11871,0.95332,0.30370,,,0.79756,0.60124,-0.04671,-0.01529,
5.28125,0.05990,0.14609,-0.60659,0.11726,0.94795,0.31919,,,0.79756,0.60124,-0.04668,-0.01531,
5.28906,0.19727,0.14609,-0.64152,0.11338,0.96796,0.31725,,,0.79755,0.60125,-0.04664,-0.01534,
5.29688,0.09424,0.21733,-0.67645,0.11726,0.97284,0.31870,,,0.79754,0.60126,-0.04660,-0.01537,
5.30469,0.23162,0.11047,-0.60659,0.11532,0.96845,0.29886,,,0.79753,0.60128,-0.04657,-0.01540,
5.31250,0.05990,0.11047,-0.57167,0.11968,0.94502,0.30419,,,0.79753,0.60128,-0.04654,-0.01542,
5.32031,-0.00879,0.11047,-0.43197,0.10901,0.92941,0.30903,,,0.79753,0.60128,-0.04652,-0.01544,
5.32813,0.09424,0.03924,-0.39704,0.10755,0.93282,0.29983,,,0.79753,0.60129,-0.04650,-0.01546,
5.33594,0.16293,0.14609,-0.43197,0.10949,0.96894,0.31532,,,0.79752,0.60130,-0.04648,-0.01548,
5.34375,0.05990,0.00362,-0.39704,0.10852,0.96503,0.32306,,,0.79752,0.60130,-0.04646,-0.01550,
5.35156,0.12859,-0.17447,-0.60659,0.11629,0.95625,0.32257,,,0.79751,0.60131,-0.04644,-0.01554,
5.35938,-0.00879,0.18171,-0.57167,0.10124,0.94502,0.32112,,,0.79751,0.60131,-0.04641,-0.01556,
5.36719,0.05990,0.28856,-0.64152,0.09057,0.95918,0.32016,,,0.79751,0.60132,-0.04637,-0.01559,
5.37500,-0.28354,0.28856,-0.67645,0.09930,0.96113,0.32499,,,0.79752,0.60131,-0.04633,-0.01561,
5.38281,-0.38657,0.11047,-0.85107,0.10804,0.94795,0.32645,,,0.79754,0.60129,-0.04628,-0.01565,
5.39063,0.05990,-0.03200,-0.64152,0.10513,0.96357,0.30854,,,0.79753,0.60129,-0.04626,-0.01569,
5.39844,-0.11182,-0.17447,-0.71137,0.13182,0.95674,0.31677,,,0.79754,0.60129,-0.04624,-0.01574,
5.40625,-0.11182,-0.17447,-0.71137,0.11677,0.95722,0.31193,,,0.79754,0.60128,-0.04622,-0.01578,
5.41406,-0.38657,0.03924,-0.67645,0.10901,0.96259,0.32645,,,0.79756,0.60127,-0.04619,-0.01582,
5.42188,-0.42091,-0.03200,-0.67645,0.10513,0.96162,0.32790,,,0.79757,0.60125,-0.04616,-0.01586,
5.42969,-0.45525,-0.06762,-0.78122,0.10270,0.96357,0.32548,,,0.79759,0.60122,-0.04613,-0.01591,
5.43750,-0.48960,-0.42380,-0.78122,0.11095,0.96259,0.32306,,,0.79761,0.60120,-0.04613,-0.01597,
5.44531,-0.48960,-0.24571,-0.67645,0.12114,0.95234,0.32112,,,0.79763,0.60117,-0.04611,-0.01602,
5.45313,-0.79869,-0.53065,-0.95585,0.12065,0.93917,0.32403,,,0.79766,0.60113,-0.04610,-0.01609,
5.46094,-0.52394,-0.38818,-1.02570,0.10658,0.97479,0.32451,,,0.79768,0.60111,-0.04608,-0.01616,
5.46875,-0.21485,-0.53065,-0.95585,0.11338,0.97137,0.32016,,,0.79768,0.60110,-0.04607,-0.01624,
5.47656,-0.35222,-0.49503,-1.02570,0.10658,0.97479,0.31919,,,0.79769,0.60108,-0.04605,-0.01632,
5.48438,-0.38657,-0.31694,-0.57167,0.10561,0.94844,0.32257,,,0.79771,0.60106,-0.04605,-0.01636,
5.49219,-0.28354,-0.28133,-0.08272,0.10852,0.95283,0.31628,,,0.79772,0.60105,-0.04606,-0.01638,
5.50000,-0.35222,-0.28133,-0.04779,0.10949,0.94210,0.31628,,,0.79773,0.60103,-0.04607,-0.01639,
5.50781,-0.21485,-0.42380,0.02206,0.11143,0.96210,0.31241,,,0.79774,0.60101,-0.04609,-0.01641,
5.51563,-0.11182,-0.56627,0.12683,0.12211,0.97333,0.31628,,,0.79774,0.60101,-0.04613,-0.01643,
5.52344,-0.24919,-0.24571,0.23161,0.12162,0.96650,0.30951,,,0.79775,0.60099,-0.04615,-0.01642,
5.53125,-0.35222,-0.45942,-0.04779,0.12357,0.95869,0.31241,,,0.79777,0.60097,-0.04618,-0.01645,
5.53906,-0.38657,-0.28133,0.02206,0.11095,0.95283,0.31774,,,0.79778,0.60095,-0.04619,-0.01646,
5.54688,-0.38657,-0.35256,-0.29227,0.10610,0.95088,0.31822,,,0.79779,0.60093,-0.04620,-0.01649,
5.55469,-0.18051,-0.21009,-0.36212,0.09930,0.94063,0.31774,,,0.79780,0.60092,-0.04619,-0.01652,
5.56250,0.02556,-0.35256,-0.50182,0.12211,0.95234,0.30806,,,0.79780,0.60092,-0.04619,-0.01656,
5.57031,-0.04313,-0.21009,-0.32719,0.11289,0.94551,0.31532,,,0.79780,0.60092,-0.04619,-0.01659,
5.57813,0.16293,-0.03200,-0.29227,0.13133,0.95381,0.30370,,,0.79779,0.60093,-0.04618,-0.01660,
5.58594,0.12859,0.03924,-0.43197,0.09736,0.96308,0.30951,,,0.79779,0.60094,-0.04616,-0.01663,
5.59375,0.30030,0.07486,-0.57167,0.10755,0.96991,0.32016,,,0.79777,0.60096,-0.04613,-0.01665,
5.60156,0.16293,0.03924,-0.64152,0.10561,0.96308,0.32548,,,0.79777,0.60097,-0.04611,-0.01669,
5.60938,0.43768,-0.21009,-0.32719,0.11774,0.94405,0.30515,,,0.79775,0.60099,-0.04610,-0.01671,
5.61719,0.40333,-0.10323,-0.36212,0.10852,0.94844,0.31290,,,0.79773,0.60102,-0.04610,-0.01673,
5.62500,0.47202,-0.24571,-0.22242,0.10949,0.94258,0.31435,,,0.79771,0.60104,-0.04610,-0.01675,
5.63281,0.47202,0.00362,-0.15257,0.11192,0.96991,0.31919,,,0.79769,0.60107,-0.04610,-0.01676,
5.64063,0.60939,-0.03200,-0.11764,0.10755,0.96162,0.32741,,,0.79767,0.60110,-0.04609,-0.01677,
5.64844,0.54071,-0.35256,0.02206,0.10949,0.96454,0.31628,,,0.79764,0.60113,-0.04611,-0.01678,
5.65625,0.40333,-0.28133,0.26653,0.11338,0.94112,0.31919,,,0.79763,0.60115,-0.04614,-0.01677,
5.66406,0.47202,-0.28133,0.65071,0.10221,0.95088,0.31919,,,0.79761,0.60118,-0.04618,-0.01675,
5.67188,0.30030,-0.28133,0.61578,0.10852,0.93673,0.31338,,,0.79759,0.60119,-0.04622,-0.01672,
5.67969,0.71242,0.07486,0.93011,0.09493,0.96015,0.32499,,,0.79757,0.60123,-0.04626,-0.01667,
5.68750,1.26192,0.35980,1.31429,0.08620,0.97723,0.30999,,,0.79752,0.60129,-0.04629,-0.01658,
5.69531,1.77707,0.78722,3.16532,0.08814,0.98845,0.32306,,,0.79745,0.60138,-0.04638,-0.01637,
5.70313,2.25788,1.17902,5.29575,0.09251,0.97625,0.31774,,,0.79737,0.60148,-0.04654,-0.01603,
5.71094,2.60131,1.21463,6.37843,0.07698,0.97235,0.32451,,,0.79727,0.60161,-0.04674,-0.01562,
5.71875,2.87606,1.60643,8.43901,0.08377,0.98357,0.33129,,,0.79717,0.60174,-0.04700,-0.01509,
5.72656,2.53263,1.25025,10.49960,0.07164,0.98748,0.32935,,,0.79708,0.60184,-0.04736,-0.01446,
5.73438,2.15485,0.71598,11.61720,0.09348,1.00309,0.31725,,,0.79700,0.60192,-0.04780,-0.01379,
5.74219,1.09020,0.18171,14.34136,0.08620,0.99675,0.31725,,,0.79697,0.60194,-0.04838,-0.01300,
5.75000,0.23162,-0.99369,17.06552,0.07649,0.98894,0.32596,,,0.79697,0.60189,-0.04914,-0.01211,
5.75781,-0.45525,-1.34987,18.77685,0.04786,1.01871,0.33177,,,0.79700,0.60180,-0.04998,-0.01115,
5.76563,-2.00071,-2.48965,23.77115,0.02457,1.05482,0.33516,,,0.79709,0.60161,-0.05109,-0.00997,
5.77344,-3.85525,-4.19931,31.10542,-0.02105,1.09581,0.32887,,,0.79726,0.60129,-0.05259,-0.00846,
5.78125,-4.54212,-5.37471,36.06479,-0.04434,1.15291,0.33225,,,0.79744,0.60091,-0.05436,-0.00674,
5.78906,-7.39263,-9.00776,47.90441,-0.16517,1.25392,0.39081,,,0.79773,0.60032,-0.05681,-0.00453,
5.79688,-9.62495,-18.55340,64.80817,-0.35540,1.28564,0.50985,,,0.79806,0.59953,-0.06047,-0.00180,
5.80469,-10.31182,-29.55939,70.53589,-0.58687,1.61015,0.55728,,,0.79836,0.59867,-0.06495,0.00078,
5.81250,-17.18051,-60.36904,96.41541,-0.41557,1.33053,0.43920,,,0.79876,0.59729,-0.07217,0.00349,
5.82031,-20.09970,-80.06584,81.74686,-1.44823,1.47400,0.80360,,,0.79914,0.59579,-0.07986,0.00458,
5.82813,-60.07546,-129.57499,-32.63294,-2.02522,2.14401,0.96329,,,0.80085,0.59271,-0.08561,-0.00279,
5.83594,-85.00879,-149.23617,-25.61299,-1.38466,1.32809,0.56454,,,0.80335,0.58815,-0.09270,-0.01071,
5.84375,-83.25728,-180.33076,-36.50963,-1.05079,1.33444,0.43775,,,0.80545,0.58363,-0.10104,-0.02047,
5.85156,-75.28960,-209.96501,-3.57523,-0.47478,1.41300,0.41017,,,0.80690,0.57916,-0.11230,-0.02954,
5.85938,-69.58859,-214.70222,41.58296,-0.10597,1.59063,0.58777,,,0.80799,0.57451,-0.12560,-0.03626,
5.86719,-57.70576,-215.09402,117.68482,-0.53446,0.72738,0.44646,,,0.80858,0.56971,-0.14190,-0.03869,
5.87500,-9.83101,-228.87822,156.80096,0.17306,0.54585,-0.04521,,,0.80701,0.56695,-0.16055,-0.03902,
5.88281,15.34273,-196.00272,151.35264,0.12745,0.92355,0.03174,,,0.80456,0.56553,-0.17720,-0.03810,
5.89063,15.75485,-109.05897,22.93294,-0.24039,0.65516,-0.24555,,,0.80267,0.56582,-0.18410,-0.04085,
5.89844,35.60536,-57.66207,-43.00570,-0.05987,1.47986,-0.28378,,,0.80044,0.56814,-0.18569,-0.04498,
5.90625,30.24778,-28.91827,-54.11189,-0.01765,1.72141,-0.25814,,,0.79873,0.57038,-0.18526,-0.04867,
5.91406,7.99323,18.31132,-41.81825,-0.13800,1.57697,-0.41590,,,0.79851,0.57141,-0.18267,-0.05014,
5.92188,-8.45727,55.81716,-26.20671,-0.20788,1.37836,-0.53736,,,0.79943,0.57146,-0.17858,-0.04950,
5.92969,-16.42495,73.94677,-30.32788,-0.29134,1.19927,-0.61140,,,0.80086,0.57118,-0.17331,-0.04847,
5.93750,-24.32394,105.50440,-62.28437,-0.29522,0.78155,-0.77884,,,0.80282,0.57091,-0.16503,-0.04805,
5.94531,-18.10778,133.74954,-102.65782,-0.18021,0.72152,-0.87466,,,0.80463,0.57148,-0.15365,-0.04866,
5.95313,-7.46131,150.95308,-126.26721,-0.19477,0.80107,-0.84175,,,0.80601,0.57284,-0.14041,-0.04978,
5.96094,-0.83303,154.44365,-123.36842,-0.21952,0.75324,-0.82288,,,0.80703,0.57445,-0.12709,-0.05053,
5.96875,19.67000,153.12578,-99.40979,-0.25301,0.69225,-0.75368,,,0.80718,0.57688,-0.11483,-0.04983,
5.97656,42.13061,145.68160,-81.45827,-0.35540,0.64393,-0.63850,,,0.80633,0.58029,-0.10374,-0.04825,
5.98438,52.12455,140.26765,-81.24872,-0.41460,0.62881,-0.54026,,,0.80494,0.58416,-0.09298,-0.04679,
5.99219,70.01748,124.66693,-92.66924,-0.51263,0.69859,-0.32685,,,0.80259,0.58894,-0.08267,-0.04647,
6.00000,82.75890,102.69057,-104.92796,-0.52864,0.80399,-0.11393,,,0.79946,0.59435,-0.07309,-0.04762,
6.00781,87.49829,90.11738,-107.58227,-0.51069,0.84303,-0.01956,1022.762,24.7,0.79596,0.59991,-0.06410,-0.04939,
6.01563,93.88617,64.36551,-106.49959,-0.42722,0.94014,0.14788,,,0.79200,0.60565,-0.05656,-0.05213,
6.02344,94.71041,41.99735,-103.28648,-0.29328,1.01285,0.27563,,,0.78785,0.61129,-0.05036,-0.05560,
6.03125,92.78718,33.48462,-102.69275,-0.20982,1.03335,0.32499,,,0.78367,0.61672,-0.04464,-0.05940,
6.03906,85.23162,23.90336,-103.95005,0.01826,1.06946,0.39662,,,0.77970,0.62166,-0.03933,-0.06369,
6.04688,74.17304,24.79381,-106.70914,0.24634,1.12607,0.45565,,,0.77613,0.62597,-0.03381,-0.06811,
6.05469,67.33869,28.64056,-106.74406,0.38173,1.13192,0.48130,,,0.77280,0.62989,-0.02805,-0.07237,
6.06250,52.88011,43.38645,-103.70558,0.61224,1.16023,0.55970,,,0.77007,0.63306,-0.02158,-0.07587,
6.07031,36.15485,65.04225,-98.46681,0.83206,1.19683,0.64632,,,0.76807,0.63542,-0.01410,-0.07818,
6.07813,26.47000,78.00723,-95.67280,0.91213,1.16315,0.69955,,,0.76646,0.63729,-0.00601,-0.07978,
6.08594,10.08818,105.61125,-88.02419,1.05092,1.01383,0.78376,,,0.76556,0.63840,0.00327,-0.07978,
6.09375,0.98717,132.89471,-75.20667,1.14409,0.83425,0.86893,,,0.76503,0.63912,0.01348,-0.07791,
6.10156,1.26192,157.32872,-56.62650,1.17224,0.64686,0.97926,,,0.76449,0.63992,0.02414,-0.07401,
6.10938,4.90232,167.62234,-45.76479,1.15428,0.60002,1.03249,,,0.76371,0.64090,0.03484,-0.06908,
6.11719,14.58717,182.40385,-21.21242,0.97037,0.58391,1.21735,,,0.76248,0.64242,0.04519,-0.06224,
6.12500,24.10030,183.93543,0.99996,0.68939,0.51950,1.40996,,,0.76081,0.64440,0.05460,-0.05420,
6.13281,28.29020,179.73249,8.15961,0.52343,0.49656,1.53142,,,0.75887,0.64651,0.06345,-0.04598,
6.14063,33.23566,158.57535,9.69632,0.23906,0.53999,1.79565,,,0.75671,0.64873,0.07112,-0.03863,
6.14844,29.21748,122.49423,3.27009,0.14831,0.66345,2.06568,,,0.75480,0.65054,0.07722,-0.03319,
6.15625,23.55081,101.01652,1.41906,0.23712,0.72640,2.16585,,,0.75321,0.65197,0.08229,-0.02876,
6.16406,6.92859,61.90786,6.97216,0.39047,0.89086,2.35942,,,0.75257,0.65248,0.08515,-0.02569,
6.17188,-17.69566,27.60764,30.47677,0.57390,0.93868,2.44604,,,0.75325,0.65179,0.08524,-0.02279,
6.17969,-31.46738,14.50018,43.46892,0.66367,0.87475,2.43394,,,0.75463,0.65044,0.08410,-0.01973,
6.18750,-54.75223,-1.74167,63.06192,0.81265,0.67273,2.34297,,,0.75715,0.64797,0.08128,-0.01625,
6.19531,-69.62293,-6.76382,72.59648,0.90485,0.53951,2.23118,,,0.76033,0.64475,0.07780,-0.01241,
6.20313,-75.83910,-5.94460,73.39975,0.92621,0.51803,2.14698,,,0.76374,0.64118,0.07432,-0.00846,
6.21094,-89.19869,0.21733,73.85378,0.92718,0.56098,1.93453,,,0.76766,0.63689,0.07115,-0.00415,
6.21875,-106.64516,8.05331,72.98065,0.93737,0.56732,1.68192,,,0.77224,0.63163,0.06843,0.00053,
6.22656,-116.26132,12.50557,72.00275,0.95872,0.50779,1.53239,,,0.77715,0.62582,0.06598,0.00541,
6.23438,-131.13203,22.15807,70.22157,0.98832,0.38140,1.18929,,,0.78259,0.61914,0.06410,0.01067,
6.24219,-138.55021,29.56663,76.82242,0.94465,0.23939,0.84763,,,0.78820,0.61203,0.06233,0.01662,
6.25000,-136.52395,31.41877,97.07899,0.76801,0.18815,0.55631,,,0.79360,0.60503,0.05981,0.02373,
6.25781,-133.77648,29.28169,109.72189,0.61563,0.19206,0.43630,,,0.79877,0.59814,0.05664,0.03141,
6.26563,-124.16031,9.76298,130.60712,0.08232,-2.35573,-0.44590,,,0.80345,0.59182,0.05158,0.03940,
6.27344,228.44376,31.70372,364.71026,-3.85907,-0.07097,1.85081,,,0.79280,0.60526,0.03920,0.05982,
6.28125,341.46801,128.97672,237.65264,-6.90561,15.96336,6.04742,,,0.77706,0.62355,0.03776,0.07703,
6.28906,-173.16840,-45.80124,121.35196,-2.26058,2.06545,-0.63028,,,0.78382,0.61486,0.02927,0.08195,
6.29688,-37.64919,-14.10114,116.53229,1.93994,3.17220,-1.20179,,,0.78474,0.61315,0.02342,0.08766,
6.30469,-35.72596,4.20655,60.02343,1.20621,1.81120,-0.35057,,,0.78586,0.61130,0.02092,0.09110,
6.31250,-48.91384,-10.43248,4.49247,0.78548,0.34821,0.35597,,,0.78788,0.60875,0.01986,0.09098,
6.32031,0.57505,-4.34179,-44.61226,-0.18604,0.92014,0.25483,,,0.78814,0.60874,0.02149,0.08840,
6.32813,-2.17242,-5.30348,-34.72845,-0.39422,0.89671,0.21224,,,0.78844,0.60860,0.02263,0.08632,
6.33594,-10.89566,-5.19662,-3.68001,-0.12295,0.63076,0.67149,,,0.78892,0.60804,0.02244,0.08592,
6.34375,-4.43909,-5.16100,1.20951,0.62631,0.82351,0.43049,,,0.78911,0.60783,0.02209,0.08578,
6.35156,-4.74818,-0.74436,-11.08413,0.40114,0.94942,0.45372,,,0.78937,0.60757,0.02248,0.08516,
6.35938,-3.44313,1.46396,-17.37066,-0.20982,1.02847,0.34774,,,0.78961,0.60734,0.02325,0.08429,
6.36719,-2.75626,-2.09785,-5.63581,-0.02153,0.92160,0.32983,,,0.78976,0.60720,0.02336,0.08390,
6.37500,-3.75222,-2.38279,-1.79405,0.13279,0.83669,0.40436,,,0.78993,0.60701,0.02328,0.08371,
6.38281,0.36899,-0.21009,-2.84180,0.14443,0.90452,0.46678,,,0.78993,0.60702,0.02339,0.08355,
6.39063,3.25384,0.32418,-4.34358,0.09542,0.99236,0.40823,,,0.78982,0.60719,0.02361,0.08333,
6.39844,5.03970,-0.06762,-3.99433,0.07698,1.06604,0.35403,,,0.78964,0.60745,0.02380,0.08310,
6.40625,3.70030,-0.03200,-3.88956,0.03525,1.05043,0.35790,,,0.78951,0.60765,0.02398,0.08288,
6.41406,3.73465,-0.81560,-0.29227,-0.00406,0.97772,0.35500,,,0.78935,0.60785,0.02397,0.08283,
6.42188,4.66192,-1.45672,3.54950,0.07989,0.98992,0.35500,,,0.78914,0.60812,0.02377,0.08295,
6.42969,5.79525,-1.84852,3.89875,0.15123,1.02652,0.36032,,,0.78888,0.60845,0.02354,0.08307,
6.43750,6.92859,-1.13616,1.27936,0.19393,1.04018,0.35161,,,0.78859,0.60883,0.02346,0.08308,
6.44531,7.47808,-0.63751,-5.46119,0.19296,0.99236,0.24370,,,0.78831,0.60922,0.02370,0.08275,
6.45313,7.37505,-0.03200,-7.90595,0.14104,1.06556,0.30612,,,0.78805,0.60961,0.02407,0.08231,
6.46094,1.43364,-0.74436,-9.44265,0.13618,0.95234,0.43872,,,0.78805,0.60967,0.02443,0.08177,
6.46875,1.74273,0.50227,-9.82683,0.04253,0.93234,0.40775,,,0.78803,0.60975,0.02487,0.08126,
6.47656,1.43364,-0.03200,-8.08057,0.02117,0.93575,0.37677,,,0.78801,0.60981,0.02522,0.08083,
6.48438,-2.89364,-1.06492,-4.27373,0.05660,0.90940,0.36274,,,0.78816,0.60965,0.02532,0.08056,
6.49219,-6.39667,0.35980,-1.75912,0.02797,0.87329,0.35500,,,0.78843,0.60930,0.02538,0.08049,
6.50000,-6.77445,0.21733,0.96504,0.04980,0.89427,0.34822,,,0.78871,0.60894,0.02531,0.08056,
6.50781,-8.14818,-0.21009,2.92084,0.07455,0.91379,0.37000,,,0.78903,0.60851,0.02513,0.08072,
6.51563,-10.17445,0.28856,3.72412,0.10318,0.94551,0.44694,,,0.78943,0.60796,0.02494,0.08095,
6.52344,-10.44919,-0.03200,3.89875,0.16336,0.90598,0.41307,,,0.78985,0.60741,0.02472,0.08118,
6.53125,-10.38051,1.89138,0.61578,0.15317,0.97235,0.36806,,,0.79027,0.60684,0.02474,0.08131,
6.53906,-12.02899,2.42565,-3.08628,0.20558,0.93575,0.35355,,,0.79078,0.60617,0.02493,0.08126,
6.54688,-12.47546,4.27779,-4.51821,0.12551,0.91282,0.36371,,,0.79131,0.60547,0.02528,0.08122,
6.55469,-11.44515,4.38464,-6.36924,0.14249,0.95186,0.31774,,,0.79181,0.60481,0.02571,0.08108,
6.56250,-12.23505,5.13262,-6.15969,0.07795,0.99919,0.37242,,,0.79234,0.60411,0.02617,0.08098,
6.57031,-15.39465,5.09701,-8.56952,0.13618,0.99041,0.41065,,,0.79301,0.60324,0.02672,0.08075,
6.57813,-16.11586,5.80937,-8.42982,0.16578,0.94551,0.34484,,,0.79371,0.60232,0.02729,0.08056,
6.58594,-17.66131,6.87791,-10.90951,0.16239,1.01969,0.35064,,,0.79448,0.60130,0.02801,0.08029,
6.59375,-21.13000,8.80129,-12.23666,0.14104,1.00212,0.36903,,,0.79540,0.60009,0.02887,0.08003,
6.60156,-22.19465,9.19309,-11.85249,0.14686,1.03969,0.41307,,,0.79635,0.59881,0.02974,0.07980,
6.60938,-23.12192,9.90545,-13.10979,0.12648,0.97577,0.31870,,,0.79735,0.59747,0.03068,0.07954,
6.61719,-25.07950,8.83691,-12.83039,0.22547,0.98162,0.36177,,,0.79842,0.59603,0.03155,0.07926,
6.62500,-26.76233,10.51096,-14.50680,0.22741,0.99431,0.44210,,,0.79956,0.59448,0.03257,0.07895,
6.63281,-27.72394,13.82344,-13.84322,0.16287,0.97772,0.40533,,,0.80072,0.59287,0.03373,0.07882,
6.64063,-27.82697,15.07007,-14.54172,0.07504,1.08312,0.40339,,,0.80189,0.59123,0.03499,0.07870,
6.64844,-30.50576,14.92760,-14.12262,0.01389,1.03774,0.40291,,,0.80316,0.58945,0.03621,0.07860,
6.65625,-33.56233,13.50287,-12.41129,-0.08704,1.09923,0.46969,,,0.80454,0.58750,0.03727,0.07855,
6.66406,-34.79869,10.19039,-9.37280,-0.10936,1.14363,0.41984,,,0.80595,0.58552,0.03802,0.07853,
6.67188,-40.43101,6.02308,-6.85819,0.03767,1.12851,0.41259,,,0.80758,0.58324,0.03841,0.07850,
6.67969,-42.56031,6.48611,-6.75342,0.03428,1.20024,0.48324,,,0.80929,0.58084,0.03881,0.07850,
6.68750,-47.54010,5.09701,-4.30866,0.11726,1.11582,0.41307,,,0.81118,0.57818,0.03900,0.07859,
6.69531,-51.62697,5.73813,-5.74059,0.12017,1.20024,0.40049,,,0.81323,0.57527,0.03927,0.07863,
6.70313,-55.23303,5.23948,-5.35641,0.16627,1.20951,0.41162,,,0.81540,0.57216,0.03947,0.07869,
6.71094,-62.92596,7.37656,-5.77551,0.12745,1.16511,0.45711,,,0.81786,0.56861,0.03977,0.07882,
6.71875,-66.29162,9.01500,-8.56952,0.08280,1.29198,0.44162,,,0.82044,0.56483,0.04025,0.07887,
6.72656,-71.61485,8.01769,-8.60445,0.16676,1.20171,0.41452,,,0.82321,0.56075,0.04064,0.07890,
6.73438,-79.92597,10.90275,-9.75698,0.17306,1.15632,0.54954,,,0.82628,0.55617,0.04120,0.07899,
6.74219,-81.19667,13.96591,-10.73488,0.13376,1.22123,0.46388,,,0.82936,0.55148,0.04195,0.07914,
6.75000,-84.76839,13.93029,-12.16681,0.18325,1.25050,0.47840,,,0.83256,0.54657,0.04274,0.07922,
6.75781,-91.67142,16.70850,-13.31934,0.15511,1.25392,0.48808,,,0.83598,0.54123,0.04369,0.07935,
6.76563,-100.60071,17.67019,-12.72561,0.15414,1.12851,0.44646,,,0.83969,0.53535,0.04462,0.07957,
6.77344,-101.11587,19.16615,-12.90024,0.09930,1.21830,0.43388,,,0.84337,0.52940,0.04564,0.07984,
6.78125,-108.91183,18.70312,-14.36710,0.12502,1.27490,0.45662,,,0.84730,0.52298,0.04664,0.08002,
6.78906,-118.80274,20.09222,-14.61157,0.10416,1.17828,0.52195,,,0.85152,0.51594,0.04767,0.08027,
6.79688,-120.55425,20.59087,-14.50680,0.08620,1.18023,0.46630,,,0.85574,0.50877,0.04871,0.08054,
6.80469,-127.01082,20.66211,-16.32290,0.07552,1.24123,0.43146,,,0.86013,0.50117,0.04978,0.08073,
6.81250,-136.00880,21.94436,-15.76410,0.07261,1.31443,0.51373,,,0.86476,0.49300,0.05086,0.08101,
6.82031,-145.17850,21.37447,-15.93873,0.14007,1.28222,0.51131,,,0.86960,0.48424,0.05185,0.08129,
6.82813,-149.12799,22.97729,-16.04350,0.10755,1.32273,0.53357,,,0.87449,0.47519,0.05291,0.08162,
6.83594,-159.39668,23.79650,-14.78620,0.19830,1.36225,0.56115,,,0.87959,0.46548,0.05392,0.08208,
6.84375,-170.69567,27.28708,-14.36710,0.10561,1.32761,0.52340,,,0.88493,0.45501,0.05505,0.08270,
6.85156,-173.47749,27.82135,-15.03067,0.06242,1.47303,0.49679,,,0.89023,0.44430,0.05621,0.08331,
6.85938,-186.87143,27.57202,-14.96082,0.09008,1.60576,0.43388,,,0.89579,0.43271,0.05727,0.08394,
6.86719,-203.69971,29.13922,-17.82468,-0.03269,1.76338,0.54421,,,0.90170,0.41999,0.05841,0.08450,
6.87500,-213.35022,28.03506,-19.36139,-0.00309,1.79559,0.56744,,,0.90771,0.40660,0.05945,0.08495,
6.88281,-230.28153,28.53371,-22.46973,-0.05065,2.04690,0.55825,,,0.91399,0.39204,0.06050,0.08528,
6.89063,-253.60073,27.32269,-22.78405,-0.07200,2.25283,0.56551,,,0.92064,0.37593,0.06133,0.08562,
6.89844,-267.61285,26.46786,-22.81898,-0.07394,2.31139,0.59019,,,0.92736,0.35883,0.06200,0.08597,
6.90625,-293.88558,26.93089,-22.99360,-0.07443,2.46267,0.58631,,,0.93438,0.33993,0.06253,0.08640,
6.91406,-322.59669,25.54179,-22.05062,0.07698,2.65103,0.53647,,,0.94165,0.31907,0.06275,0.08694,
6.92188,-338.94417,27.71449,-17.23096,0.06048,2.67299,0.55631,,,0.94875,0.29700,0.06288,0.08786,
6.92969,-373.18457,29.31731,-7.59162,-0.06957,2.62370,0.53937,,,0.95591,0.27257,0.06268,0.08954,
6.93750,-405.67347,24.93628,7.84529,-0.03560,2.35970,0.28870,,,0.96292,0.24592,0.06166,0.09221,
6.94531,-414.36236,21.44571,16.36702,0.07552,2.31139,0.17982,,,0.96929,0.21858,0.06016,0.09535,
6.95313,-426.82902,24.50886,34.84241,0.05660,1.99469,-0.01182,,,0.97490,0.19028,0.05846,0.09972,
6.96094,-422.39872,26.11168,37.07762,-0.13994,1.30711,-0.33750,,,0.97961,0.16211,0.05682,0.10417,
6.96875,-382.86942,25.96921,-9.05848,-0.34375,0.76691,-0.50494,,,0.98347,0.13628,0.05592,0.10530,
6.97656,-356.66538,23.90336,-37.27798,-0.94937,0.60587,-0.40283,,,0.98666,0.11202,0.05530,0.10435,
6.98438,-302.02497,-41.84763,-94.38057,-0.84989,-0.56676,-0.23055,,,0.98957,0.09162,0.05104,0.09879,
6.99219,-153.42092,-75.39987,-65.32286,-0.01862,-0.60385,-0.72706,,,0.99115,0.08154,0.04533,0.09444,
7.00000,-85.14617,-79.67404,-55.26442,-0.10888,-0.49552,-0.79529,,,0.99219,0.07613,0.03970,0.09052,
7.00781,42.71445,-92.03352,3.16532,-0.02735,-0.03193,-0.75948,1022.750,24.8,0.99217,0.07959,0.03372,0.09014,
7.01563,123.11243,-94.59802,46.43755,-0.05501,0.88744,-0.68786,,,0.99137,0.08861,0.02783,0.09248,
7.02344,138.08617,-94.70488,46.82173,-0.10354,1.08166,-0.67964,,,0.99035,0.09862,0.02202,0.09481,
7.03125,143.10031,-91.53487,23.42189,-0.16663,0.96747,-0.72416,,,0.98931,0.10891,0.01660,0.09555,
7.03906,144.09627,-84.90990,-16.39275,-0.19817,0.78399,-0.72125,,,0.98838,0.11916,0.01194,0.09365,
7.04688,146.01951,-82.06046,-34.65860,-0.15838,0.71762,-0.72512,,,0.98741,0.12949,0.00762,0.09052,
7.05469,154.88011,-75.82729,-58.75694,-0.03900,0.56488,-0.73287,,,0.98637,0.14035,0.00399,0.08581,
7.06250,174.24981,-69.62974,-60.99214,0.04204,0.41604,-0.71593,,,0.98499,0.15244,0.00091,0.08098,
7.07031,187.67810,-67.17210,-55.08980,0.06533,0.38872,-0.69948,,,0.98325,0.16540,-0.00199,0.07657,
7.07813,217.04173,-62.75545,-37.80186,0.09057,0.39555,-0.65931,,,0.98087,0.18026,-0.00464,0.07335,
7.08594,245.03164,-57.94701,-25.71776,0.05078,0.45655,-0.59301,,,0.97782,0.19692,-0.00697,0.07098,
7.09375,257.08618,-55.45374,-24.25091,0.03525,0.49510,-0.56640,,,0.97430,0.21431,-0.00910,0.06873,
7.10156,277.24578,-49.89732,-30.50251,0.00370,0.55658,-0.50687,,,0.97018,0.23294,-0.01066,0.06613,
7.10938,295.92861,-44.73270,-41.36422,-0.02493,0.61905,-0.45461,,,0.96543,0.25269,-0.01163,0.06289,
7.11719,313.34073,-40.60100,-49.88595,-0.03269,0.76740,-0.38299,,,0.95998,0.27347,-0.01210,0.05914,
7.12500,320.96497,-38.74886,-52.47041,-0.03027,0.84352,-0.35008,,,0.95394,0.29461,-0.01236,0.05523,
7.13281,333.39730,-35.22267,-54.60084,-0.03852,0.96162,-0.29104,,,0.94717,0.31639,-0.01229,0.05124,
7.14063,343.21952,-31.98142,-55.22950,-0.05210,1.09972,-0.21410,,,0.93966,0.33862,-0.01196,0.04726,
7.14844,346.00134,-30.41423,-56.10263,-0.06957,1.17535,-0.16522,,,0.93156,0.36083,-0.01150,0.04323,
7.15625,347.82154,-28.98950,-61.20169,-0.09238,1.30028,-0.04182,,,0.92289,0.38294,-0.01080,0.03889,
7.16406,346.20740,-27.70725,-68.15180,-0.09092,1.41203,0.06367,,,0.91374,0.40474,-0.00984,0.03413,
7.17188,344.90235,-26.95927,-70.73625,-0.08413,1.44814,0.11787,,,0.90411,0.42621,-0.00877,0.02920,
7.17969,342.15487,-25.71264,-74.19384,-0.07491,1.53110,0.24273,,,0.89404,0.44727,-0.00751,0.02408,
7.18750,339.27003,-25.46331,-77.61651,-0.05210,1.63504,0.36661,,,0.88356,0.46790,-0.00614,0.01874,
7.19531,337.00336,-25.46331,-78.45471,-0.04482,1.68286,0.43920,,,0.87265,0.48814,-0.00474,0.01334,
7.20313,331.81750,-25.89073,-77.23233,0.03088,1.74093,0.53792,,,0.86144,0.50779,-0.00340,0.00798,
7.21094,326.11649,-22.43578,-73.07624,0.16530,1.81560,0.64197,,,0.84996,0.52684,-0.00201,0.00299,
7.21875,322.81952,-18.12599,-71.36491,0.24537,1.83463,0.71407,,,0.83816,0.54542,-0.00044,-0.00175,
7.22656,314.26800,-3.41572,-72.55236,0.41813,1.92588,0.87473,,,0.82627,0.56324,0.00203,-0.00601,
7.23438,301.11447,18.73873,-72.93654,0.51809,2.01372,1.05524,,,0.81449,0.58007,0.00576,-0.00944,
7.24219,284.11447,42.99465,-68.11687,0.53847,2.03373,1.15832,,,0.80303,0.59572,0.01065,-0.01163,
7.25000,274.87608,54.78424,-63.05273,0.52828,2.01274,1.32237,,,0.79163,0.61065,0.01599,-0.01305,
7.25781,256.19325,76.15509,-52.22594,0.46617,1.97078,1.46512,,,0.78070,0.62438,0.02204,-0.01297,
7.26563,235.65588,93.46548,-45.38061,0.35019,1.88489,1.63740,,,0.77038,0.63683,0.02873,-0.01176,
7.27344,225.21547,99.62741,-44.22808,0.28710,1.82584,1.73274,,,0.76026,0.64855,0.03569,-0.01020,
7.28125,204.67810,106.03867,-45.45046,0.18471,1.64773,1.91324,,,0.75083,0.65903,0.04305,-0.00836,
7.28906,187.60941,105.36192,-42.65645,0.07892,1.41252,2.05745,,,0.74199,0.66849,0.05025,-0.00636,
7.29688,180.87809,102.12068,-39.23379,0.05417,1.30565,2.11165,,,0.73331,0.67747,0.05711,-0.00431,
7.30469,170.30032,91.68458,-28.79117,-0.02784,1.11338,2.17166,,,0.72503,0.68583,0.06297,-0.00217,
7.31250,163.32860,75.05093,-16.11335,-0.12150,0.95478,2.18521,,,0.71702,0.69379,0.06740,-0.00016,
7.32031,160.99324,65.00663,-10.31578,-0.17633,0.88744,2.20021,,,0.70906,0.70155,0.07106,0.00167,
7.32813,157.83365,41.85487,0.23161,-0.28309,0.80302,2.19827,,,0.70128,0.70913,0.07309,0.00292,
7.33594,153.33466,16.92221,3.89875,-0.30347,0.79180,2.19634,,,0.69375,0.71643,0.07374,0.00315,
7.34375,148.90435,6.05869,1.94294,-0.29862,0.84108,2.19440,,,0.68642,0.72343,0.07396,0.00279,
7.35156,132.93466,-11.28731,-5.56596,-0.18992,0.91379,2.20989,,,0.67990,0.72959,0.07372,0.00131,
7.35938,109.30637,-20.72611,-14.08769,-0.02735,0.94210,2.21714,,,0.67456,0.73456,0.07347,-0.00093,
7.36719,96.11849,-22.68510,-16.46260,0.04689,0.94014,2.22731,,,0.66985,0.73887,0.07324,-0.00330,
7.37500,69.02152,-22.32892,-16.91663,0.21189,0.94063,2.23650,,,0.66648,0.74191,0.07306,-0.00554,
7.38281,41.51243,-17.19992,-13.17964,0.36766,0.90257,2.22537,,,0.66447,0.74372,0.07292,-0.00722,
7.39063,16.02960,-7.51180,-9.51250,0.47102,0.78887,2.15472,,,0.66370,0.74438,0.07305,-0.00811,
7.39844,5.82960,-1.59919,-7.10267,0.50450,0.73177,2.08745,,,0.66341,0.74460,0.07334,-0.00854,
7.40625,-11.20475,11.65073,-3.57523,0.52149,0.73470,1.96163,,,0.66393,0.74408,0.07405,-0.00805,
7.41406,-27.72394,23.83212,-1.09555,0.48946,0.70737,1.77919,,,0.66522,0.74282,0.07519,-0.00675,
7.42188,-35.34818,29.31731,0.26653,0.45743,0.66004,1.65773,,,0.66686,0.74122,0.07652,-0.00507,
7.42969,-47.26536,38.57801,5.95933,0.54042,5.88981,2.83415,,,0.66906,0.73910,0.07799,-0.00259,
7.43750,-413.40074,20.02099,102.45746,-0.12538,-2.62900,0.35839,,,0.68951,0.72049,0.07378,0.00528,
7.44531,-375.34821,17.17154,98.89510,-1.36137,1.82145,0.57567,,,0.70758,0.70308,0.06957,0.01265,
7.45313,-407.56235,-57.34150,147.99983,-0.45731,1.79998,-0.05440,,,0.72694,0.68387,0.05934,0.01897,
7.46094,-367.07144,-57.05656,146.35835,-0.18410,1.74435,-0.66221,,,0.74382,0.66610,0.04919,0.02504,
7.46875,-347.70174,-62.82669,145.59000,0.15123,1.64090,-0.38928,,,0.75931,0.64885,0.03879,0.03072,
7.47656,-313.35831,-64.25141,119.60570,0.26915,0.66101,0.49098,,,0.77288,0.63290,0.02951,0.03489,
7.48438,-240.89366,-67.13648,71.47887,0.66464,0.06518,0.81037,,,0.78312,0.62041,0.02230,0.03624,
7.49219,-203.45931,-65.49805,50.24439,0.70055,0.23793,0.73294,,,0.79162,0.60972,0.01617,0.03646,
7.50000,-130.85728,-40.92156,26.66993,0.50839,0.36920,0.67874,,,0.79700,0.60275,0.01253,0.03635,
7.50781,-69.79465,-14.24362,24.78397,0.25168,0.59270,0.76585,,,0.79981,0.59901,0.01056,0.03717,
7.51563,-46.57849,-4.80482,26.25083,0.16627,0.78008,0.63858,,,0.80165,0.59649,0.00911,0.03844,
7.52344,-23.39667,-0.56627,25.20308,-0.00600,0.99382,0.30467,,,0.80253,0.59523,0.00799,0.03981,
7.53125,-21.64515,-9.07899,16.75119,0.04835,0.80839,0.27854,,,0.80337,0.59408,0.00676,0.04037,
7.53906,-18.89768,-11.92844,8.64856,0.25022,0.55024,0.45953,,,0.80411,0.59308,0.00570,0.04037,
7.54688,-13.98657,-9.18585,5.78470,0.25362,0.57952,0.56599,,,0.80467,0.59234,0.00492,0.04032,
7.55469,-2.10374,-3.02392,3.72412,0.05029,0.90647,0.43969,,,0.80474,0.59223,0.00460,0.04040,
7.56250,-3.85525,-4.48426,6.51813,0.00856,0.97918,0.35693,,,0.80488,0.59203,0.00408,0.04058,
7.57031,-5.22899,-5.80213,7.53096,0.12745,0.90159,0.41259,,,0.80507,0.59176,0.00344,0.04076,
7.57813,-1.07343,-4.37741,2.95577,0.25362,0.83083,0.37000,,,0.80511,0.59172,0.00308,0.04075,
7.58594,0.74677,-1.59919,-4.23881,0.11435,0.99089,0.40871,,,0.80509,0.59176,0.00317,0.04045,
7.59375,-2.06939,-1.38549,-6.22954,0.04786,0.94698,0.47550,,,0.80519,0.59165,0.00334,0.04005,
7.60156,-1.27950,-1.67043,-5.04209,0.12696,0.89378,0.47162,,,0.80526,0.59158,0.00344,0.03971,
7.60938,1.26192,-0.13885,-5.49611,0.07407,1.00505,0.40968,,,0.80522,0.59165,0.00366,0.03940,
7.61719,0.47202,-0.17447,-5.21671,0.09493,1.00993,0.41742,,,0.80522,0.59167,0.00386,0.03911,
7.62500,0.84980,0.89407,-4.76269,0.12599,0.92453,0.45711,,,0.80520,0.59172,0.00411,0.03888,
7.63281,4.35283,2.21194,-5.70566,0.09493,0.93770,0.39516,,,0.80504,0.59195,0.00447,0.03866,
7.64063,6.20737,2.28318,-5.67074,0.06194,1.02164,0.37968,,,0.80480,0.59228,0.00484,0.03844,
7.64844,4.79929,1.92700,-3.88956,0.07844,0.95430,0.42855,,,0.80462,0.59254,0.00511,0.03830,
7.65625,7.30636,2.56812,-4.13403,0.11920,0.93185,0.35693,,,0.80433,0.59293,0.00544,0.03817,
7.66406,7.82152,3.10239,-5.28656,0.08377,0.92453,0.34290,,,0.80403,0.59335,0.00584,0.03801,
7.67188,8.06192,2.60374,-4.06418,0.07213,0.95381,0.38549,,,0.80371,0.59378,0.00617,0.03789,
7.67969,7.95889,2.21194,-3.54031,0.06048,0.90110,0.42226,,,0.80340,0.59421,0.00646,0.03778,
7.68750,10.25990,2.14070,-1.58450,0.04495,0.97235,0.35935,,,0.80299,0.59476,0.00667,0.03777,
7.69531,8.81748,1.57082,-0.88600,0.05757,0.92160,0.34290,,,0.80263,0.59524,0.00681,0.03779,
7.70313,7.54677,1.17902,0.23161,0.10658,0.90940,0.42855,,,0.80232,0.59565,0.00688,0.03784,
7.71094,8.37101,1.21463,0.02206,0.11289,0.92648,0.37097,,,0.80198,0.59610,0.00697,0.03789,
7.71875,8.81748,1.53520,0.58086,0.08814,0.99724,0.37000,,,0.80162,0.59658,0.00705,0.03798,
7.72656,5.96697,0.64475,2.15249,0.08766,0.96894,0.37968,,,0.80137,0.59691,0.00702,0.03812,
7.73438,3.11646,0.46665,3.61935,0.07989,0.90306,0.42081,,,0.80124,0.59708,0.00690,0.03834,
7.74219,4.18111,0.46665,4.63217,0.06000,0.94356,0.36081,,,0.80106,0.59731,0.00675,0.03861,
7.75000,3.97505,-0.03200,7.28648,0.00759,1.03774,0.38113,,,0.80087,0.59753,0.00646,0.03900,
7.75781,-0.38657,-2.45403,10.53452,0.05951,0.91379,0.43049,,,0.80086,0.59752,0.00590,0.03948,
7.76563,-0.11182,-2.09785,10.98855,0.08183,0.88842,0.36806,,,0.80084,0.59752,0.00534,0.03999,
7.77344,0.95283,-2.56088,12.24585,0.07601,0.99236,0.34338,,,0.80077,0.59758,0.00470,0.04056,
7.78125,-0.83303,-4.05684,11.75690,0.10610,0.97089,0.34435,,,0.80077,0.59755,0.00400,0.04103,
7.78906,-1.89768,-3.98561,12.76973,0.06727,0.90452,0.38258,,,0.80081,0.59746,0.00325,0.04157,
7.79688,-1.24515,-5.65966,13.29361,0.16870,0.87866,0.32209,,,0.80083,0.59741,0.00240,0.04206,
7.80469,-1.93202,-4.55550,11.75690,0.08863,0.92746,0.37677,,,0.80087,0.59732,0.00166,0.04252,
7.81250,-2.85929,-5.94460,11.33780,0.18617,0.92014,0.43146,,,0.80096,0.59718,0.00087,0.04290,
7.82031,-2.17242,-4.98291,10.01064,0.11435,0.85426,0.39807,,,0.80102,0.59708,0.00018,0.04324,
7.82813,-1.07343,-4.87606,11.44257,0.04786,0.94746,0.38742,,,0.80103,0.59703,-0.00055,0.04367,
7.83594,-0.24919,-5.69527,10.67422,0.05708,1.00358,0.40823,,,0.80101,0.59703,-0.00130,0.04402,
7.84375,-1.86333,-5.83775,13.43331,-0.00988,0.94600,0.44114,,,0.80104,0.59695,-0.00217,0.04452,
7.85156,1.12455,-7.86798,15.03986,0.08766,0.95820,0.32838,,,0.80095,0.59703,-0.00321,0.04502,
7.85938,-1.10778,-7.90360,16.96075,0.08766,1.03335,0.40242,,,0.80094,0.59699,-0.00433,0.04562,
7.86719,-3.51182,-9.86259,15.45896,0.16481,0.95478,0.40823,,,0.80103,0.59682,-0.00551,0.04606,
7.87500,-1.96636,-7.93921,11.47750,0.15462,1.01383,0.37387,,,0.80107,0.59674,-0.00642,0.04637,
7.88281,-4.40475,-8.86528,6.27366,0.14201,0.97674,0.34967,,,0.80123,0.59652,-0.00717,0.04635,
7.89063,-5.43505,-9.29270,3.02562,0.17015,0.96942,0.35113,,,0.80143,0.59625,-0.00782,0.04613,
7.89844,-7.73606,-9.72012,-2.91165,0.11240,0.85914,0.43146,,,0.80175,0.59586,-0.00826,0.04557,
7.90625,-5.67546,-9.04337,-7.97580,0.20267,1.04360,0.38403,,,0.80200,0.59558,-0.00845,0.04477,
7.91406,-8.38859,-8.08169,-8.67430,0.16481,0.99480,0.33612,,,0.80236,0.59515,-0.00856,0.04396,
7.92188,-15.49768,-5.80213,-13.21457,0.24100,0.98992,0.41646,,,0.80303,0.59433,-0.00839,0.04299,
7.92969,-16.52798,-2.56088,-13.28442,0.42201,1.19975,0.29354,,,0.80374,0.59344,-0.00804,0.04215,
7.93750,-21.09566,4.42026,-12.48114,0.29584,1.17779,0.33661,,,0.80463,0.59228,-0.00736,0.04164,
7.94531,-29.85323,7.19847,-16.07843,0.34291,1.24074,0.40145,,,0.80588,0.59062,-0.00640,0.04103,
7.95313,-38.33606,11.90006,-20.68854,0.32738,1.14656,0.36516,,,0.80748,0.58849,-0.00502,0.04036,
7.96094,-42.49162,16.99345,-23.72703,0.26963,1.45009,0.38887,,,0.80925,0.58611,-0.00325,0.03972,
7.96875,-49.84112,16.74412,-22.67928,0.28322,1.36518,0.39032,,,0.81130,0.58331,-0.00156,0.03913,
7.97656,-60.59061,19.98537,-24.39061,0.26721,1.40080,0.46582,,,0.81377,0.57991,0.00035,0.03857,
7.98438,-67.76839,23.26223,-23.58733,0.19539,1.43545,0.36661,,,0.81650,0.57608,0.00240,0.03818,
7.99219,-73.16031,23.29785,-25.75269,0.24780,1.55013,0.43243,,,0.81942,0.57193,0.00452,0.03767,
8.00000,-86.14213,25.64864,-23.69211,0.19345,1.55159,0.52098,,,0.82282,0.56704,0.00665,0.03738,
8.00781,-97.68152,25.32808,-23.27300,0.21577,1.53695,0.42178,1022.701,24.8,0.82662,0.56147,0.00872,0.03709,
8.01563,-102.42092,25.89797,-21.87600,0.19345,1.57062,0.39081,,,0.83056,0.55560,0.01076,0.03691,
8.02344,-117.08556,26.14730,-19.36139,0.14540,1.64870,0.52970,,,0.83499,0.54888,0.01268,0.03689,
8.03125,-130.10173,25.22123,-17.44051,0.11483,1.56965,0.43388,,,0.83985,0.54137,0.01444,0.03695,
8.03906,-134.11991,25.07875,-16.32290,0.14686,1.63504,0.33274,,,0.84478,0.53359,0.01614,0.03708,
8.04688,-151.84112,26.78842,-17.51036,0.13618,1.65553,0.43436,,,0.85027,0.52473,0.01793,0.03721,
8.05469,-165.30375,28.32000,-13.70352,0.06824,1.78924,0.49437,,,0.85612,0.51503,0.01964,0.03763,
8.06250,-175.09163,25.86235,-13.38919,0.18617,1.75069,0.41113,,,0.86220,0.50469,0.02117,0.03799,
8.07031,-188.45123,30.56394,-10.59518,-0.13800,1.99469,0.33612,,,0.86860,0.49348,0.02284,0.03868,
8.07813,-210.46537,24.65134,-10.87458,-0.15255,2.19769,0.33225,,,0.87557,0.48089,0.02411,0.03919,
8.08594,-224.54618,23.61841,-11.29368,-0.21855,2.18988,0.37919,,,0.88282,0.46735,0.02529,0.03965,
8.09375,-251.40275,18.84559,-14.78620,-0.15692,2.36263,0.31338,,,0.89070,0.45209,0.02621,0.03979,
8.10156,-283.17043,14.53580,-22.92375,0.07795,2.46120,0.32790,,,0.89929,0.43473,0.02703,0.03935,
8.10938,-313.73609,19.45110,-32.52816,0.16045,2.75595,0.41694,,,0.90843,0.41530,0.02834,0.03850,
8.11719,-331.49164,22.05122,-40.28154,0.09785,2.68470,0.34532,,,0.91763,0.39454,0.02996,0.03726,
8.12500,-362.60680,27.60764,-57.84888,0.23275,2.90723,0.27563,,,0.92718,0.37156,0.03231,0.03511,
8.13281,-390.25326,31.70372,-43.73913,-0.45391,2.94578,0.37048,,,0.93676,0.34661,0.03448,0.03400,
8.14063,-405.08963,19.37986,-28.82610,-0.49127,2.85501,0.40387,,,0.94599,0.32051,0.03545,0.03355,
8.14844,-434.76236,4.09970,-24.42553,-0.35152,2.72911,0.34145,,,0.95511,0.29229,0.03524,0.03310,
8.15625,-464.57246,-5.23224,-19.74557,-0.05259,2.79596,0.08400,,,0.96393,0.26189,0.03423,0.03281,
8.16406,-479.30579,-10.00506,-6.40417,0.20509,2.79938,-0.25185,,,0.97201,0.23029,0.03260,0.03332,
8.17188,-503.17448,1.14340,44.16742,-0.30396,2.35726,-0.08247,,,0.97922,0.19694,0.03082,0.03736,
8.17969,-510.69570,-18.51779,90.93217,-0.34666,1.21781,-0.97193,,,0.98527,0.16299,0.02705,0.04422,
8.18750,-477.93206,-23.46870,100.95568,-0.39665,0.50095,-1.22550,,,0.98976,0.13108,0.02290,0.05160,
8.19531,-386.99064,-26.28253,46.15815,-0.62715,0.39994,-1.13453,,,0.99275,0.10509,0.01935,0.05506,
8.20313,-313.77043,-48.29451,23.70130,-0.20933,-1.75306,-1.16985,,,0.99474,0.08404,0.01473,0.05672,
8.21094,-234.60881,-46.69169,35.82032,0.21577,-2.50993,-1.16792,,,0.99586,0.06832,0.01045,0.05911,
8.21875,-38.71384,-9.32832,7.07693,0.16239,-0.82345,-1.16017,,,0.99601,0.06573,0.00962,0.05957,
8.22656,82.03768,7.41218,30.65140,0.03282,0.01443,-1.01596,,,0.99550,0.07129,0.01032,0.06163,
8.23438,124.07405,12.07815,48.70769,-0.02881,0.53414,-0.97822,,,0.99464,0.07969,0.01143,0.06491,
8.24219,161.02759,16.49479,65.26220,-0.22146,1.13290,-0.86691,,,0.99339,0.09059,0.01291,0.06929,
8.25000,159.07001,14.50018,52.09543,-0.36171,1.04409,-0.81707,,,0.99208,0.10135,0.01432,0.07276,
8.25781,152.64779,9.37118,21.50101,-0.48400,0.76349,-0.77884,,,0.99086,0.11165,0.01557,0.07413,
8.26563,152.51042,5.06139,5.19098,-0.50680,0.66199,-0.75706,,,0.98961,0.12193,0.01664,0.07435,
8.27344,159.48213,-6.83505,-20.26944,-0.48400,0.47265,-0.72561,,,0.98834,0.13269,0.01716,0.07274,
8.28125,177.34072,-21.18914,-33.12189,-0.40198,0.35017,-0.67238,,,0.98684,0.14470,0.01691,0.07011,
8.28906,189.91042,-28.91827,-34.44905,-0.36510,0.31015,-0.64915,,,0.98508,0.15757,0.01622,0.06728,
8.29688,220.54476,-43.45045,-30.71206,-0.27242,0.27453,-0.61285,,,0.98278,0.17253,0.01464,0.06450,
8.30469,254.68214,-55.16880,-26.90522,-0.19332,0.33797,-0.59834,,,0.97980,0.18978,0.01238,0.06178,
8.31250,271.13265,-59.40735,-26.59089,-0.14722,0.40043,-0.59011,,,0.97628,0.20809,0.00990,0.05900,
8.32031,300.39326,-63.96647,-30.01355,-0.08219,0.54731,-0.55865,,,0.97197,0.22827,0.00727,0.05587,
8.32813,323.16295,-64.00209,-39.61796,0.01050,0.70005,-0.50349,,,0.96687,0.24985,0.00488,0.05208,
8.33594,332.33265,-62.43489,-45.79971,0.06582,0.79668,-0.47348,,,0.96113,0.27190,0.00272,0.04787,
8.34375,344.49023,-56.16611,-56.24233,0.14007,1.00212,-0.39606,,,0.95466,0.29457,0.00121,0.04307,
8.35156,350.25993,-48.25889,-61.55095,0.20800,1.21342,-0.30750,,,0.94752,0.31741,0.00033,0.03806,
8.35938,350.46599,-43.87787,-61.97005,0.24440,1.28808,-0.27169,,,0.93982,0.34007,-0.00026,0.03309,
8.36719,349.57306,-33.90480,-59.14111,0.31040,1.32907,-0.22233,,,0.93157,0.36245,-0.00027,0.02851,
8.37500,352.11447,-23.25499,-53.51817,0.34388,1.34761,-0.18458,,,0.92269,0.38475,0.00026,0.02453,
8.38281,354.65589,-17.76981,-50.93371,0.34097,1.37494,-0.16329,,,0.91320,0.40698,0.00107,0.02085,
8.39063,360.59730,-7.93921,-48.83820,0.29487,1.43204,-0.09699,,,0.90298,0.42931,0.00244,0.01756,
8.39844,366.50437,-0.77998,-51.49251,0.27157,1.53939,-0.00891,,,0.89203,0.45173,0.00433,0.01430,
8.40625,370.04175,4.66959,-55.82322,0.22256,1.67652,0.09513,,,0.88040,0.47406,0.00669,0.01094,
8.41406,370.76296,5.80937,-57.84888,0.20558,1.74581,0.15707,,,0.86817,0.49613,0.00918,0.00749,
8.42188,370.14478,6.27240,-58.96649,0.20752,1.92734,0.25724,,,0.85539,0.51783,0.01173,0.00398,
8.42969,366.26397,4.52712,-54.91517,0.26187,2.06105,0.34967,,,0.84220,0.53898,0.01403,0.00064,
8.43750,364.03164,3.49419,-50.79401,0.31719,2.10253,0.38936,,,0.82856,0.55966,0.01610,-0.00249,
8.44531,361.11245,7.16286,-36.99858,0.56759,2.14987,0.48517,,,0.81452,0.57984,0.01785,-0.00470,
8.45313,356.99124,24.86505,-29.07058,0.76364,2.22209,0.67826,,,0.80013,0.59946,0.02025,-0.00576,
8.46094,353.14477,36.51216,-28.86102,0.81362,2.17817,0.80940,,,0.78540,0.61851,0.02327,-0.00633,
8.46875,348.88619,61.48044,-29.03565,0.81945,2.07716,1.05234,,,0.77036,0.63699,0.02763,-0.00584,
8.47656,349.57306,84.73905,-22.81898,0.63359,2.09765,1.36689,,,0.75479,0.65513,0.03291,-0.00401,
8.48438,349.36700,91.11469,-17.68498,0.47248,2.07813,1.51110,,,0.73875,0.67288,0.03828,-0.00163,
8.49219,349.02356,92.64627,0.61578,0.09154,2.11717,1.78742,,,0.72229,0.69026,0.04287,0.00174,
8.50000,341.26195,80.39364,22.33922,-0.18167,2.19427,2.03712,,,0.70580,0.70690,0.04580,0.00563,
8.50781,332.05790,71.95216,28.45111,-0.24573,2.17671,2.13343,,,0.68939,0.72274,0.04801,0.00942,
8.51563,303.69023,58.84470,24.53950,-0.34909,2.07862,2.32651,,,0.67408,0.73687,0.04975,0.01248,
8.52344,267.42356,47.44691,7.00708,-0.40684,1.81120,2.50944,,,0.66038,0.74900,0.05180,0.01427,
8.53125,232.04982,36.26283,-6.54387,-0.40150,1.58770,2.60283,,,0.64835,0.75928,0.05398,0.01501,
8.53906,214.29426,30.81327,-10.45548,-0.37335,1.48035,2.74124,,,0.63710,0.76859,0.05610,0.01535,
8.54688,177.61547,22.94167,-17.26588,-0.32725,1.32663,2.91835,,,0.62769,0.77614,0.05818,0.01512,
8.55469,138.08617,15.14131,-26.76552,-0.43498,1.24318,3.20242,,,0.62035,0.78187,0.06039,0.01422,
8.56250,116.69021,7.94645,-32.21384,-0.47478,1.20561,3.28662,,,0.61413,0.78662,0.06255,0.01280,
8.57031,72.90233,-10.18315,-42.41197,-0.48351,1.12948,3.36453,,,0.61031,0.78947,0.06446,0.01017,
8.57813,29.08010,-29.95119,-44.12331,-0.47478,1.11338,3.31227,,,0.60892,0.79048,0.06561,0.00659,
8.58594,7.54677,-40.17358,-40.63079,-0.44178,1.10167,3.23920,,,0.60873,0.79061,0.06614,0.00270,
8.59375,-47.33404,-56.48667,-21.98077,-0.22243,3.35325,3.37082,,,0.61156,0.78853,0.06496,-0.00104,
8.60156,-327.88558,-39.10504,78.35912,0.62971,1.98639,3.89588,,,0.62922,0.77497,0.05912,0.00158,
8.60938,-418.65529,-39.67493,114.19231,0.43851,0.67273,2.34587,,,0.65122,0.75713,0.05132,0.00607,
8.61719,-430.70983,-49.57676,144.47239,0.05417,1.30858,0.98749,,,0.67324,0.73817,0.04146,0.01143,
8.62500,-426.31387,-11.07361,118.48810,0.74423,1.39397,-1.10936,,,0.69431,0.71862,0.03464,0.01751,
8.63281,-409.48559,20.09222,97.39332,0.92427,1.69067,-1.54006,,,0.71391,0.69917,0.03031,0.02407,
8.64063,-386.64720,57.13503,63.65564,0.41230,1.18267,-0.43912,,,0.73185,0.68014,0.02941,0.03068,
8.64844,-354.50174,66.75192,45.52950,0.36475,0.63808,0.50066,,,0.74783,0.66220,0.02987,0.03675,
8.65625,-329.53407,68.21226,39.17313,0.28176,0.45264,0.78376,,,0.76227,0.64513,0.03075,0.04249,
8.66406,-288.21891,47.87433,22.93294,-0.31803,0.60880,0.78182,,,0.77463,0.62993,0.03139,0.04638,
8.67188,-237.66537,0.11047,20.90728,-0.46313,0.61173,0.58002,,,0.78467,0.61734,0.02974,0.04799,
8.67969,-184.81082,-37.21728,15.94792,-0.10306,0.61514,0.58389,,,0.79241,0.60755,0.02647,0.04764,
8.68750,-156.09971,-46.72731,10.84885,0.14249,0.61368,0.54954,,,0.79887,0.59925,0.02299,0.04657,
8.69531,-106.06132,-46.40675,2.50174,0.35116,0.55122,0.46969,,,0.80325,0.59361,0.02002,0.04498,
8.70313,-61.41485,-26.88804,5.43545,0.37057,0.37310,0.65745,,,0.80575,0.59032,0.01814,0.04427,
8.71094,-39.36637,-15.73958,10.42975,0.18277,0.36627,0.65019,,,0.80732,0.58822,0.01673,0.04426,
8.71875,-9.04111,-0.60189,16.78612,0.04738,0.75959,0.45323,,,0.80763,0.58774,0.01600,0.04517,
8.72656,-7.49566,-3.70066,14.27151,-0.03415,0.89574,0.46775,,,0.80789,0.58735,0.01520,0.04582,
8.73438,-9.52192,-6.47887,13.25868,0.14783,0.75910,0.42275,,,0.80824,0.58686,0.01428,0.04630,
8.74219,-5.16030,-2.81021,7.56589,0.20849,0.75910,0.42468,,,0.80842,0.58659,0.01381,0.04661,
8.75000,2.22354,0.75160,2.92084,0.01778,0.92014,0.43146,,,0.80833,0.58671,0.01374,0.04680,
8.75781,4.00939,-0.42380,1.94294,0.08669,0.99285,0.42178,,,0.80816,0.58694,0.01365,0.04689,
8.76563,2.80737,-2.13347,0.61578,0.14104,0.91135,0.45662,,,0.80805,0.58710,0.01352,0.04683,
8.77344,5.17707,-2.73897,-4.48328,0.14831,0.96503,0.41888,,,0.80786,0.58739,0.01356,0.04647,
8.78125,4.52455,-2.81021,-6.29939,0.10367,0.97625,0.44598,,,0.80770,0.58764,0.01367,0.04601,
8.78906,1.43364,-2.98830,-9.09340,0.09542,0.94990,0.41017,,,0.80767,0.58772,0.01388,0.04539,
8.79688,1.36495,-2.13347,-7.90595,-0.00649,1.02505,0.44743,,,0.80765,0.58779,0.01408,0.04487,
8.80469,0.23162,-2.27594,-6.82327,0.01778,0.96015,0.43291,,,0.80766,0.58780,0.01423,0.04440,
8.81250,1.46798,-1.49234,-3.78478,0.10804,0.92404,0.38065,,,0.80762,0.58788,0.01430,0.04413,
8.82031,2.70434,0.03924,-4.51821,0.08911,0.95966,0.34290,,,0.80752,0.58803,0.01449,0.04388,
8.82813,1.98313,1.42834,-5.60089,0.07698,0.93917,0.44646,,,0.80746,0.58812,0.01480,0.04363,
8.83594,1.91444,1.17902,-4.83254,0.09493,0.86060,0.45178,,,0.80739,0.58822,0.01507,0.04341,
8.84375,6.07000,1.89138,-5.14686,0.04495,0.98504,0.34677,,,0.80716,0.58854,0.01539,0.04319,
8.85156,4.24980,0.68036,0.12683,0.03428,0.88061,0.38113,,,0.80699,0.58878,0.01544,0.04322,
8.85938,6.03566,0.57351,1.24444,0.03961,0.94258,0.38887,,,0.80675,0.58911,0.01544,0.04331,
8.86719,6.31040,0.60913,4.38770,0.02797,0.85865,0.43581,,,0.80648,0.58946,0.01531,0.04357,
8.87500,9.91647,0.32418,5.64500,0.05417,0.99480,0.33564,,,0.80606,0.59000,0.01514,0.04388,
8.88281,8.64576,0.50227,6.51813,0.02457,0.97235,0.38742,,,0.80570,0.59048,0.01493,0.04425,
8.89063,6.44778,-0.49503,7.67066,0.13473,0.86011,0.44598,,,0.80542,0.59085,0.01461,0.04465,
8.89844,9.57303,0.39542,5.29575,0.12454,1.00456,0.37823,,,0.80501,0.59138,0.01445,0.04494,
8.90625,7.03162,0.07486,4.66710,0.16773,0.91086,0.34629,,,0.80472,0.59177,0.01428,0.04520,
8.91406,4.93667,0.78722,0.30146,0.15899,0.89232,0.39468,,,0.80451,0.59203,0.01433,0.04524,
8.92188,3.59727,1.32149,-1.58450,0.15462,0.84694,0.34919,,,0.80437,0.59222,0.01447,0.04520,
8.92969,4.97101,1.39272,-2.17823,0.15123,0.99529,0.34484,,,0.80418,0.59249,0.01465,0.04514,
8.93750,1.50232,2.03385,-3.47046,0.09348,0.94698,0.36226,,,0.80413,0.59256,0.01491,0.04503,
8.94531,-0.35222,1.71329,-2.91165,0.03816,0.83962,0.40678,,,0.80415,0.59253,0.01512,0.04494,
8.95313,0.91848,2.06947,-1.79405,0.00273,0.89378,0.35645,,,0.80412,0.59258,0.01531,0.04492,
8.96094,2.25788,0.53789,2.18742,0.00225,0.97625,0.34580,,,0.80402,0.59270,0.01526,0.04506,
8.96875,-0.07747,-0.95807,5.61008,0.07261,0.88354,0.40629,,,0.80400,0.59270,0.01498,0.04533,
8.97656,2.32657,-0.53065,7.84529,0.03816,0.91672,0.36129,,,0.80389,0.59284,0.01464,0.04574,
8.98438,3.18515,-0.95807,8.08976,0.06485,0.94795,0.33274,,,0.80373,0.59303,0.01427,0.04614,
8.99219,1.94879,-1.70605,10.18527,0.09930,0.99187,0.42807,,,0.80363,0.59315,0.01377,0.04662,
9.00000,1.50232,-1.56358,9.45184,0.12890,0.89378,0.39758,,,0.80354,0.59324,0.01330,0.04708,
9.00781,3.49424,-1.06492,9.48677,0.07552,0.94307,0.37097,1022.693,24.8,0.80337,0.59345,0.01287,0.04755,
9.01563,1.84576,-1.70605,11.12825,-0.06326,0.84011,0.36322,,,0.80326,0.59356,0.01234,0.04809,
9.02344,7.37505,-4.02122,23.56159,-0.30153,1.06800,0.49485,,,0.80288,0.59400,0.01119,0.04921,
9.03125,6.55081,-9.43517,30.65140,0.04544,0.95478,0.37484,,,0.80252,0.59441,0.00945,0.05050,
9.03906,7.47808,-7.44056,24.46965,0.58603,0.98797,0.28144,,,0.80214,0.59486,0.00808,0.05154,
9.04688,1.50232,0.35980,2.74622,0.47102,0.89183,0.39420,,,0.80207,0.59494,0.00799,0.05170,
9.05469,0.40333,3.99285,-4.65791,0.29001,0.85182,0.43630,,,0.80207,0.59494,0.00839,0.05161,
9.06250,2.80737,5.59566,-11.78264,0.17695,1.00797,0.30031,,,0.80199,0.59507,0.00919,0.05119,
9.07031,-5.16030,5.06139,-13.94799,0.25799,0.98113,0.31967,,,0.80224,0.59476,0.01001,0.05064,
9.07813,-8.01081,6.73544,-17.12618,0.25993,0.99529,0.37968,,,0.80262,0.59429,0.01104,0.04998,
9.08594,-10.82697,9.40679,-18.52319,0.15171,1.08020,0.34435,,,0.80312,0.59365,0.01227,0.04936,
9.09375,-13.67748,11.72197,-17.85961,0.09542,1.31687,0.30903,,,0.80372,0.59284,0.01359,0.04887,
9.10156,-19.96232,12.43433,-16.81185,0.17355,1.26661,0.42565,,,0.80457,0.59169,0.01488,0.04847,
9.10938,-27.75829,15.56872,-20.82824,0.23663,1.12851,0.38210,,,0.80574,0.59009,0.01648,0.04798,
9.11719,-31.60475,20.41278,-23.62226,0.26235,1.35005,0.34822,,,0.80706,0.58826,0.01845,0.04754,
9.12500,-42.25122,25.54179,-26.83537,0.27352,1.34810,0.39274,,,0.80880,0.58582,0.02079,0.04714,
9.13281,-46.23505,27.92820,-26.27657,0.21140,1.44180,0.48711,,,0.81069,0.58314,0.02323,0.04688,
9.14063,-55.88556,29.42416,-24.98434,0.25459,1.41642,0.38597,,,0.81293,0.57991,0.02567,0.04675,
9.14844,-66.42900,31.06259,-25.54314,0.21140,1.49011,0.41307,,,0.81558,0.57608,0.02819,0.04668,
9.15625,-73.74415,31.24068,-25.15896,0.20169,1.54818,0.53163,,,0.81848,0.57182,0.03068,0.04665,
9.16406,-85.83304,31.70372,-22.57450,0.10221,1.54281,0.45517,,,0.82181,0.56687,0.03305,0.04681,
9.17188,-99.08960,28.53371,-20.93302,0.07358,1.65065,0.41888,,,0.82562,0.56117,0.03514,0.04696,
9.17969,-106.91991,27.75011,-18.20886,0.02360,1.67505,0.40629,,,0.82968,0.55500,0.03706,0.04725,
9.18750,-123.40476,24.36639,-13.42412,0.01050,1.70336,0.47114,,,0.83430,0.54789,0.03855,0.04772,
9.19531,-137.00476,23.04852,-13.24949,-0.04288,1.92686,0.42952,,,0.83936,0.53997,0.03990,0.04819,
9.20313,-146.82698,20.73335,-10.31578,-0.06472,2.01909,0.46098,,,0.84469,0.53144,0.04099,0.04876,
9.21094,-170.28355,16.81536,-7.34714,-0.04046,2.06740,0.51760,,,0.85078,0.52153,0.04165,0.04942,
9.21875,-187.97042,16.53041,-6.19462,-0.14867,2.19915,0.32016,,,0.85736,0.51052,0.04220,0.05018,
9.22656,-198.92598,13.39602,-7.03282,-0.03754,2.33823,0.23160,,,0.86419,0.49878,0.04254,0.05080,
9.23438,-230.31588,12.64804,-6.68357,-0.00940,2.48414,0.23063,,,0.87190,0.48510,0.04271,0.05150,
9.24219,-263.97244,11.22332,-13.49397,0.07601,2.72081,0.23886,,,0.88049,0.46926,0.04289,0.05183,
9.25000,-299.55225,10.97399,-18.48826,0.10513,3.02483,0.10626,,,0.88991,0.45111,0.04307,0.05193,
9.25781,-320.60477,12.64804,-21.77122,0.05757,3.22051,0.14546,,,0.89959,0.43146,0.04336,0.05193,
9.26563,-368.78861,13.82344,-18.59304,0.01195,3.15317,0.23740,,,0.91017,0.40862,0.04344,0.05227,
9.27344,-405.15831,15.03445,-12.13189,-0.15158,2.97408,0.22579,,,0.92110,0.38326,0.04325,0.05312,
9.28125,-418.93003,15.24816,-9.37280,-0.30930,3.03069,0.17159,,,0.93164,0.35675,0.04292,0.05414,
9.28906,-445.82094,1.64205,18.88163,-0.51408,3.08778,0.14497,,,0.94197,0.32835,0.04091,0.05665,
9.29688,-478.55024,-7.26247,21.11684,-0.48448,2.83842,0.04432,,,0.95211,0.29756,0.03811,0.05915,
9.30469,-493.69569,-10.71743,15.87807,-0.31512,2.74424,-0.06069,,,0.96153,0.26547,0.03508,0.06121,
9.31250,-519.07549,-12.78327,41.47819,-0.13848,2.40899,-0.38686,,,0.97017,0.23147,0.03131,0.06490,
9.32031,-522.37246,-10.78866,67.46248,-0.16711,2.15914,-0.62640,,,0.97750,0.19700,0.02720,0.07026,
9.32813,-517.25529,-9.54203,71.86305,-0.27387,1.78436,-0.81368,,,0.98350,0.16263,0.02312,0.07583,
9.33594,-478.96236,-11.85720,41.47819,-0.36704,1.00407,-1.28745,,,0.98808,0.13058,0.01938,0.07919,
9.34375,-417.62498,-17.44924,-5.14686,-1.15901,0.10715,-1.53764,,,0.99145,0.10249,0.01600,0.07921,
9.35156,-386.71589,-46.40675,-41.25945,-0.78535,-1.24360,-1.55167,,,0.99407,0.07652,0.01106,0.07649,
9.35938,-187.93608,-60.47589,-20.30437,0.52343,-3.14871,-1.57006,,,0.99511,0.06405,0.00608,0.07493,
9.36719,41.27202,-25.81949,-12.16681,0.34825,-0.77758,-1.41424,,,0.99500,0.06697,0.00459,0.07398,
9.37500,110.92051,-15.52587,14.93509,0.21965,-0.26812,-1.33487,,,0.99439,0.07458,0.00403,0.07488,
9.38281,202.75486,-0.99369,64.17952,0.09202,0.77081,-1.21292,,,0.99293,0.08835,0.00467,0.07916,
9.39063,224.28820,8.62320,63.76042,-0.19380,1.21098,-0.99709,,,0.99110,0.10350,0.00608,0.08345,
9.39844,212.06194,11.43703,28.73051,-0.40490,1.01285,-0.92111,,,0.98933,0.11778,0.00786,0.08538,
9.40625,205.46800,11.50826,5.40053,-0.45876,0.90306,-0.89837,,,0.98755,0.13157,0.00980,0.08571,
9.41406,197.36294,8.83691,-37.76693,-0.46022,0.74885,-0.82868,,,0.98590,0.14478,0.01189,0.08311,
9.42188,199.90436,1.53520,-60.88737,-0.37529,0.55219,-0.78513,,,0.98417,0.15815,0.01373,0.07886,
9.42969,207.18517,-3.62943,-62.84318,-0.33696,0.47655,-0.76723,,,0.98217,0.17200,0.01528,0.07440,
9.43750,231.01951,-16.34508,-51.87668,-0.23554,0.44679,-0.71980,,,0.97961,0.18748,0.01596,0.07049,
9.44531,258.42558,-28.74018,-35.18247,-0.19089,0.49900,-0.67189,,,0.97635,0.20481,0.01573,0.06748,
9.45313,271.40739,-34.29660,-29.59445,-0.18264,0.53463,-0.64624,,,0.97256,0.22297,0.01511,0.06473,
9.46094,293.86800,-43.80663,-29.66430,-0.15450,0.64930,-0.57801,,,0.96806,0.24258,0.01396,0.06178,
9.46875,310.14679,-49.57676,-43.32003,-0.07831,0.75080,-0.51946,,,0.96294,0.26316,0.01270,0.05779,
9.47656,316.87811,-51.25081,-52.08624,-0.03900,0.79277,-0.48848,,,0.95726,0.28406,0.01152,0.05316,
9.48438,329.68821,-51.89194,-67.03419,0.08474,0.90159,-0.42509,,,0.95090,0.30564,0.01062,0.04751,
9.49219,340.43770,-50.14665,-73.80967,0.18811,1.07044,-0.37670,,,0.94381,0.32773,0.01001,0.04142,
9.50000,344.66195,-48.61507,-73.00639,0.24052,1.15193,-0.34766,,,0.93607,0.34990,0.00948,0.03539,
9.50781,351.63366,-44.12719,-63.15750,0.32641,1.28027,-0.29975,,,0.92758,0.37231,0.00901,0.03007,
9.51563,357.91851,-37.43099,-49.95580,0.34922,1.33785,-0.26685,,,0.91833,0.39488,0.00864,0.02574,
9.52344,361.35286,-33.65547,-45.93941,0.33514,1.35981,-0.24023,,,0.90842,0.41741,0.00840,0.02174,
9.53125,368.87407,-26.24691,-45.93941,0.26187,1.43740,-0.16909,,,0.89771,0.44014,0.00863,0.01793,
9.53906,376.05185,-20.79734,-53.51817,0.18811,1.53451,-0.09263,,,0.88620,0.46300,0.00941,0.01381,
9.54688,383.16094,-18.01913,-61.48110,0.14686,1.68237,-0.00843,,,0.87386,0.48597,0.01062,0.00927,
9.55469,386.11447,-17.37801,-63.99570,0.12696,1.78388,0.04093,,,0.86081,0.50876,0.01194,0.00460,
9.56250,389.75488,-17.59172,-66.44046,0.09639,1.98395,0.16143,,,0.84702,0.53140,0.01333,-0.00022,
9.57031,389.48013,-19.26577,-66.44046,0.10173,2.18647,0.31193,,,0.83262,0.55363,0.01462,-0.00511,
9.57813,388.03771,-19.47947,-65.91659,0.15705,2.27723,0.39371,,,0.81767,0.57538,0.01585,-0.00997,
9.58594,382.71447,-15.13407,-67.76762,0.24440,2.45779,0.62454,,,0.80234,0.59643,0.01740,-0.01474,
9.59375,373.37306,-6.90629,-74.92727,0.38901,2.50073,0.88974,,,0.78683,0.61654,0.01968,-0.01956,
9.60156,368.73670,-1.24301,-78.80396,0.51275,2.44461,1.03104,,,0.77098,0.63600,0.02242,-0.02432,
9.60938,363.34478,16.35232,-84.21735,0.69133,2.44949,1.35189,,,0.75482,0.65478,0.02632,-0.02858,
9.61719,358.26195,35.55047,-81.17887,0.60981,2.43680,1.75790,,,0.73838,0.67292,0.03106,-0.03179,
9.62500,354.96498,41.42746,-75.83532,0.53314,2.43583,1.98583,,,0.72163,0.69049,0.03583,-0.03445,
9.63281,343.18518,46.66332,-57.25515,0.45210,2.37581,2.38845,,,0.70505,0.70712,0.04000,-0.03589,
9.64063,319.76295,51.11558,-38.15111,0.42638,2.16695,2.74608,,,0.68925,0.72231,0.04350,-0.03612,
9.64844,303.48416,54.14311,-32.42339,0.45889,2.01909,2.88303,,,0.67394,0.73643,0.04688,-0.03587,
9.65625,263.78315,64.11618,-32.24876,0.49868,1.73800,3.03740,,,0.66032,0.74845,0.05078,-0.03496,
9.66406,217.48820,75.83453,-35.25232,0.57875,1.56623,3.11870,,,0.64882,0.75818,0.05546,-0.03342,
9.67188,193.03567,81.17724,-33.64577,0.65057,1.49352,3.16467,,,0.63842,0.76668,0.06034,-0.03144,
9.67969,143.40940,95.63819,-18.73274,0.48024,1.32663,3.37228,,,0.63048,0.77297,0.06516,-0.02784,
9.68750,97.73263,99.05752,7.95006,-0.13945,1.07873,3.76038,,,0.62490,0.77733,0.06881,-0.02271,
9.69531,53.80738,76.54689,17.90372,-0.48351,0.88939,3.84991,,,0.62174,0.77978,0.07104,-0.01815,
9.70313,31.82758,62.05033,10.46467,-0.48497,0.86011,3.79910,,,0.61979,0.78123,0.07307,-0.01456,
9.71094,-12.68152,36.97520,-18.27871,-0.30833,0.93136,3.57552,,,0.62029,0.78061,0.07562,-0.01330,
9.71875,-52.55425,17.06468,-32.21384,-0.07248,1.05580,3.21500,,,0.62299,0.77821,0.07810,-0.01349,
9.72656,-69.00475,8.37387,-28.37207,0.00856,1.10704,3.00885,,,0.62660,0.77510,0.08002,-0.01388,
9.73438,-94.59061,-5.12539,-3.85463,0.25993,7.29815,3.40373,,,0.63165,0.77099,0.08008,-0.01379,
9.74219,-459.28357,-18.94520,46.40263,-0.25883,-2.20543,0.65164,,,0.65561,0.75107,0.07722,-0.01028,
9.75000,-401.75831,-26.49624,55.69271,-1.17648,0.81424,-0.92450,,,0.67610,0.73311,0.07345,-0.00704,
9.75781,-346.53407,-78.89045,125.01910,-0.37432,2.70227,-2.00801,,,0.69363,0.71750,0.06371,-0.00348,
9.76563,-376.65326,-66.06793,123.97134,-0.27581,2.12108,-1.09291,,,0.71209,0.69996,0.05459,0.00078,
9.77344,-382.35427,-56.84285,122.15524,0.03767,1.29198,-0.43477,,,0.73026,0.68160,0.04596,0.00542,
9.78125,-348.66336,-44.37652,105.84520,0.67920,0.35358,0.87377,,,0.74634,0.66437,0.03869,0.00973,
9.78906,-304.18861,-39.71055,65.47175,0.53168,0.58782,0.45904,,,0.76000,0.64894,0.03349,0.01206,
9.79688,-283.58255,-28.74018,51.78110,0.25799,0.76642,0.12175,,,0.77242,0.63427,0.02947,0.01412,
9.80469,-252.74214,-25.53455,45.77398,-0.12732,0.75568,0.42323,,,0.78324,0.62098,0.02590,0.01593,
9.81250,-207.92396,-27.95658,53.14318,0.03136,0.80887,0.59744,,,0.79195,0.60993,0.02193,0.01795,
9.82031,-163.75830,-23.64679,50.52379,0.07989,0.67565,0.55873,,,0.79868,0.60114,0.01835,0.01994,
