Gait Up - Physilog data export
Created on: YYYY-MM-DD hh:mm:ss
Total data points: 22091

Time [128 hz],Gyro [128 hz],,,Accel [128 hz],,,Baro [1 hz],,Event [128 hz],Quaternion [128 hz],,,,
Time,Gyro X,Gyro Y,Gyro Z,Accel X,Accel Y,Accel Z,Pressure,Temperature,Quat W,Quat X,Quat Y,Quat Z,
[s],[deg/s],[deg/s],[deg/s],[g],[g],[g],[mBar],[degree C],[],[],[],[],
0.00781,1.13107,0.60801,-1.30107,0.20374,0.96207,0.19142,1021.969,25.3,0.77307,0.61994,-0.13434,-0.00044,
0.01563,1.06179,0.46579,-1.19563,0.20423,0.96110,0.19481,,,0.77302,0.62001,-0.13426,-0.00048,
0.02344,1.13107,0.11023,-0.98476,0.20816,0.96452,0.19433,,,0.77298,0.62007,-0.13422,-0.00051,
0.03125,1.09643,0.14579,-1.01990,0.21209,0.96550,0.20014,,,0.77293,0.62014,-0.13416,-0.00055,
0.03906,1.23499,0.11023,-0.94961,0.19392,0.96843,0.20546,,,0.77288,0.62021,-0.13412,-0.00059,
0.04688,1.26963,-0.24533,-0.80902,0.20521,0.96452,0.20595,,,0.77283,0.62029,-0.13410,-0.00063,
0.05469,1.02715,-0.63644,-0.56300,0.20472,0.96647,0.19288,,,0.77278,0.62035,-0.13411,-0.00067,
0.06250,1.26963,-0.60088,-0.38727,0.20669,0.96403,0.18900,,,0.77272,0.62042,-0.13412,-0.00071,
0.07031,1.37355,-0.35199,-0.49271,0.20521,0.96159,0.20208,,,0.77266,0.62050,-0.13412,-0.00074,
0.07813,1.30427,-0.31644,-0.31697,0.20620,0.95816,0.19772,,,0.77260,0.62057,-0.13412,-0.00076,
0.08594,1.30427,-0.49422,-0.38727,0.21012,0.95621,0.19384,,,0.77254,0.62064,-0.13413,-0.00078,
0.09375,1.26963,-0.42311,-0.45756,0.20865,0.95816,0.19675,,,0.77248,0.62071,-0.13414,-0.00081,
0.10156,1.44283,-0.28088,-0.42241,0.20620,0.96110,0.20450,,,0.77242,0.62079,-0.13413,-0.00084,
0.10938,1.02715,-0.24533,-0.45756,0.20177,0.96452,0.20304,,,0.77237,0.62085,-0.13413,-0.00086,
0.11719,0.85395,-0.49422,-0.49271,0.20718,0.95621,0.19191,,,0.77233,0.62090,-0.13413,-0.00090,
0.12500,1.13107,-0.60088,-0.45756,0.21455,0.96305,0.18949,,,0.77228,0.62096,-0.13414,-0.00094,
0.13281,1.20035,-0.42311,-0.59815,0.20030,0.96110,0.19481,,,0.77222,0.62103,-0.13414,-0.00098,
0.14063,1.40819,-0.31644,-0.52785,0.20325,0.96745,0.20062,,,0.77216,0.62111,-0.13414,-0.00101,
0.14844,1.33891,-0.28088,-0.45756,0.21012,0.96696,0.19965,,,0.77210,0.62118,-0.13413,-0.00103,
0.15625,1.13107,-0.49422,-0.42241,0.20865,0.96550,0.19578,,,0.77205,0.62125,-0.13414,-0.00106,
0.16406,1.09643,-0.42311,-0.42241,0.20325,0.96550,0.18997,,,0.77200,0.62131,-0.13414,-0.00109,
0.17188,1.26963,-0.52977,-0.42241,0.21504,0.96696,0.19965,,,0.77194,0.62138,-0.13415,-0.00113,
0.17969,1.23499,-0.49422,-0.31697,0.20767,0.96892,0.19433,,,0.77188,0.62145,-0.13417,-0.00115,
0.18750,1.20035,-0.52977,-0.35212,0.20570,0.96501,0.18997,,,0.77183,0.62151,-0.13418,-0.00118,
0.19531,0.61147,-1.02755,-0.10610,0.19392,0.96110,0.18997,,,0.77179,0.62155,-0.13423,-0.00123,
0.20313,0.81931,-0.95644,-0.35212,0.20914,0.96696,0.19965,,,0.77175,0.62159,-0.13427,-0.00128,
0.21094,0.92323,-1.09867,-0.17639,0.20669,0.96794,0.19433,,,0.77170,0.62164,-0.13432,-0.00132,
0.21875,0.85395,-1.06311,-0.21154,0.20276,0.96354,0.19191,,,0.77165,0.62169,-0.13436,-0.00137,
0.22656,0.81931,-0.81422,-0.21154,0.20423,0.95719,0.19384,,,0.77161,0.62173,-0.13440,-0.00141,
0.23438,0.78467,-1.02755,-0.28183,0.19539,0.96550,0.19481,,,0.77157,0.62178,-0.13444,-0.00146,
0.24219,0.75003,-1.20533,-0.17639,0.20521,0.96256,0.20111,,,0.77152,0.62182,-0.13449,-0.00152,
0.25000,0.64611,-1.24089,-0.07095,0.21062,0.95767,0.19578,,,0.77149,0.62185,-0.13456,-0.00157,
0.25781,0.68075,-0.67200,-0.45756,0.21602,0.96403,0.18900,,,0.77145,0.62189,-0.13457,-0.00161,
0.26563,0.88859,-0.13866,-0.49271,0.21062,0.96452,0.20159,,,0.77141,0.62195,-0.13456,-0.00164,
0.27344,0.71539,-0.38755,-0.45756,0.20718,0.96843,0.20692,,,0.77138,0.62199,-0.13456,-0.00167,
0.28125,0.43828,-0.67200,-0.31697,0.21012,0.96305,0.20062,,,0.77135,0.62201,-0.13458,-0.00171,
0.28906,0.40364,-1.09867,-0.35212,0.21258,0.96452,0.18803,,,0.77133,0.62204,-0.13463,-0.00177,
0.29688,0.57683,-0.63644,-0.52785,0.20276,0.95963,0.19433,,,0.77130,0.62207,-0.13464,-0.00182,
0.30469,0.81931,-0.52977,-0.45756,0.20914,0.96012,0.19578,,,0.77126,0.62212,-0.13465,-0.00186,
0.31250,0.71539,-0.84978,-0.52785,0.20865,0.96012,0.20062,,,0.77122,0.62216,-0.13467,-0.00192,
0.32031,1.02715,-0.45866,-0.59815,0.20914,0.96207,0.18852,,,0.77117,0.62222,-0.13467,-0.00196,
0.32813,0.92323,-0.45866,-0.59815,0.20816,0.96012,0.19675,,,0.77113,0.62228,-0.13467,-0.00200,
0.33594,0.75003,-0.49422,-0.70358,0.20374,0.96110,0.20014,,,0.77109,0.62232,-0.13466,-0.00205,
0.34375,0.88859,-0.70755,-0.52785,0.20963,0.96159,0.20595,,,0.77105,0.62237,-0.13468,-0.00210,
0.35156,0.68075,-0.67200,-0.52785,0.21062,0.95572,0.19772,,,0.77101,0.62241,-0.13469,-0.00215,
0.35938,0.81931,-0.49422,-0.70358,0.19735,0.96256,0.20256,,,0.77097,0.62246,-0.13469,-0.00220,
0.36719,0.54219,-0.74311,-0.59815,0.20177,0.95963,0.19384,,,0.77094,0.62250,-0.13470,-0.00226,
0.37500,0.43828,-0.92089,-0.59815,0.20767,0.96256,0.20062,,,0.77091,0.62252,-0.13472,-0.00233,
0.38281,0.81931,-0.84978,-0.59815,0.21307,0.96110,0.20159,,,0.77087,0.62257,-0.13474,-0.00239,
0.39063,0.75003,-0.74311,-0.77388,0.20423,0.96012,0.20159,,,0.77083,0.62262,-0.13475,-0.00245,
0.39844,0.99251,-0.88533,-0.73873,0.20669,0.96501,0.19578,,,0.77078,0.62268,-0.13476,-0.00252,
0.40625,1.06179,-0.88533,-0.66844,0.21160,0.96159,0.20304,,,0.77073,0.62274,-0.13478,-0.00258,
0.41406,1.16571,-0.56533,-0.66844,0.21847,0.96159,0.19723,,,0.77067,0.62281,-0.13478,-0.00263,
0.42188,1.20035,-0.31644,-0.52785,0.20128,0.96061,0.19530,,,0.77062,0.62288,-0.13478,-0.00266,
0.42969,1.23499,-0.70755,-0.63329,0.20718,0.96159,0.19142,,,0.77056,0.62295,-0.13479,-0.00271,
0.43750,1.26963,-0.38755,-0.63329,0.20570,0.96550,0.20546,,,0.77050,0.62302,-0.13478,-0.00275,
0.44531,1.20035,-0.06755,-0.73873,0.21209,0.95914,0.19869,,,0.77045,0.62309,-0.13475,-0.00278,
0.45313,1.20035,-0.28088,-0.63329,0.20865,0.96207,0.19433,,,0.77040,0.62316,-0.13474,-0.00282,
0.46094,1.02715,-0.13866,-0.63329,0.20570,0.96452,0.20159,,,0.77035,0.62322,-0.13472,-0.00285,
0.46875,1.16571,-0.38755,-0.45756,0.20276,0.96452,0.19578,,,0.77030,0.62328,-0.13472,-0.00288,
0.47656,1.13107,-0.52977,-0.52785,0.20423,0.96061,0.19869,,,0.77025,0.62335,-0.13473,-0.00292,
0.48438,1.44283,-0.35199,-0.59815,0.21160,0.96159,0.20111,,,0.77018,0.62343,-0.13472,-0.00295,
0.49219,1.26963,0.14579,-0.56300,0.19834,0.96354,0.19239,,,0.77013,0.62350,-0.13469,-0.00296,
0.50000,1.16571,-0.20977,-0.42241,0.21749,0.96256,0.20062,,,0.77008,0.62356,-0.13469,-0.00298,
0.50781,1.82386,-0.35199,-0.35212,0.20620,0.95963,0.20546,,,0.77000,0.62366,-0.13469,-0.00300,
0.51563,1.85850,0.07468,-0.45756,0.20816,0.97136,0.20595,,,0.76992,0.62376,-0.13467,-0.00300,
0.52344,1.51211,-0.20977,-0.24668,0.19588,0.96110,0.19045,,,0.76985,0.62385,-0.13467,-0.00301,
0.53125,1.51211,-0.92089,-0.14124,0.20718,0.96012,0.19094,,,0.76978,0.62393,-0.13471,-0.00304,
0.53906,1.68530,-0.52977,-0.07095,0.21455,0.96794,0.20159,,,0.76970,0.62402,-0.13473,-0.00305,
0.54688,1.58139,-0.38755,-0.07095,0.20227,0.95865,0.19384,,,0.76963,0.62410,-0.13475,-0.00306,
0.55469,1.33891,-0.42311,0.06963,0.20423,0.96550,0.19336,,,0.76957,0.62417,-0.13478,-0.00306,
0.56250,1.26963,-0.77866,0.10478,0.20865,0.95767,0.19626,,,0.76951,0.62423,-0.13482,-0.00308,
0.57031,1.02715,-0.77866,-0.03580,0.21897,0.96012,0.19917,,,0.76946,0.62429,-0.13486,-0.00310,
0.57813,1.16571,-0.06755,-0.14124,0.20325,0.96256,0.20450,,,0.76941,0.62435,-0.13486,-0.00310,
0.58594,0.99251,-0.38755,-0.14124,0.20374,0.96305,0.19384,,,0.76936,0.62440,-0.13488,-0.00312,
0.59375,0.81931,-1.27645,-0.14124,0.21209,0.95865,0.18658,,,0.76932,0.62445,-0.13494,-0.00317,
0.60156,0.92323,-0.95644,-0.24668,0.20669,0.95914,0.18997,,,0.76927,0.62450,-0.13498,-0.00322,
0.60938,1.16571,-0.77866,-0.42241,0.20177,0.95767,0.20498,,,0.76921,0.62456,-0.13500,-0.00326,
0.61719,1.02715,-0.92089,-0.59815,0.21258,0.96256,0.19820,,,0.76916,0.62462,-0.13502,-0.00332,
0.62500,1.06179,-1.06311,-0.59815,0.21356,0.96452,0.19191,,,0.76910,0.62468,-0.13505,-0.00339,
0.63281,0.99251,-0.74311,-0.70358,0.21258,0.96256,0.19869,,,0.76905,0.62474,-0.13506,-0.00345,
0.64063,0.99251,-0.77866,-0.80902,0.20767,0.95767,0.19530,,,0.76900,0.62480,-0.13507,-0.00351,
0.64844,0.99251,-0.74311,-1.01990,0.21062,0.96452,0.20304,,,0.76895,0.62486,-0.13506,-0.00359,
0.65625,0.75003,-0.70755,-1.09019,0.20570,0.96550,0.19336,,,0.76892,0.62491,-0.13506,-0.00367,
0.66406,0.54219,-0.74311,-1.12534,0.20914,0.95914,0.18319,,,0.76889,0.62495,-0.13505,-0.00376,
0.67188,0.75003,-0.60088,-1.30107,0.21700,0.96110,0.20208,,,0.76885,0.62500,-0.13502,-0.00384,
0.67969,0.85395,-0.24533,-1.51195,0.21405,0.96990,0.20159,,,0.76881,0.62506,-0.13497,-0.00393,
0.68750,0.40364,-0.35199,-1.40651,0.19441,0.96403,0.19191,,,0.76879,0.62509,-0.13493,-0.00401,
0.69531,0.54219,-0.67200,-1.33622,0.21160,0.96501,0.19191,,,0.76876,0.62514,-0.13491,-0.00410,
0.70313,0.64611,-0.20977,-1.58224,0.21209,0.95865,0.19433,,,0.76873,0.62518,-0.13485,-0.00419,
0.71094,0.78467,-0.38755,-1.51195,0.20767,0.95572,0.20062,,,0.76869,0.62524,-0.13481,-0.00428,
0.71875,0.68075,-0.67200,-1.65254,0.20374,0.96403,0.19239,,,0.76866,0.62529,-0.13477,-0.00439,
0.72656,0.64611,-0.42311,-1.51195,0.21700,0.96599,0.20062,,,0.76862,0.62534,-0.13473,-0.00448,
0.73438,0.61147,-0.06755,-1.61739,0.21749,0.96501,0.20014,,,0.76860,0.62538,-0.13467,-0.00456,
0.74219,0.68075,0.53690,-1.61739,0.19981,0.97039,0.20256,,,0.76857,0.62543,-0.13457,-0.00462,
0.75000,0.61147,0.11023,-1.54710,0.21209,0.96745,0.20304,,,0.76855,0.62548,-0.13450,-0.00469,
0.75781,0.54219,-0.24533,-1.37137,0.20963,0.96354,0.19191,,,0.76852,0.62552,-0.13445,-0.00476,
0.76563,0.54219,0.39468,-1.51195,0.19637,0.96207,0.18997,,,0.76850,0.62556,-0.13437,-0.00482,
0.77344,0.61147,0.46579,-1.54710,0.20472,0.96159,0.19869,,,0.76848,0.62561,-0.13428,-0.00488,
0.78125,0.54219,0.21690,-1.40651,0.21307,0.96452,0.20256,,,0.76846,0.62565,-0.13421,-0.00494,
0.78906,0.23044,0.21690,-1.40651,0.21062,0.96159,0.19530,,,0.76845,0.62568,-0.13413,-0.00500,
0.79688,0.16116,0.35912,-1.47680,0.20669,0.95816,0.19578,,,0.76844,0.62570,-0.13405,-0.00506,
0.80469,0.09188,0.39468,-1.44166,0.20079,0.95914,0.19820,,,0.76844,0.62572,-0.13397,-0.00512,
0.81250,-0.01204,0.00356,-1.44166,0.21111,0.96061,0.20111,,,0.76844,0.62573,-0.13391,-0.00519,
0.82031,0.05724,-0.13866,-1.33622,0.20718,0.95914,0.20062,,,0.76844,0.62574,-0.13386,-0.00527,
0.82813,0.09188,-0.13866,-1.40651,0.21455,0.95963,0.19917,,,0.76843,0.62576,-0.13381,-0.00535,
0.83594,-0.01204,-0.20977,-1.65254,0.20079,0.96159,0.19481,,,0.76843,0.62578,-0.13375,-0.00544,
0.84375,0.05724,-0.42311,-1.79312,0.20816,0.96599,0.20304,,,0.76842,0.62580,-0.13369,-0.00555,
0.85156,0.12652,0.50135,-1.82827,0.22044,0.96550,0.20934,,,0.76842,0.62582,-0.13359,-0.00563,
0.85938,0.16116,0.67913,-1.86341,0.21504,0.96550,0.20111,,,0.76842,0.62584,-0.13347,-0.00569,
0.86719,0.29972,1.31913,-2.14459,0.20718,0.95914,0.20111,,,0.76842,0.62588,-0.13331,-0.00575,
0.87500,0.54219,1.24802,-2.07429,0.20570,0.96501,0.20159,,,0.76841,0.62593,-0.13316,-0.00580,
0.88281,0.68075,1.42580,-2.07429,0.20865,0.96256,0.20304,,,0.76839,0.62598,-0.13300,-0.00584,
0.89063,0.78467,1.71025,-1.82827,0.20570,0.96012,0.20159,,,0.76837,0.62604,-0.13283,-0.00586,
0.89844,0.85395,1.60358,-1.68768,0.19392,0.96452,0.19433,,,0.76835,0.62610,-0.13267,-0.00587,
0.90625,0.85395,1.56802,-1.68768,0.20472,0.96403,0.20692,,,0.76833,0.62616,-0.13252,-0.00588,
0.91406,0.81931,1.03468,-1.54710,0.20177,0.96256,0.20740,,,0.76830,0.62622,-0.13240,-0.00591,
0.92188,0.75003,0.96357,-1.44166,0.20718,0.95816,0.19384,,,0.76828,0.62627,-0.13229,-0.00594,
0.92969,0.61147,0.85691,-1.19563,0.19637,0.95816,0.19917,,,0.76826,0.62632,-0.13219,-0.00596,
0.93750,0.68075,0.78579,-1.23078,0.20227,0.96452,0.19723,,,0.76823,0.62636,-0.13210,-0.00598,
0.94531,0.81931,1.10580,-1.16049,0.20669,0.96550,0.20353,,,0.76821,0.62642,-0.13199,-0.00599,
0.95313,0.68075,0.67913,-0.91446,0.19785,0.96599,0.19094,,,0.76819,0.62646,-0.13192,-0.00600,
0.96094,0.78467,0.50135,-0.59815,0.20030,0.96843,0.20208,,,0.76816,0.62651,-0.13187,-0.00601,
0.96875,0.81931,0.25246,-0.49271,0.19932,0.96550,0.18900,,,0.76812,0.62656,-0.13183,-0.00601,
0.97656,0.88859,0.64357,-0.10610,0.19883,0.97479,0.20353,,,0.76809,0.62660,-0.13179,-0.00598,
0.98438,0.75003,0.32357,0.13993,0.19490,0.96207,0.19869,,,0.76806,0.62664,-0.13178,-0.00596,
0.99219,0.64611,-0.45866,0.35081,0.19293,0.95963,0.19045,,,0.76803,0.62667,-0.13182,-0.00595,
1.00000,0.57683,-1.02755,0.52654,0.20423,0.95865,0.20304,,,0.76800,0.62670,-0.13190,-0.00596,
1.00781,0.43828,-1.63200,0.45624,0.21356,0.96159,0.20837,1022.026,25.3,0.76796,0.62671,-0.13200,-0.00600,
1.01563,0.57683,-0.74311,0.52654,0.20423,0.95816,0.19191,,,0.76793,0.62674,-0.13207,-0.00600,
1.02344,0.64611,-1.20533,0.56168,0.20423,0.96501,0.20546,,,0.76789,0.62677,-0.13215,-0.00602,
1.03125,0.43828,-1.59645,0.63198,0.20276,0.96305,0.20062,,,0.76786,0.62678,-0.13226,-0.00605,
1.03906,0.12652,-0.24533,0.91315,0.20325,0.96403,0.20111,,,0.76785,0.62678,-0.13232,-0.00601,
1.04688,0.57683,-0.67200,0.98344,0.21111,0.96745,0.20062,,,0.76782,0.62680,-0.13239,-0.00598,
1.05469,0.36900,-0.95644,0.94829,0.20374,0.96941,0.20304,,,0.76780,0.62681,-0.13248,-0.00597,
1.06250,0.16116,-1.06311,0.73742,0.19981,0.95572,0.19336,,,0.76778,0.62682,-0.13257,-0.00598,
1.07031,0.16116,-1.24089,0.91315,0.21012,0.96061,0.18077,,,0.76777,0.62682,-0.13268,-0.00598,
1.07813,0.36900,-1.24089,0.52654,0.21847,0.96501,0.20401,,,0.76774,0.62683,-0.13276,-0.00600,
1.08594,0.12652,-1.31200,0.45624,0.21749,0.96207,0.20740,,,0.76772,0.62683,-0.13285,-0.00603,
1.09375,0.05724,-1.45422,0.17507,0.20423,0.95767,0.19142,,,0.76771,0.62683,-0.13293,-0.00609,
1.10156,0.29972,-1.20533,0.21022,0.21798,0.96305,0.19723,,,0.76768,0.62685,-0.13301,-0.00612,
1.10938,0.26508,-0.63644,-0.07095,0.21062,0.95816,0.19626,,,0.76767,0.62686,-0.13304,-0.00615,
1.11719,0.23044,-0.60088,-0.21154,0.21209,0.96110,0.20740,,,0.76765,0.62687,-0.13306,-0.00619,
1.12500,0.36900,-0.74311,-0.45756,0.20325,0.95621,0.20256,,,0.76763,0.62690,-0.13308,-0.00624,
1.13281,0.40364,-0.70755,-0.73873,0.22142,0.96061,0.19869,,,0.76760,0.62692,-0.13308,-0.00631,
1.14063,0.36900,-0.45866,-0.73873,0.21651,0.96305,0.21321,,,0.76758,0.62695,-0.13308,-0.00636,
1.14844,0.43828,-0.52977,-1.23078,0.21356,0.96256,0.20934,,,0.76756,0.62698,-0.13305,-0.00644,
1.15625,0.36900,-0.67200,-1.19563,0.22093,0.95963,0.19384,,,0.76754,0.62701,-0.13304,-0.00653,
1.16406,0.54219,-0.20977,-1.44166,0.21455,0.95865,0.19530,,,0.76751,0.62706,-0.13299,-0.00661,
1.17188,0.95787,0.28801,-1.58224,0.20227,0.95865,0.20643,,,0.76747,0.62712,-0.13290,-0.00667,
1.17969,1.23499,0.39468,-1.72283,0.20718,0.96305,0.20740,,,0.76742,0.62720,-0.13281,-0.00673,
1.18750,1.20035,0.39468,-1.89856,0.21602,0.96305,0.20837,,,0.76737,0.62728,-0.13271,-0.00681,
1.19531,1.33891,0.75024,-1.89856,0.20374,0.96159,0.19869,,,0.76732,0.62737,-0.13259,-0.00686,
1.20313,1.23499,1.07024,-1.93371,0.20767,0.96256,0.20256,,,0.76728,0.62745,-0.13245,-0.00691,
1.21094,1.09643,0.60801,-1.79312,0.19097,0.96061,0.20595,,,0.76724,0.62752,-0.13234,-0.00696,
1.21875,1.06179,-0.06755,-1.72283,0.21258,0.95816,0.20885,,,0.76719,0.62760,-0.13227,-0.00705,
1.22656,1.06179,-0.28088,-1.72283,0.20227,0.95767,0.20304,,,0.76714,0.62767,-0.13221,-0.00714,
1.23438,1.37355,0.18134,-1.79312,0.20669,0.95572,0.19481,,,0.76708,0.62775,-0.13213,-0.00721,
1.24219,1.65067,0.32357,-1.82827,0.21209,0.96501,0.21515,,,0.76701,0.62786,-0.13204,-0.00728,
1.25000,1.68530,-0.10310,-1.72283,0.20177,0.96159,0.21466,,,0.76694,0.62796,-0.13197,-0.00736,
1.25781,2.17026,-0.20977,-1.68768,0.20620,0.95621,0.19723,,,0.76684,0.62809,-0.13191,-0.00744,
1.26563,1.99706,-0.03199,-1.65254,0.19932,0.96745,0.20450,,,0.76676,0.62821,-0.13184,-0.00751,
1.27344,1.71994,-0.35199,-1.86341,0.20521,0.96843,0.20304,,,0.76668,0.62832,-0.13178,-0.00760,
1.28125,1.44283,-0.10310,-1.86341,0.21012,0.96305,0.20256,,,0.76662,0.62841,-0.13171,-0.00769,
1.28906,1.51211,-0.24533,-1.75798,0.20865,0.96159,0.20304,,,0.76655,0.62850,-0.13164,-0.00778,
1.29688,1.54675,-0.35199,-1.72283,0.19932,0.96305,0.19481,,,0.76648,0.62860,-0.13159,-0.00787,
1.30469,1.33891,-0.52977,-1.61739,0.19441,0.96159,0.19530,,,0.76641,0.62868,-0.13155,-0.00797,
1.31250,1.44283,-0.63644,-1.61739,0.20865,0.96305,0.20304,,,0.76635,0.62877,-0.13151,-0.00807,
1.32031,1.37355,-0.70755,-1.30107,0.20669,0.97234,0.20450,,,0.76628,0.62885,-0.13149,-0.00815,
1.32813,1.26963,-0.60088,-1.51195,0.19981,0.96305,0.19384,,,0.76622,0.62893,-0.13146,-0.00825,
1.33594,1.20035,-0.49422,-1.47680,0.20079,0.96794,0.19820,,,0.76616,0.62901,-0.13142,-0.00833,
1.34375,1.13107,-0.81422,-1.26593,0.20767,0.96305,0.19820,,,0.76611,0.62908,-0.13141,-0.00842,
1.35156,1.30427,-0.63644,-1.23078,0.21356,0.96452,0.20062,,,0.76604,0.62916,-0.13140,-0.00850,
1.35938,1.54675,-0.42311,-1.12534,0.20325,0.96159,0.20159,,,0.76597,0.62925,-0.13137,-0.00857,
1.36719,1.13107,-0.17421,-1.16049,0.19293,0.96354,0.19336,,,0.76592,0.62932,-0.13133,-0.00863,
1.37500,0.92323,-0.31644,-1.01990,0.20767,0.96452,0.20159,,,0.76588,0.62938,-0.13130,-0.00868,
1.38281,0.57683,-0.67200,-0.91446,0.20030,0.95523,0.20401,,,0.76585,0.62941,-0.13130,-0.00876,
1.39063,0.71539,-0.84978,-0.94961,0.20227,0.95865,0.19481,,,0.76581,0.62946,-0.13130,-0.00884,
1.39844,0.36900,-0.67200,-0.84417,0.19588,0.96305,0.19530,,,0.76579,0.62949,-0.13130,-0.00891,
1.40625,0.33436,-0.81422,-0.80902,0.20423,0.96745,0.19481,,,0.76576,0.62951,-0.13131,-0.00898,
1.41406,0.50755,-0.63644,-0.63329,0.20374,0.96501,0.20304,,,0.76574,0.62954,-0.13132,-0.00904,
1.42188,0.47292,-0.35199,-0.63329,0.19588,0.96354,0.19626,,,0.76571,0.62957,-0.13131,-0.00908,
1.42969,0.40364,-0.63644,-0.42241,0.20030,0.96452,0.19820,,,0.76569,0.62960,-0.13132,-0.00912,
1.43750,0.40364,-0.74311,-0.45756,0.21258,0.96354,0.20643,,,0.76566,0.62962,-0.13134,-0.00918,
1.44531,0.71539,-0.49422,-0.56300,0.20669,0.96110,0.20692,,,0.76563,0.62966,-0.13135,-0.00922,
1.45313,0.71539,-0.24533,-0.38727,0.19735,0.96452,0.20934,,,0.76560,0.62970,-0.13134,-0.00925,
1.46094,0.57683,-0.63644,-0.38727,0.20227,0.96501,0.19723,,,0.76557,0.62974,-0.13136,-0.00929,
1.46875,0.43828,-0.74311,-0.56300,0.20963,0.95767,0.19626,,,0.76554,0.62976,-0.13137,-0.00935,
1.47656,0.54219,-0.45866,-0.45756,0.21012,0.96012,0.21079,,,0.76551,0.62980,-0.13138,-0.00938,
1.48438,0.54219,-0.70755,-0.56300,0.20227,0.96354,0.20837,,,0.76548,0.62983,-0.13139,-0.00944,
1.49219,0.64611,-0.74311,-0.59815,0.20914,0.96599,0.20546,,,0.76545,0.62987,-0.13140,-0.00950,
1.50000,0.68075,-0.35199,-0.63329,0.20325,0.96012,0.20353,,,0.76541,0.62991,-0.13140,-0.00954,
1.50781,0.71539,-0.20977,-0.45756,0.19735,0.95914,0.19917,,,0.76538,0.62995,-0.13139,-0.00956,
1.51563,0.92323,-0.24533,-0.38727,0.20177,0.96354,0.20450,,,0.76534,0.63000,-0.13138,-0.00959,
1.52344,0.92323,-0.45866,-0.42241,0.20227,0.96403,0.20111,,,0.76530,0.63005,-0.13139,-0.00962,
1.53125,0.99251,-0.20977,-0.17639,0.19932,0.96012,0.19142,,,0.76525,0.63011,-0.13140,-0.00963,
1.53906,1.06179,-0.99200,-0.17639,0.20914,0.95816,0.19384,,,0.76520,0.63016,-0.13144,-0.00967,
1.54688,1.26963,-0.63644,-0.21154,0.20227,0.95425,0.20692,,,0.76514,0.63023,-0.13147,-0.00970,
1.55469,1.47747,-0.60088,-0.17639,0.21062,0.96110,0.21466,,,0.76507,0.63031,-0.13149,-0.00972,
1.56250,1.09643,-0.95644,-0.14124,0.20423,0.96354,0.19772,,,0.76501,0.63037,-0.13153,-0.00976,
1.57031,1.20035,-0.70755,-0.17639,0.20374,0.96696,0.19191,,,0.76495,0.63043,-0.13156,-0.00979,
1.57813,0.99251,-0.45866,-0.28183,0.20521,0.96550,0.20014,,,0.76491,0.63048,-0.13158,-0.00981,
1.58594,0.99251,-0.67200,-0.45756,0.20325,0.96354,0.19288,,,0.76486,0.63054,-0.13159,-0.00986,
1.59375,0.92323,-0.92089,-0.49271,0.21012,0.96403,0.19965,,,0.76481,0.63059,-0.13162,-0.00991,
1.60156,0.92323,-0.56533,-0.66844,0.21160,0.96110,0.19288,,,0.76476,0.63065,-0.13162,-0.00997,
1.60938,0.88859,-0.24533,-0.84417,0.21062,0.96599,0.20256,,,0.76472,0.63070,-0.13160,-0.01001,
1.61719,1.26963,0.14579,-1.16049,0.20570,0.96745,0.20837,,,0.76467,0.63078,-0.13154,-0.01006,
1.62500,0.99251,-0.03199,-1.16049,0.21209,0.95767,0.19481,,,0.76462,0.63084,-0.13149,-0.01011,
1.63281,1.06179,0.28801,-1.19563,0.21062,0.95865,0.19723,,,0.76458,0.63090,-0.13143,-0.01015,
1.64063,1.06179,0.32357,-1.33622,0.19834,0.96354,0.19772,,,0.76454,0.63097,-0.13136,-0.01019,
1.64844,1.23499,0.39468,-1.44166,0.20816,0.96501,0.20256,,,0.76449,0.63105,-0.13127,-0.01024,
1.65625,0.92323,-0.24533,-1.47680,0.21111,0.96647,0.20401,,,0.76444,0.63111,-0.13122,-0.01032,
1.66406,1.20035,0.35912,-1.65254,0.20816,0.96403,0.19820,,,0.76439,0.63119,-0.13113,-0.01038,
1.67188,1.02715,0.60801,-1.51195,0.19981,0.96745,0.19965,,,0.76435,0.63126,-0.13104,-0.01042,
1.67969,0.95787,0.11023,-1.47680,0.20177,0.96305,0.20450,,,0.76431,0.63132,-0.13097,-0.01049,
1.68750,1.02715,0.00356,-1.47680,0.20570,0.96501,0.20498,,,0.76427,0.63139,-0.13091,-0.01056,
1.69531,0.99251,0.03912,-1.47680,0.20079,0.96696,0.18271,,,0.76422,0.63145,-0.13084,-0.01062,
1.70313,0.78467,-0.13866,-1.19563,0.19932,0.95719,0.19288,,,0.76419,0.63150,-0.13080,-0.01068,
1.71094,0.88859,-0.13866,-1.40651,0.20227,0.96550,0.20546,,,0.76415,0.63156,-0.13075,-0.01075,
1.71875,0.88859,-0.31644,-1.40651,0.20963,0.96452,0.20740,,,0.76411,0.63162,-0.13070,-0.01083,
1.72656,0.47292,-0.28088,-1.26593,0.20620,0.96305,0.20256,,,0.76408,0.63165,-0.13066,-0.01091,
1.73438,0.54219,-0.06755,-1.37137,0.20030,0.95963,0.19239,,,0.76406,0.63170,-0.13061,-0.01098,
1.74219,0.50755,0.11023,-1.33622,0.19342,0.96794,0.20256,,,0.76403,0.63173,-0.13054,-0.01104,
1.75000,0.47292,-0.24533,-1.51195,0.20472,0.96354,0.20401,,,0.76401,0.63177,-0.13049,-0.01112,
1.75781,0.43828,-0.49422,-1.26593,0.20914,0.96061,0.19917,,,0.76399,0.63181,-0.13046,-0.01121,
1.76563,0.43828,0.03912,-1.44166,0.20669,0.96012,0.19094,,,0.76397,0.63184,-0.13040,-0.01128,
1.77344,0.47292,0.28801,-1.40651,0.19588,0.96061,0.19045,,,0.76395,0.63188,-0.13033,-0.01133,
1.78125,0.57683,0.39468,-1.44166,0.19539,0.97185,0.20304,,,0.76393,0.63192,-0.13024,-0.01138,
1.78906,0.36900,-0.10310,-1.19563,0.20423,0.96061,0.20643,,,0.76391,0.63195,-0.13020,-0.01145,
1.79688,0.54219,-0.24533,-1.19563,0.19637,0.96354,0.19384,,,0.76388,0.63199,-0.13016,-0.01152,
1.80469,0.68075,0.03912,-1.12534,0.20079,0.96354,0.19820,,,0.76385,0.63204,-0.13011,-0.01157,
1.81250,0.40364,-0.28088,-1.09019,0.19490,0.96843,0.20498,,,0.76383,0.63207,-0.13008,-0.01163,
1.82031,0.36900,-0.74311,-0.77388,0.19981,0.96256,0.19772,,,0.76381,0.63209,-0.13008,-0.01170,
1.82813,0.54219,-0.74311,-0.87932,0.20521,0.95767,0.20353,,,0.76378,0.63213,-0.13008,-0.01177,
1.83594,0.61147,-0.42311,-0.70358,0.19490,0.96207,0.20595,,,0.76375,0.63216,-0.13008,-0.01182,
1.84375,0.47292,-0.49422,-0.77388,0.19981,0.96501,0.21128,,,0.76372,0.63220,-0.13007,-0.01188,
1.85156,0.57683,-1.06311,-0.66844,0.20472,0.96012,0.20401,,,0.76369,0.63223,-0.13010,-0.01196,
1.85938,0.54219,-1.38311,-0.42241,0.21160,0.96061,0.19578,,,0.76365,0.63226,-0.13015,-0.01203,
1.86719,0.57683,-0.74311,-0.63329,0.19735,0.96061,0.20111,,,0.76362,0.63230,-0.13016,-0.01209,
1.87500,0.36900,-1.13422,-0.49271,0.19785,0.96061,0.19723,,,0.76359,0.63232,-0.13020,-0.01216,
1.88281,0.54219,-0.92089,-0.70358,0.20374,0.96110,0.20450,,,0.76356,0.63235,-0.13022,-0.01224,
1.89063,0.61147,-0.81422,-0.66844,0.21160,0.95865,0.20014,,,0.76353,0.63239,-0.13023,-0.01230,
1.89844,0.57683,-0.52977,-0.59815,0.20276,0.96892,0.20208,,,0.76350,0.63243,-0.13023,-0.01235,
1.90625,0.36900,-0.74311,-0.56300,0.19539,0.95621,0.19481,,,0.76347,0.63245,-0.13025,-0.01241,
1.91406,0.75003,-1.09867,-0.56300,0.20030,0.96696,0.20643,,,0.76343,0.63249,-0.13028,-0.01248,
1.92188,0.85395,-0.70755,-0.59815,0.20718,0.95670,0.20498,,,0.76339,0.63254,-0.13029,-0.01253,
1.92969,0.95787,-0.42311,-0.45756,0.20423,0.95914,0.19433,,,0.76334,0.63259,-0.13030,-0.01257,
1.93750,0.75003,-0.35199,-0.49271,0.18950,0.96501,0.19578,,,0.76330,0.63264,-0.13030,-0.01260,
1.94531,1.02715,-0.35199,-0.59815,0.20079,0.96452,0.20595,,,0.76326,0.63270,-0.13029,-0.01264,
1.95313,0.95787,-0.95644,-0.45756,0.20865,0.95816,0.20934,,,0.76321,0.63275,-0.13032,-0.01269,
1.96094,1.09643,-0.60088,-0.59815,0.20816,0.96501,0.21321,,,0.76315,0.63281,-0.13033,-0.01274,
1.96875,0.88859,-0.67200,-0.59815,0.20227,0.96403,0.20450,,,0.76311,0.63286,-0.13034,-0.01279,
1.97656,0.85395,-0.45866,-0.91446,0.20472,0.96794,0.19820,,,0.76307,0.63291,-0.13032,-0.01285,
1.98438,0.68075,-0.17421,-0.70358,0.20276,0.96745,0.20208,,,0.76304,0.63296,-0.13030,-0.01289,
1.99219,0.78467,-0.13866,-0.77388,0.20325,0.96647,0.19965,,,0.76300,0.63300,-0.13027,-0.01293,
2.00000,0.81931,-0.20977,-0.66844,0.20620,0.95963,0.19288,,,0.76296,0.63305,-0.13026,-0.01297,
2.00781,0.68075,-0.28088,-0.66844,0.20620,0.96207,0.19433,1022.010,25.3,0.76293,0.63309,-0.13024,-0.01301,
2.01563,0.92323,0.07468,-0.84417,0.20620,0.96599,0.20740,,,0.76289,0.63315,-0.13020,-0.01304,
2.02344,1.02715,0.35912,-0.87932,0.20374,0.96501,0.20498,,,0.76285,0.63321,-0.13015,-0.01306,
2.03125,1.02715,-0.03199,-1.01990,0.19981,0.96061,0.19481,,,0.76280,0.63327,-0.13011,-0.01311,
2.03906,1.13107,-0.06755,-0.91446,0.20374,0.96305,0.19965,,,0.76275,0.63334,-0.13007,-0.01315,
2.04688,1.20035,0.18134,-0.77388,0.20570,0.95865,0.19723,,,0.76270,0.63341,-0.13003,-0.01317,
2.05469,1.30427,0.46579,-0.70358,0.20570,0.96354,0.20353,,,0.76265,0.63348,-0.12998,-0.01317,
2.06250,1.13107,0.43024,-0.70358,0.19981,0.96061,0.20546,,,0.76260,0.63355,-0.12993,-0.01318,
2.07031,0.99251,-0.13866,-0.84417,0.20718,0.96354,0.20062,,,0.76256,0.63361,-0.12990,-0.01322,
2.07813,1.02715,0.14579,-0.66844,0.20718,0.96501,0.20595,,,0.76251,0.63367,-0.12986,-0.01324,
2.08594,1.06179,0.50135,-0.84417,0.20570,0.97234,0.20982,,,0.76247,0.63373,-0.12980,-0.01325,
2.09375,0.92323,0.25246,-0.80902,0.19392,0.96061,0.19336,,,0.76243,0.63379,-0.12975,-0.01328,
2.10156,0.75003,-0.06755,-0.84417,0.19883,0.96354,0.19820,,,0.76240,0.63383,-0.12972,-0.01332,
2.10938,0.88859,0.18134,-0.94961,0.21062,0.96354,0.19917,,,0.76236,0.63389,-0.12967,-0.01335,
2.11719,1.02715,0.60801,-0.87932,0.20325,0.95865,0.20740,,,0.76232,0.63395,-0.12960,-0.01336,
2.12500,1.09643,0.75024,-1.12534,0.20128,0.96354,0.20256,,,0.76228,0.63402,-0.12952,-0.01338,
2.13281,1.06179,0.60801,-1.12534,0.20128,0.96501,0.20256,,,0.76224,0.63408,-0.12944,-0.01340,
2.14063,1.02715,0.39468,-1.09019,0.21356,0.96305,0.19869,,,0.76220,0.63415,-0.12937,-0.01343,
2.14844,0.99251,0.71468,-1.05505,0.19785,0.97039,0.20595,,,0.76216,0.63421,-0.12929,-0.01345,
2.15625,0.92323,0.46579,-1.19563,0.19490,0.96892,0.20062,,,0.76212,0.63427,-0.12921,-0.01348,
2.16406,0.81931,0.14579,-1.23078,0.19735,0.96452,0.19869,,,0.76209,0.63432,-0.12915,-0.01353,
2.17188,0.75003,0.18134,-1.09019,0.20865,0.96110,0.19820,,,0.76205,0.63437,-0.12910,-0.01357,
2.17969,0.99251,0.50135,-1.05505,0.20570,0.96745,0.21079,,,0.76202,0.63443,-0.12903,-0.01360,
2.18750,0.99251,0.39468,-1.05505,0.19735,0.96012,0.20692,,,0.76197,0.63449,-0.12896,-0.01363,
2.19531,0.88859,-0.28088,-0.87932,0.19785,0.96256,0.20643,,,0.76193,0.63454,-0.12894,-0.01368,
2.20313,0.68075,-0.28088,-1.05505,0.19637,0.96403,0.20450,,,0.76190,0.63459,-0.12891,-0.01374,
2.21094,0.75003,-0.24533,-0.77388,0.20079,0.96061,0.20111,,,0.76186,0.63463,-0.12889,-0.01378,
2.21875,0.75003,-0.45866,-0.70358,0.19293,0.96550,0.20692,,,0.76183,0.63468,-0.12888,-0.01383,
2.22656,0.71539,-0.45866,-0.63329,0.19342,0.96305,0.20401,,,0.76179,0.63472,-0.12888,-0.01388,
2.23438,0.78467,-0.49422,-0.66844,0.19588,0.96941,0.19869,,,0.76175,0.63477,-0.12888,-0.01393,
2.24219,0.47292,-0.95644,-0.52785,0.20374,0.96207,0.19917,,,0.76172,0.63480,-0.12890,-0.01399,
2.25000,0.54219,-0.74311,-0.49271,0.20079,0.96501,0.20498,,,0.76169,0.63483,-0.12892,-0.01404,
2.25781,0.78467,-0.60088,-0.45756,0.20816,0.96892,0.20934,,,0.76165,0.63487,-0.12893,-0.01409,
2.26563,0.50755,-0.92089,-0.24668,0.20227,0.96501,0.19772,,,0.76162,0.63490,-0.12897,-0.01414,
2.27344,0.88859,-0.67200,-0.49271,0.20177,0.95914,0.19288,,,0.76158,0.63495,-0.12899,-0.01418,
2.28125,0.78467,-0.52977,-0.42241,0.19834,0.95963,0.19772,,,0.76154,0.63499,-0.12900,-0.01422,
2.28906,0.99251,-0.60088,-0.49271,0.20620,0.95865,0.20934,,,0.76149,0.63505,-0.12901,-0.01426,
2.29688,0.81931,-0.45866,-0.42241,0.20521,0.96305,0.21031,,,0.76145,0.63509,-0.12901,-0.01430,
2.30469,0.92323,-0.70755,-0.38727,0.19735,0.96305,0.19820,,,0.76140,0.63514,-0.12903,-0.01434,
2.31250,0.88859,-0.31644,-0.52785,0.19883,0.96354,0.20595,,,0.76136,0.63519,-0.12903,-0.01437,
2.32031,0.92323,-0.35199,-0.49271,0.19441,0.96647,0.20740,,,0.76132,0.63525,-0.12903,-0.01441,
2.32813,0.81931,-0.81422,-0.49271,0.20423,0.96354,0.19530,,,0.76128,0.63529,-0.12905,-0.01446,
2.33594,0.68075,-1.06311,-0.35212,0.20423,0.95719,0.19675,,,0.76124,0.63533,-0.12909,-0.01452,
2.34375,0.71539,-1.06311,-0.49271,0.20030,0.96305,0.19288,,,0.76120,0.63537,-0.12912,-0.01458,
2.35156,0.88859,-0.70755,-0.56300,0.19981,0.96647,0.21031,,,0.76115,0.63542,-0.12914,-0.01464,
2.35938,0.78467,-0.88533,-0.45756,0.20325,0.96354,0.19965,,,0.76111,0.63546,-0.12916,-0.01469,
2.36719,0.99251,-0.60088,-0.52785,0.21307,0.96550,0.20111,,,0.76106,0.63552,-0.12917,-0.01474,
2.37500,0.95787,-0.49422,-0.56300,0.20325,0.96110,0.19530,,,0.76101,0.63557,-0.12917,-0.01478,
2.38281,1.06179,-0.56533,-0.56300,0.20521,0.96647,0.20208,,,0.76096,0.63563,-0.12918,-0.01482,
2.39063,0.88859,-0.42311,-0.49271,0.20521,0.95767,0.20595,,,0.76092,0.63568,-0.12918,-0.01486,
2.39844,1.02715,-0.52977,-0.59815,0.20718,0.95621,0.19772,,,0.76087,0.63574,-0.12918,-0.01490,
2.40625,0.95787,-0.77866,-0.52785,0.20079,0.96256,0.20014,,,0.76082,0.63580,-0.12920,-0.01496,
2.41406,1.06179,-0.49422,-0.66844,0.20030,0.96159,0.20885,,,0.76077,0.63586,-0.12920,-0.01500,
2.42188,0.95787,-0.38755,-0.70358,0.20128,0.96305,0.20595,,,0.76072,0.63591,-0.12919,-0.01505,
2.42969,0.75003,-0.49422,-0.84417,0.20669,0.96599,0.19869,,,0.76069,0.63596,-0.12918,-0.01511,
2.43750,0.64611,-0.88533,-0.73873,0.21455,0.96452,0.19820,,,0.76065,0.63600,-0.12920,-0.01518,
2.44531,0.92323,-0.13866,-1.01990,0.19735,0.96990,0.19723,,,0.76061,0.63605,-0.12916,-0.01523,
2.45313,0.85395,-0.24533,-0.84417,0.21062,0.96550,0.19869,,,0.76057,0.63610,-0.12914,-0.01527,
2.46094,0.88859,-0.49422,-0.94961,0.20423,0.96794,0.19820,,,0.76052,0.63616,-0.12912,-0.01534,
2.46875,0.95787,-0.28088,-0.91446,0.20620,0.96012,0.19142,,,0.76048,0.63622,-0.12910,-0.01539,
2.47656,0.92323,-0.17421,-1.01990,0.19539,0.96256,0.19965,,,0.76043,0.63627,-0.12906,-0.01544,
2.48438,0.95787,-0.24533,-1.12534,0.20620,0.96305,0.20837,,,0.76039,0.63633,-0.12903,-0.01550,
2.49219,0.92323,-0.06755,-1.01990,0.20276,0.96354,0.20498,,,0.76035,0.63639,-0.12899,-0.01555,
2.50000,0.81931,-0.13866,-0.87932,0.20030,0.95621,0.19530,,,0.76031,0.63644,-0.12896,-0.01559,
2.50781,0.81931,-0.35199,-0.80902,0.19981,0.95474,0.20401,,,0.76027,0.63649,-0.12894,-0.01564,
2.51563,0.81931,-0.38755,-0.77388,0.20177,0.96354,0.19917,,,0.76023,0.63654,-0.12893,-0.01569,
2.52344,0.95787,-0.24533,-0.77388,0.20276,0.96256,0.20498,,,0.76019,0.63659,-0.12891,-0.01574,
2.53125,0.95787,-0.45866,-0.70358,0.19981,0.96843,0.20304,,,0.76014,0.63665,-0.12891,-0.01578,
2.53906,1.02715,-0.35199,-0.56300,0.19441,0.96159,0.19965,,,0.76009,0.63671,-0.12890,-0.01582,
2.54688,1.02715,-0.03199,-0.59815,0.20177,0.97136,0.21128,,,0.76005,0.63676,-0.12888,-0.01584,
2.55469,0.61147,-0.24533,-0.45756,0.20423,0.96403,0.20014,,,0.76002,0.63680,-0.12887,-0.01587,
2.56250,0.95787,-0.60088,-0.42241,0.20374,0.96794,0.19772,,,0.75997,0.63685,-0.12888,-0.01591,
2.57031,0.61147,-0.81422,-0.45756,0.19441,0.95914,0.19772,,,0.75994,0.63689,-0.12891,-0.01596,
2.57813,0.61147,-0.99200,-0.42241,0.20669,0.96452,0.19723,,,0.75990,0.63692,-0.12894,-0.01602,
2.58594,0.75003,-0.95644,-0.31697,0.20718,0.96452,0.20159,,,0.75986,0.63696,-0.12898,-0.01608,
2.59375,0.95787,-0.52977,-0.45756,0.20816,0.96305,0.20885,,,0.75981,0.63702,-0.12899,-0.01611,
2.60156,0.78467,-0.24533,-0.49271,0.19637,0.96256,0.19965,,,0.75977,0.63706,-0.12898,-0.01614,
2.60938,0.68075,-0.49422,-0.66844,0.20030,0.96403,0.19578,,,0.75974,0.63710,-0.12898,-0.01619,
2.61719,0.71539,-0.52977,-0.70358,0.20767,0.96599,0.20546,,,0.75970,0.63714,-0.12897,-0.01625,
2.62500,0.81931,-0.17421,-0.77388,0.21062,0.96696,0.20789,,,0.75967,0.63719,-0.12895,-0.01629,
2.63281,0.61147,-0.28088,-0.66844,0.20325,0.96207,0.19530,,,0.75964,0.63723,-0.12894,-0.01633,
2.64063,0.81931,-0.20977,-0.91446,0.20128,0.96696,0.19578,,,0.75960,0.63728,-0.12891,-0.01638,
2.64844,0.78467,-0.20977,-0.91446,0.20669,0.96501,0.20740,,,0.75956,0.63733,-0.12888,-0.01643,
2.65625,0.85395,0.07468,-0.80902,0.20177,0.97087,0.21370,,,0.75952,0.63738,-0.12884,-0.01646,
2.66406,0.57683,-0.28088,-0.84417,0.19883,0.96403,0.20934,,,0.75949,0.63742,-0.12882,-0.01651,
2.67188,0.57683,-0.35199,-0.94961,0.19441,0.97332,0.19965,,,0.75947,0.63745,-0.12880,-0.01657,
2.67969,0.43828,-0.84978,-0.80902,0.21012,0.96207,0.19626,,,0.75944,0.63748,-0.12881,-0.01664,
2.68750,0.75003,-0.45866,-0.91446,0.20079,0.96550,0.19772,,,0.75940,0.63753,-0.12879,-0.01670,
2.69531,0.68075,-0.20977,-1.01990,0.20030,0.96696,0.19626,,,0.75937,0.63757,-0.12876,-0.01676,
2.70313,0.57683,-0.31644,-0.91446,0.20177,0.96550,0.19578,,,0.75934,0.63761,-0.12874,-0.01682,
2.71094,0.47292,-0.38755,-0.94961,0.20669,0.95914,0.19530,,,0.75931,0.63764,-0.12872,-0.01688,
2.71875,0.68075,-0.10310,-1.01990,0.19981,0.96501,0.20304,,,0.75928,0.63769,-0.12868,-0.01693,
2.72656,0.61147,-0.17421,-1.05505,0.19588,0.96599,0.20837,,,0.75925,0.63773,-0.12864,-0.01699,
2.73438,0.43828,-0.63644,-1.01990,0.20325,0.96256,0.19772,,,0.75923,0.63776,-0.12863,-0.01706,
2.74219,0.43828,-0.28088,-0.94961,0.20030,0.95328,0.19481,,,0.75920,0.63779,-0.12860,-0.01712,
2.75000,0.57683,-0.28088,-0.94961,0.19981,0.95767,0.19965,,,0.75918,0.63783,-0.12858,-0.01718,
2.75781,0.75003,-0.17421,-1.01990,0.19735,0.96110,0.20934,,,0.75914,0.63788,-0.12854,-0.01723,
2.76563,0.78467,-0.38755,-1.01990,0.20570,0.96501,0.20498,,,0.75910,0.63792,-0.12852,-0.01729,
2.77344,0.81931,-0.10310,-0.77388,0.20227,0.96745,0.19820,,,0.75906,0.63797,-0.12849,-0.01733,
2.78125,0.85395,-0.06755,-0.77388,0.20276,0.96599,0.20692,,,0.75903,0.63802,-0.12846,-0.01737,
2.78906,0.78467,-0.20977,-0.80902,0.19735,0.96354,0.20643,,,0.75899,0.63807,-0.12844,-0.01741,
2.79688,0.71539,-0.45866,-0.77388,0.20816,0.96794,0.19965,,,0.75895,0.63812,-0.12843,-0.01746,
2.80469,0.88859,-0.49422,-0.63329,0.20030,0.96256,0.19820,,,0.75891,0.63817,-0.12843,-0.01751,
2.81250,0.85395,-0.31644,-0.66844,0.19834,0.96452,0.19336,,,0.75887,0.63822,-0.12842,-0.01755,
2.82031,0.75003,-0.38755,-0.77388,0.19883,0.96354,0.20934,,,0.75883,0.63826,-0.12841,-0.01760,
2.82813,0.64611,-0.92089,-0.66844,0.20718,0.96403,0.20450,,,0.75879,0.63830,-0.12843,-0.01767,
2.83594,0.47292,-1.09867,-0.80902,0.20472,0.95474,0.20208,,,0.75876,0.63833,-0.12845,-0.01776,
2.84375,0.50755,-1.02755,-0.87932,0.20128,0.96110,0.19869,,,0.75873,0.63836,-0.12846,-0.01784,
2.85156,0.43828,-0.60088,-0.98476,0.19539,0.96305,0.20837,,,0.75871,0.63839,-0.12845,-0.01791,
2.85938,0.61147,-0.88533,-0.94961,0.21111,0.96159,0.20498,,,0.75867,0.63843,-0.12846,-0.01800,
2.86719,0.71539,-0.88533,-0.84417,0.20914,0.95914,0.19481,,,0.75863,0.63847,-0.12847,-0.01807,
2.87500,0.95787,-0.38755,-1.01990,0.19785,0.96110,0.20546,,,0.75858,0.63853,-0.12844,-0.01813,
2.88281,0.85395,-0.03199,-1.12534,0.20030,0.96354,0.20643,,,0.75855,0.63859,-0.12840,-0.01819,
2.89063,0.61147,-0.35199,-0.98476,0.20227,0.97283,0.21128,,,0.75851,0.63863,-0.12837,-0.01825,
2.89844,0.85395,-0.28088,-0.87932,0.20963,0.96354,0.21273,,,0.75847,0.63868,-0.12835,-0.01830,
2.90625,0.78467,-0.24533,-0.98476,0.20325,0.96354,0.19675,,,0.75844,0.63873,-0.12832,-0.01835,
2.91406,0.64611,-0.28088,-1.05505,0.20227,0.96159,0.19772,,,0.75840,0.63877,-0.12829,-0.01841,
2.92188,0.57683,-0.60088,-0.80902,0.20227,0.96550,0.19675,,,0.75837,0.63880,-0.12829,-0.01848,
2.92969,0.54219,-0.38755,-0.94961,0.20620,0.96012,0.20304,,,0.75834,0.63884,-0.12827,-0.01854,
2.93750,0.61147,-0.31644,-1.01990,0.19637,0.96305,0.19965,,,0.75831,0.63888,-0.12824,-0.01860,
2.94531,0.54219,-0.77866,-0.94961,0.19735,0.96550,0.20498,,,0.75828,0.63892,-0.12824,-0.01868,
2.95313,0.61147,-0.84978,-1.05505,0.20570,0.95963,0.21031,,,0.75825,0.63896,-0.12824,-0.01876,
2.96094,0.78467,-0.45866,-0.94961,0.21111,0.95963,0.20692,,,0.75821,0.63900,-0.12822,-0.01882,
2.96875,0.61147,-0.49422,-0.94961,0.20177,0.95865,0.20208,,,0.75818,0.63904,-0.12821,-0.01889,
2.97656,0.85395,-0.38755,-1.09019,0.19883,0.96305,0.20014,,,0.75813,0.63910,-0.12818,-0.01896,
2.98438,0.71539,-0.35199,-0.87932,0.20030,0.96550,0.20353,,,0.75810,0.63914,-0.12816,-0.01901,
2.99219,0.81931,-0.35199,-0.91446,0.20620,0.96843,0.20643,,,0.75806,0.63919,-0.12814,-0.01907,
3.00000,0.85395,-0.17421,-0.84417,0.20325,0.96794,0.20643,,,0.75802,0.63924,-0.12811,-0.01911,
3.00781,0.71539,-0.35199,-0.80902,0.19883,0.96550,0.20643,1021.997,25.3,0.75798,0.63928,-0.12810,-0.01916,
3.01563,0.71539,-0.77866,-0.91446,0.19981,0.96745,0.20789,,,0.75794,0.63933,-0.12810,-0.01924,
3.02344,0.81931,-0.31644,-0.84417,0.20276,0.96110,0.20740,,,0.75790,0.63938,-0.12808,-0.01929,
3.03125,0.75003,-0.28088,-0.73873,0.19735,0.96403,0.19820,,,0.75787,0.63942,-0.12806,-0.01933,
3.03906,0.64611,-0.45866,-0.77388,0.19097,0.95865,0.19917,,,0.75784,0.63946,-0.12805,-0.01938,
3.04688,0.64611,-0.60088,-0.73873,0.20374,0.96354,0.19336,,,0.75780,0.63950,-0.12805,-0.01944,
3.05469,0.88859,-0.24533,-0.63329,0.20767,0.96207,0.20982,,,0.75776,0.63955,-0.12804,-0.01948,
3.06250,0.68075,-0.03199,-0.73873,0.20227,0.96354,0.20740,,,0.75773,0.63959,-0.12801,-0.01951,
3.07031,0.81931,-0.24533,-0.66844,0.19490,0.97039,0.20256,,,0.75769,0.63964,-0.12800,-0.01955,
3.07813,0.57683,-0.49422,-0.59815,0.20472,0.96550,0.20111,,,0.75766,0.63968,-0.12800,-0.01960,
3.08594,0.68075,-0.45866,-0.66844,0.20374,0.96207,0.20982,,,0.75762,0.63972,-0.12799,-0.01965,
3.09375,0.81931,0.11023,-0.66844,0.19342,0.96745,0.20740,,,0.75759,0.63976,-0.12796,-0.01967,
3.10156,0.78467,-0.13866,-0.73873,0.19392,0.96745,0.20208,,,0.75755,0.63981,-0.12793,-0.01971,
3.10938,0.64611,-0.84978,-0.66844,0.20521,0.96550,0.19336,,,0.75752,0.63985,-0.12795,-0.01977,
3.11719,0.81931,-0.49422,-0.66844,0.21160,0.96696,0.21273,,,0.75748,0.63990,-0.12795,-0.01982,
3.12500,0.99251,0.28801,-0.77388,0.19735,0.96745,0.20353,,,0.75743,0.63996,-0.12790,-0.01984,
3.13281,0.95787,0.18134,-0.77388,0.20227,0.96452,0.20643,,,0.75739,0.64001,-0.12786,-0.01986,
3.14063,0.75003,-0.17421,-0.70358,0.20276,0.96207,0.20208,,,0.75736,0.64006,-0.12784,-0.01990,
3.14844,0.57683,-0.28088,-0.59815,0.20325,0.95963,0.19723,,,0.75733,0.64009,-0.12783,-0.01994,
3.15625,0.68075,-0.20977,-0.87932,0.20423,0.96550,0.19675,,,0.75730,0.64013,-0.12780,-0.01999,
3.16406,0.78467,-0.24533,-0.91446,0.20177,0.95963,0.20401,,,0.75726,0.64018,-0.12777,-0.02004,
3.17188,0.68075,-0.38755,-0.91446,0.20325,0.96159,0.19288,,,0.75722,0.64022,-0.12775,-0.02010,
3.17969,0.85395,-0.31644,-0.80902,0.20177,0.95670,0.20353,,,0.75718,0.64027,-0.12774,-0.02014,
3.18750,0.92323,-0.06755,-0.84417,0.20374,0.96647,0.21224,,,0.75714,0.64033,-0.12770,-0.02018,
3.19531,0.85395,-0.03199,-0.84417,0.20177,0.96647,0.20450,,,0.75710,0.64038,-0.12767,-0.02022,
3.20313,0.71539,-0.10310,-0.77388,0.19637,0.95963,0.20159,,,0.75707,0.64042,-0.12764,-0.02026,
3.21094,0.85395,-0.56533,-0.91446,0.20521,0.96501,0.20304,,,0.75703,0.64048,-0.12763,-0.02032,
3.21875,0.85395,-0.10310,-0.80902,0.19637,0.96256,0.20401,,,0.75699,0.64053,-0.12760,-0.02036,
3.22656,0.85395,0.11023,-0.91446,0.20325,0.96207,0.20353,,,0.75695,0.64058,-0.12756,-0.02040,
3.23438,0.92323,-0.10310,-0.66844,0.20227,0.96159,0.20837,,,0.75691,0.64063,-0.12754,-0.02043,
3.24219,0.99251,-0.03199,-0.66844,0.20620,0.96061,0.20062,,,0.75686,0.64069,-0.12751,-0.02045,
3.25000,0.92323,-0.17421,-0.49271,0.20570,0.96012,0.20304,,,0.75682,0.64074,-0.12750,-0.02048,
3.25781,1.16571,0.03912,-0.87932,0.19686,0.96941,0.21176,,,0.75677,0.64081,-0.12746,-0.02051,
3.26563,0.92323,-0.38755,-0.73873,0.20669,0.96354,0.19626,,,0.75672,0.64086,-0.12745,-0.02056,
3.27344,0.61147,-0.20977,-0.70358,0.20276,0.96110,0.19045,,,0.75669,0.64090,-0.12743,-0.02060,
3.28125,0.81931,-0.24533,-0.80902,0.19981,0.95572,0.19578,,,0.75665,0.64095,-0.12741,-0.02065,
3.28906,1.02715,-0.20977,-0.77388,0.20079,0.96354,0.20789,,,0.75661,0.64101,-0.12739,-0.02069,
3.29688,0.71539,-0.20977,-0.87932,0.20374,0.96745,0.20789,,,0.75657,0.64105,-0.12736,-0.02073,
3.30469,0.81931,-0.45866,-0.70358,0.20374,0.96892,0.20740,,,0.75653,0.64110,-0.12736,-0.02078,
3.31250,0.75003,-0.45866,-0.80902,0.20030,0.96256,0.19675,,,0.75649,0.64114,-0.12735,-0.02084,
3.32031,0.85395,-0.45866,-0.77388,0.19342,0.96305,0.21224,,,0.75645,0.64119,-0.12734,-0.02089,
3.32813,0.85395,-0.70755,-0.84417,0.19883,0.96647,0.20740,,,0.75641,0.64124,-0.12734,-0.02096,
3.33594,0.95787,-0.67200,-0.63329,0.20570,0.95474,0.20062,,,0.75636,0.64130,-0.12735,-0.02101,
3.34375,1.02715,-0.28088,-0.70358,0.19981,0.96256,0.20498,,,0.75631,0.64136,-0.12733,-0.02105,
3.35156,1.02715,0.11023,-0.73873,0.19097,0.95719,0.20643,,,0.75627,0.64142,-0.12729,-0.02108,
3.35938,0.99251,-0.17421,-0.59815,0.20030,0.96843,0.20546,,,0.75622,0.64147,-0.12728,-0.02111,
3.36719,0.95787,-0.35199,-0.70358,0.20620,0.96305,0.20208,,,0.75617,0.64153,-0.12727,-0.02115,
3.37500,0.92323,-0.42311,-0.66844,0.20865,0.95963,0.19578,,,0.75613,0.64158,-0.12726,-0.02119,
3.38281,0.54219,-0.24533,-0.63329,0.20177,0.95523,0.19723,,,0.75610,0.64161,-0.12725,-0.02123,
3.39063,0.75003,-0.13866,-0.77388,0.20423,0.96794,0.19578,,,0.75607,0.64166,-0.12722,-0.02127,
3.39844,0.78467,-0.24533,-0.59815,0.20963,0.96403,0.20595,,,0.75603,0.64170,-0.12721,-0.02131,
3.40625,0.92323,-0.56533,-0.70358,0.20521,0.95914,0.19869,,,0.75598,0.64176,-0.12721,-0.02136,
3.41406,0.78467,-0.17421,-0.77388,0.19392,0.96012,0.20256,,,0.75595,0.64180,-0.12719,-0.02140,
3.42188,0.81931,-0.17421,-0.84417,0.19539,0.96599,0.20692,,,0.75591,0.64185,-0.12716,-0.02144,
3.42969,0.85395,-0.45866,-0.70358,0.20423,0.96647,0.21031,,,0.75587,0.64190,-0.12715,-0.02149,
3.43750,0.75003,-0.74311,-0.59815,0.20620,0.95719,0.20159,,,0.75583,0.64194,-0.12717,-0.02155,
3.44531,0.71539,-0.42311,-0.70358,0.19195,0.96012,0.20256,,,0.75579,0.64199,-0.12716,-0.02160,
3.45313,0.68075,-0.56533,-0.63329,0.19932,0.96256,0.19384,,,0.75575,0.64203,-0.12716,-0.02165,
3.46094,0.85395,-0.67200,-0.52785,0.20423,0.96501,0.20643,,,0.75571,0.64207,-0.12717,-0.02170,
3.46875,0.92323,-0.49422,-0.70358,0.20816,0.96990,0.20789,,,0.75566,0.64213,-0.12717,-0.02175,
3.47656,0.81931,-0.06755,-0.63329,0.19735,0.96647,0.20546,,,0.75563,0.64217,-0.12715,-0.02178,
3.48438,0.64611,-0.31644,-0.70358,0.19293,0.97039,0.20595,,,0.75559,0.64221,-0.12713,-0.02182,
3.49219,0.61147,-0.60088,-0.73873,0.20767,0.95914,0.20304,,,0.75556,0.64225,-0.12713,-0.02188,
3.50000,0.85395,-0.45866,-0.66844,0.20669,0.95425,0.19626,,,0.75552,0.64230,-0.12713,-0.02193,
3.50781,0.68075,-0.10310,-0.73873,0.20030,0.95865,0.19433,,,0.75549,0.64234,-0.12710,-0.02196,
3.51563,0.64611,-0.20977,-0.70358,0.19637,0.95865,0.19433,,,0.75546,0.64238,-0.12708,-0.02200,
3.52344,0.78467,-0.06755,-0.70358,0.20423,0.96501,0.20643,,,0.75542,0.64243,-0.12706,-0.02204,
3.53125,0.85395,0.11023,-0.70358,0.20128,0.95719,0.20692,,,0.75538,0.64248,-0.12702,-0.02206,
3.53906,0.81931,-0.13866,-0.77388,0.19686,0.96159,0.21224,,,0.75535,0.64252,-0.12700,-0.02210,
3.54688,0.61147,-0.10310,-0.84417,0.18802,0.96256,0.20837,,,0.75532,0.64256,-0.12697,-0.02214,
3.55469,0.81931,-0.56533,-0.56300,0.20325,0.96403,0.19965,,,0.75527,0.64261,-0.12697,-0.02219,
3.56250,0.81931,-0.20977,-0.56300,0.20276,0.95865,0.20401,,,0.75524,0.64266,-0.12696,-0.02222,
3.57031,0.92323,-0.13866,-0.77388,0.20423,0.96452,0.20111,,,0.75519,0.64271,-0.12693,-0.02226,
3.57813,0.85395,-0.38755,-0.63329,0.19490,0.96110,0.20159,,,0.75515,0.64276,-0.12693,-0.02230,
3.58594,0.81931,-0.35199,-0.66844,0.20374,0.96501,0.20789,,,0.75511,0.64281,-0.12692,-0.02234,
3.59375,1.23499,-0.06755,-0.56300,0.20374,0.96696,0.21031,,,0.75506,0.64287,-0.12690,-0.02236,
3.60156,0.95787,0.00356,-0.59815,0.19981,0.96207,0.20595,,,0.75501,0.64293,-0.12687,-0.02239,
3.60938,1.02715,-0.28088,-0.66844,0.19834,0.96207,0.20014,,,0.75497,0.64299,-0.12686,-0.02242,
3.61719,0.85395,-0.13866,-0.56300,0.20816,0.96256,0.20159,,,0.75493,0.64304,-0.12684,-0.02245,
3.62500,0.88859,-0.13866,-0.52785,0.20767,0.96696,0.20111,,,0.75488,0.64309,-0.12683,-0.02248,
3.63281,0.99251,-0.24533,-0.42241,0.20128,0.96207,0.20837,,,0.75484,0.64314,-0.12682,-0.02250,
3.64063,1.13107,-0.49422,-0.77388,0.19834,0.96550,0.20643,,,0.75478,0.64320,-0.12682,-0.02255,
3.64844,0.78467,-0.20977,-0.56300,0.20177,0.96110,0.19481,,,0.75475,0.64325,-0.12680,-0.02258,
3.65625,0.85395,-0.06755,-0.66844,0.20325,0.95914,0.20740,,,0.75471,0.64330,-0.12678,-0.02261,
3.66406,1.06179,0.35912,-0.73873,0.20227,0.97185,0.21273,,,0.75466,0.64336,-0.12673,-0.02263,
3.67188,0.81931,-0.10310,-0.63329,0.19735,0.96452,0.20014,,,0.75463,0.64341,-0.12671,-0.02266,
3.67969,0.75003,-0.67200,-0.70358,0.21012,0.95963,0.19578,,,0.75459,0.64345,-0.12671,-0.02272,
3.68750,0.68075,-0.06755,-0.87932,0.20276,0.96256,0.20208,,,0.75455,0.64349,-0.12668,-0.02276,
3.69531,0.88859,0.14579,-0.77388,0.20079,0.96452,0.19869,,,0.75451,0.64355,-0.12664,-0.02278,
3.70313,0.75003,-0.20977,-0.77388,0.20128,0.96354,0.20256,,,0.75448,0.64359,-0.12662,-0.02283,
3.71094,0.81931,-0.38755,-0.73873,0.20816,0.96256,0.20159,,,0.75444,0.64364,-0.12661,-0.02288,
3.71875,0.78467,0.03912,-0.87932,0.20521,0.96012,0.20304,,,0.75440,0.64369,-0.12657,-0.02291,
3.72656,0.81931,0.35912,-0.98476,0.19588,0.96061,0.19869,,,0.75437,0.64374,-0.12651,-0.02294,
3.73438,0.64611,0.32357,-1.01990,0.19932,0.96403,0.20595,,,0.75434,0.64378,-0.12645,-0.02297,
3.74219,0.68075,-0.20977,-1.05505,0.20128,0.96061,0.19191,,,0.75431,0.64382,-0.12641,-0.02303,
3.75000,0.81931,0.07468,-1.12534,0.20914,0.96159,0.19965,,,0.75427,0.64388,-0.12636,-0.02308,
3.75781,0.95787,0.39468,-1.26593,0.20030,0.96550,0.21709,,,0.75423,0.64394,-0.12629,-0.02312,
3.76563,0.88859,-0.03199,-1.23078,0.20914,0.96403,0.21466,,,0.75419,0.64399,-0.12624,-0.02317,
3.77344,0.78467,0.35912,-1.23078,0.20276,0.96550,0.20256,,,0.75416,0.64404,-0.12616,-0.02321,
3.78125,0.75003,0.14579,-1.30107,0.20128,0.96256,0.19820,,,0.75412,0.64409,-0.12610,-0.02327,
3.78906,0.95787,0.18134,-1.09019,0.19735,0.96305,0.20692,,,0.75408,0.64415,-0.12605,-0.02331,
3.79688,0.78467,0.43024,-1.30107,0.19490,0.96550,0.20062,,,0.75405,0.64420,-0.12597,-0.02335,
3.80469,0.99251,0.18134,-1.23078,0.20030,0.96892,0.20692,,,0.75400,0.64427,-0.12591,-0.02340,
3.81250,0.95787,-0.17421,-0.98476,0.20177,0.96012,0.20304,,,0.75396,0.64432,-0.12587,-0.02345,
3.82031,1.02715,0.07468,-1.01990,0.20079,0.96305,0.20692,,,0.75391,0.64439,-0.12583,-0.02349,
3.82813,0.95787,0.25246,-1.09019,0.19588,0.96550,0.21031,,,0.75387,0.64444,-0.12577,-0.02352,
3.83594,0.75003,0.00356,-0.94961,0.20865,0.96696,0.21224,,,0.75384,0.64449,-0.12573,-0.02357,
3.84375,0.75003,-0.24533,-0.84417,0.20472,0.96110,0.19530,,,0.75380,0.64454,-0.12570,-0.02361,
3.85156,0.78467,0.18134,-0.91446,0.19735,0.96207,0.19917,,,0.75377,0.64458,-0.12565,-0.02365,
3.85938,0.71539,-0.13866,-1.01990,0.19342,0.96061,0.20498,,,0.75373,0.64463,-0.12562,-0.02370,
3.86719,0.81931,-0.24533,-0.87932,0.20570,0.96256,0.20885,,,0.75369,0.64468,-0.12559,-0.02375,
3.87500,0.78467,-0.28088,-1.01990,0.20521,0.96061,0.20595,,,0.75365,0.64473,-0.12556,-0.02380,
3.88281,0.92323,-0.10310,-1.01990,0.19637,0.96892,0.20401,,,0.75361,0.64478,-0.12553,-0.02385,
3.89063,0.71539,0.21690,-1.05505,0.19048,0.96599,0.20934,,,0.75358,0.64483,-0.12547,-0.02389,
3.89844,0.88859,-0.52977,-1.01990,0.20718,0.96696,0.20789,,,0.75353,0.64488,-0.12545,-0.02396,
3.90625,0.95787,-0.45866,-1.01990,0.20079,0.96354,0.18949,,,0.75349,0.64494,-0.12543,-0.02402,
3.91406,0.99251,-0.10310,-0.91446,0.19293,0.96256,0.19626,,,0.75344,0.64500,-0.12540,-0.02407,
3.92188,0.81931,-0.38755,-0.94961,0.19735,0.96941,0.20353,,,0.75340,0.64505,-0.12538,-0.02413,
3.92969,0.99251,-0.38755,-0.73873,0.20276,0.96745,0.20934,,,0.75335,0.64510,-0.12537,-0.02417,
3.93750,0.99251,-0.03199,-0.70358,0.20030,0.96012,0.20498,,,0.75331,0.64516,-0.12534,-0.02420,
3.94531,0.99251,-0.38755,-0.59815,0.20030,0.96354,0.20450,,,0.75326,0.64522,-0.12534,-0.02424,
3.95313,0.85395,-0.52977,-0.59815,0.19785,0.96599,0.20498,,,0.75322,0.64526,-0.12534,-0.02429,
3.96094,0.61147,-0.56533,-0.45756,0.19588,0.96794,0.20885,,,0.75318,0.64530,-0.12535,-0.02433,
3.96875,0.71539,-0.56533,-0.52785,0.19195,0.96207,0.20450,,,0.75315,0.64534,-0.12536,-0.02438,
3.97656,0.95787,-0.84978,-0.59815,0.19686,0.96354,0.20111,,,0.75310,0.64539,-0.12537,-0.02444,
3.98438,0.68075,-1.16978,-0.38727,0.19735,0.96110,0.19917,,,0.75305,0.64543,-0.12542,-0.02450,
3.99219,0.85395,-1.09867,-0.59815,0.20227,0.96550,0.20934,,,0.75301,0.64548,-0.12545,-0.02457,
4.00000,0.99251,-0.74311,-0.59815,0.20620,0.96354,0.20401,,,0.75296,0.64553,-0.12546,-0.02463,
4.00781,1.16571,-0.38755,-0.56300,0.20079,0.96207,0.20740,1022.012,25.3,0.75290,0.64559,-0.12546,-0.02466,
4.01563,1.02715,-0.74311,-0.59815,0.19932,0.96305,0.20208,,,0.75285,0.64565,-0.12547,-0.02472,
4.02344,0.92323,-0.77866,-0.63329,0.19785,0.96696,0.20208,,,0.75280,0.64570,-0.12549,-0.02478,
4.03125,0.81931,-0.95644,-0.52785,0.20079,0.96599,0.20546,,,0.75275,0.64575,-0.12552,-0.02484,
4.03906,0.81931,-0.84978,-0.66844,0.19785,0.95963,0.19433,,,0.75271,0.64579,-0.12553,-0.02491,
4.04688,0.64611,-0.95644,-0.77388,0.20227,0.95963,0.19626,,,0.75267,0.64583,-0.12555,-0.02498,
4.05469,0.71539,-0.95644,-0.77388,0.20276,0.96794,0.20546,,,0.75263,0.64587,-0.12556,-0.02506,
4.06250,0.47292,-0.84978,-0.80902,0.20718,0.96452,0.21128,,,0.75260,0.64590,-0.12557,-0.02513,
4.07031,0.61147,-0.13866,-0.94961,0.20177,0.95963,0.20595,,,0.75257,0.64594,-0.12554,-0.02518,
4.07813,0.40364,-0.49422,-0.80902,0.19637,0.96452,0.19772,,,0.75255,0.64597,-0.12553,-0.02524,
4.08594,0.40364,-0.70755,-0.98476,0.19735,0.96256,0.19917,,,0.75252,0.64600,-0.12552,-0.02532,
4.09375,0.40364,-0.49422,-1.19563,0.20177,0.96305,0.20256,,,0.75250,0.64603,-0.12550,-0.02540,
4.10156,0.64611,-0.20977,-1.23078,0.20276,0.95767,0.20643,,,0.75247,0.64607,-0.12545,-0.02547,
4.10938,0.57683,-0.17421,-1.09019,0.19637,0.96256,0.20595,,,0.75244,0.64611,-0.12542,-0.02552,
4.11719,0.61147,-0.45866,-1.09019,0.20816,0.96061,0.20111,,,0.75241,0.64615,-0.12539,-0.02560,
4.12500,0.71539,-0.24533,-1.16049,0.20177,0.96110,0.20546,,,0.75237,0.64619,-0.12536,-0.02566,
4.13281,0.71539,0.11023,-1.23078,0.19637,0.96159,0.21031,,,0.75234,0.64624,-0.12530,-0.02571,
4.14063,0.57683,-0.10310,-1.16049,0.19785,0.96305,0.20643,,,0.75231,0.64628,-0.12525,-0.02577,
4.14844,0.64611,-0.38755,-1.16049,0.19981,0.96159,0.19578,,,0.75228,0.64632,-0.12522,-0.02584,
4.15625,0.68075,-0.49422,-1.05505,0.20030,0.95767,0.19723,,,0.75224,0.64637,-0.12520,-0.02591,
4.16406,0.61147,-0.24533,-1.01990,0.20570,0.96501,0.20353,,,0.75221,0.64641,-0.12517,-0.02597,
4.17188,0.54219,-0.38755,-1.12534,0.20423,0.96305,0.21273,,,0.75218,0.64644,-0.12514,-0.02604,
4.17969,0.75003,-0.28088,-0.98476,0.19441,0.96354,0.20837,,,0.75214,0.64649,-0.12511,-0.02610,
4.18750,0.64611,-0.28088,-0.98476,0.20325,0.96550,0.20401,,,0.75211,0.64653,-0.12509,-0.02615,
4.19531,0.78467,-0.31644,-0.77388,0.19539,0.95914,0.21224,,,0.75207,0.64658,-0.12507,-0.02620,
4.20313,0.81931,-0.38755,-1.01990,0.20521,0.96354,0.20304,,,0.75203,0.64663,-0.12505,-0.02626,
4.21094,0.71539,-0.52977,-0.84417,0.19637,0.95865,0.19336,,,0.75199,0.64667,-0.12504,-0.02632,
4.21875,0.88859,-0.52977,-0.70358,0.20276,0.96745,0.19869,,,0.75195,0.64672,-0.12504,-0.02638,
4.22656,0.81931,-0.24533,-0.66844,0.19637,0.96159,0.21031,,,0.75191,0.64677,-0.12502,-0.02641,
4.23438,0.78467,-0.38755,-0.73873,0.19490,0.96550,0.21273,,,0.75187,0.64681,-0.12501,-0.02646,
4.24219,0.85395,-0.74311,-0.59815,0.20079,0.96941,0.21418,,,0.75182,0.64686,-0.12502,-0.02652,
4.25000,0.68075,-1.02755,-0.56300,0.20767,0.96110,0.20111,,,0.75178,0.64690,-0.12505,-0.02659,
4.25781,0.99251,-0.56533,-0.63329,0.20177,0.96012,0.20885,,,0.75173,0.64695,-0.12505,-0.02663,
4.26563,1.13107,-0.31644,-0.73873,0.19539,0.96696,0.20111,,,0.75168,0.64702,-0.12504,-0.02668,
4.27344,1.06179,-0.38755,-0.70358,0.19981,0.96647,0.20304,,,0.75163,0.64708,-0.12503,-0.02672,
4.28125,1.09643,-0.49422,-0.49271,0.19392,0.96647,0.20014,,,0.75158,0.64714,-0.12504,-0.02676,
4.28906,0.99251,-0.20977,-0.73873,0.20079,0.96061,0.20837,,,0.75153,0.64719,-0.12502,-0.02680,
4.29688,1.02715,-0.17421,-0.70358,0.19588,0.96256,0.20885,,,0.75148,0.64725,-0.12500,-0.02683,
4.30469,0.99251,-0.20977,-0.73873,0.20276,0.96550,0.20595,,,0.75143,0.64731,-0.12498,-0.02687,
4.31250,1.02715,-0.38755,-0.59815,0.20227,0.96207,0.19191,,,0.75138,0.64736,-0.12497,-0.02691,
4.32031,0.95787,-0.10310,-0.80902,0.19785,0.96305,0.19723,,,0.75134,0.64742,-0.12494,-0.02695,
4.32813,0.81931,-0.35199,-0.77388,0.20030,0.96599,0.20256,,,0.75130,0.64747,-0.12493,-0.02700,
4.33594,0.92323,-0.45866,-0.63329,0.20227,0.96256,0.20256,,,0.75125,0.64752,-0.12493,-0.02704,
4.34375,0.99251,-0.49422,-0.73873,0.20767,0.96159,0.20111,,,0.75120,0.64758,-0.12492,-0.02709,
4.35156,1.06179,-0.24533,-0.66844,0.19048,0.97087,0.20401,,,0.75115,0.64764,-0.12490,-0.02713,
4.35938,0.85395,-0.13866,-0.73873,0.19785,0.96061,0.20740,,,0.75111,0.64768,-0.12488,-0.02716,
4.36719,0.78467,-0.20977,-0.84417,0.21062,0.96745,0.21370,,,0.75108,0.64773,-0.12486,-0.02721,
4.37500,0.54219,-0.31644,-0.66844,0.20325,0.95865,0.19820,,,0.75105,0.64776,-0.12484,-0.02725,
4.38281,0.92323,-0.06755,-0.77388,0.19637,0.95865,0.19820,,,0.75100,0.64782,-0.12481,-0.02729,
4.39063,0.75003,-0.42311,-0.91446,0.19490,0.96256,0.19917,,,0.75097,0.64786,-0.12480,-0.02735,
4.39844,0.81931,0.03912,-0.87932,0.20128,0.96207,0.20740,,,0.75093,0.64791,-0.12476,-0.02738,
4.40625,0.88859,0.03912,-0.87932,0.21012,0.96403,0.20789,,,0.75089,0.64797,-0.12472,-0.02742,
4.41406,0.78467,0.25246,-0.91446,0.19834,0.95767,0.20498,,,0.75085,0.64801,-0.12467,-0.02745,
4.42188,0.81931,0.11023,-0.94961,0.19097,0.96305,0.20740,,,0.75082,0.64806,-0.12462,-0.02749,
4.42969,0.78467,0.00356,-0.84417,0.19785,0.96452,0.21079,,,0.75078,0.64811,-0.12459,-0.02752,
4.43750,0.95787,-0.03199,-0.77388,0.20276,0.96892,0.19917,,,0.75074,0.64817,-0.12455,-0.02755,
4.44531,0.75003,-0.03199,-0.70358,0.19048,0.95767,0.20450,,,0.75070,0.64821,-0.12453,-0.02759,
4.45313,0.95787,-0.38755,-0.70358,0.19195,0.96550,0.19869,,,0.75066,0.64827,-0.12452,-0.02763,
4.46094,0.95787,-0.35199,-0.63329,0.20079,0.97381,0.21128,,,0.75061,0.64832,-0.12451,-0.02767,
4.46875,0.85395,-0.35199,-0.42241,0.19883,0.96159,0.20401,,,0.75057,0.64837,-0.12451,-0.02770,
4.47656,0.92323,-0.17421,-0.38727,0.20128,0.96941,0.21176,,,0.75052,0.64842,-0.12450,-0.02772,
4.48438,0.85395,-0.49422,-0.35212,0.19342,0.96501,0.19626,,,0.75048,0.64846,-0.12451,-0.02775,
4.49219,0.75003,-0.67200,-0.21154,0.20227,0.96696,0.19869,,,0.75044,0.64850,-0.12454,-0.02779,
4.50000,0.92323,-0.17421,-0.38727,0.20620,0.96305,0.19869,,,0.75040,0.64855,-0.12453,-0.02781,
4.50781,1.13107,-0.24533,-0.42241,0.20128,0.95865,0.20934,,,0.75035,0.64861,-0.12453,-0.02783,
4.51563,0.92323,-0.60088,-0.52785,0.19195,0.96110,0.20111,,,0.75030,0.64866,-0.12454,-0.02787,
4.52344,0.78467,-0.63644,-0.56300,0.20718,0.96256,0.21176,,,0.75026,0.64871,-0.12455,-0.02792,
4.53125,0.95787,-0.60088,-0.59815,0.20276,0.96501,0.21176,,,0.75021,0.64876,-0.12456,-0.02797,
4.53906,1.02715,0.07468,-0.70358,0.20128,0.96550,0.21660,,,0.75016,0.64882,-0.12452,-0.02800,
4.54688,0.92323,-0.28088,-0.63329,0.19785,0.96452,0.20208,,,0.75012,0.64887,-0.12451,-0.02803,
4.55469,0.88859,-0.60088,-0.63329,0.20669,0.95474,0.19820,,,0.75007,0.64892,-0.12451,-0.02809,
4.56250,0.99251,-0.28088,-0.49271,0.19588,0.96256,0.20692,,,0.75003,0.64897,-0.12451,-0.02812,
4.57031,1.13107,-0.06755,-0.56300,0.19441,0.96305,0.21128,,,0.74998,0.64904,-0.12449,-0.02814,
4.57813,1.20035,-0.42311,-0.56300,0.19785,0.96354,0.20885,,,0.74992,0.64910,-0.12449,-0.02817,
4.58594,0.95787,-0.49422,-0.56300,0.19932,0.96990,0.20353,,,0.74987,0.64915,-0.12449,-0.02822,
4.59375,1.02715,-0.35199,-0.56300,0.20374,0.96012,0.20401,,,0.74982,0.64921,-0.12449,-0.02825,
4.60156,1.23499,-0.31644,-0.49271,0.19588,0.96892,0.20692,,,0.74976,0.64928,-0.12448,-0.02828,
4.60938,1.09643,-0.42311,-0.52785,0.19588,0.96354,0.19820,,,0.74971,0.64934,-0.12448,-0.02832,
4.61719,0.68075,-0.95644,-0.59815,0.20423,0.96696,0.19578,,,0.74967,0.64937,-0.12451,-0.02839,
4.62500,0.64611,-0.56533,-0.70358,0.19883,0.95865,0.19578,,,0.74964,0.64941,-0.12451,-0.02844,
4.63281,0.88859,-0.49422,-0.66844,0.20570,0.96305,0.20643,,,0.74959,0.64946,-0.12450,-0.02849,
4.64063,1.02715,-0.17421,-0.91446,0.20177,0.96892,0.21515,,,0.74954,0.64952,-0.12447,-0.02853,
4.64844,0.78467,-0.28088,-0.84417,0.20227,0.96794,0.20498,,,0.74950,0.64957,-0.12445,-0.02858,
4.65625,0.50755,-0.10310,-0.80902,0.20669,0.96501,0.19917,,,0.74948,0.64960,-0.12442,-0.02863,
4.66406,0.78467,0.03912,-0.94961,0.19637,0.96354,0.20740,,,0.74944,0.64965,-0.12438,-0.02867,
4.67188,0.85395,0.39468,-1.16049,0.19686,0.97087,0.20256,,,0.74941,0.64970,-0.12431,-0.02870,
4.67969,0.81931,-0.17421,-1.12534,0.19588,0.96256,0.19820,,,0.74937,0.64975,-0.12427,-0.02876,
4.68750,0.68075,-0.20977,-0.98476,0.20030,0.95914,0.20353,,,0.74933,0.64980,-0.12424,-0.02881,
4.69531,0.81931,0.14579,-1.01990,0.20423,0.96354,0.21660,,,0.74929,0.64985,-0.12419,-0.02885,
4.70313,0.88859,0.07468,-1.19563,0.19932,0.96012,0.20789,,,0.74925,0.64990,-0.12413,-0.02890,
4.71094,0.64611,-0.24533,-0.94961,0.19834,0.96256,0.21128,,,0.74922,0.64994,-0.12411,-0.02895,
4.71875,0.75003,-0.31644,-1.05505,0.19981,0.96647,0.20595,,,0.74918,0.64999,-0.12408,-0.02902,
4.72656,0.61147,-0.13866,-1.01990,0.19785,0.96305,0.20062,,,0.74915,0.65003,-0.12404,-0.02907,
4.73438,0.71539,-0.28088,-1.01990,0.19048,0.96061,0.20789,,,0.74912,0.65007,-0.12401,-0.02913,
4.74219,0.75003,-0.56533,-0.87932,0.20521,0.96403,0.20546,,,0.74908,0.65012,-0.12400,-0.02919,
4.75000,0.68075,-0.31644,-1.09019,0.20472,0.96550,0.19626,,,0.74904,0.65016,-0.12397,-0.02925,
4.75781,0.81931,-0.13866,-0.94961,0.20620,0.96207,0.21273,,,0.74900,0.65021,-0.12394,-0.02930,
4.76563,0.99251,-0.35199,-1.01990,0.19932,0.96599,0.21321,,,0.74895,0.65027,-0.12391,-0.02936,
4.77344,0.71539,-0.31644,-0.87932,0.20030,0.96207,0.20789,,,0.74892,0.65031,-0.12389,-0.02941,
4.78125,0.68075,-0.52977,-0.73873,0.19981,0.96452,0.20208,,,0.74888,0.65035,-0.12389,-0.02947,
4.78906,0.50755,-0.28088,-1.01990,0.20325,0.96061,0.19675,,,0.74885,0.65039,-0.12386,-0.02953,
4.79688,0.81931,-0.03199,-0.91446,0.18507,0.95621,0.20498,,,0.74882,0.65044,-0.12382,-0.02957,
4.80469,1.09643,0.07468,-1.09019,0.19293,0.96941,0.20692,,,0.74877,0.65050,-0.12377,-0.02961,
4.81250,0.78467,-0.28088,-0.73873,0.20472,0.96061,0.21031,,,0.74873,0.65055,-0.12375,-0.02966,
4.82031,0.85395,-0.17421,-0.94961,0.20669,0.96403,0.20740,,,0.74869,0.65060,-0.12372,-0.02971,
4.82813,0.78467,-0.03199,-0.77388,0.19588,0.96256,0.20643,,,0.74865,0.65065,-0.12369,-0.02974,
4.83594,1.02715,-0.17421,-0.91446,0.19981,0.96647,0.21370,,,0.74860,0.65070,-0.12366,-0.02979,
4.84375,0.78467,-0.63644,-0.77388,0.20079,0.95914,0.19772,,,0.74856,0.65075,-0.12366,-0.02985,
4.85156,0.81931,-0.28088,-0.63329,0.19293,0.96061,0.19384,,,0.74852,0.65080,-0.12365,-0.02989,
4.85938,0.61147,-0.74311,-0.73873,0.19392,0.95719,0.19578,,,0.74848,0.65083,-0.12366,-0.02995,
4.86719,0.85395,-0.67200,-0.70358,0.19735,0.96305,0.20740,,,0.74844,0.65088,-0.12366,-0.03001,
4.87500,0.71539,-0.77866,-0.56300,0.20472,0.96501,0.20353,,,0.74840,0.65092,-0.12368,-0.03007,
4.88281,0.81931,-0.63644,-0.63329,0.20816,0.96452,0.20353,,,0.74836,0.65097,-0.12368,-0.03012,
4.89063,0.85395,-0.56533,-0.63329,0.19834,0.95865,0.19626,,,0.74831,0.65101,-0.12369,-0.03017,
4.89844,0.81931,-0.63644,-0.66844,0.19342,0.96794,0.20498,,,0.74827,0.65106,-0.12369,-0.03023,
4.90625,0.99251,-0.49422,-0.66844,0.20669,0.96403,0.20111,,,0.74822,0.65111,-0.12369,-0.03027,
4.91406,0.99251,-0.60088,-0.56300,0.20177,0.95767,0.20546,,,0.74817,0.65117,-0.12369,-0.03032,
4.92188,1.13107,-0.17421,-0.91446,0.19441,0.95963,0.19869,,,0.74812,0.65123,-0.12367,-0.03037,
4.92969,0.99251,-0.20977,-0.91446,0.20325,0.96941,0.21079,,,0.74807,0.65129,-0.12364,-0.03041,
4.93750,0.75003,-0.13866,-1.01990,0.20423,0.96794,0.20982,,,0.74803,0.65134,-0.12360,-0.03046,
4.94531,0.78467,-0.10310,-0.84417,0.20620,0.96892,0.21031,,,0.74800,0.65138,-0.12357,-0.03051,
4.95313,0.61147,-0.10310,-0.87932,0.19146,0.96159,0.20353,,,0.74797,0.65142,-0.12354,-0.03055,
4.96094,0.61147,-0.38755,-0.98476,0.19637,0.96305,0.19820,,,0.74793,0.65146,-0.12352,-0.03061,
4.96875,0.50755,-0.74311,-0.98476,0.20718,0.96061,0.20014,,,0.74790,0.65149,-0.12351,-0.03069,
4.97656,0.64611,-0.20977,-1.01990,0.20374,0.96501,0.20885,,,0.74787,0.65154,-0.12348,-0.03075,
4.98438,0.64611,-0.03199,-0.91446,0.19342,0.96256,0.20934,,,0.74784,0.65158,-0.12344,-0.03079,
4.99219,0.64611,-0.38755,-1.01990,0.19981,0.96061,0.20982,,,0.74781,0.65162,-0.12342,-0.03085,
5.00000,0.81931,-0.20977,-1.09019,0.20374,0.97039,0.21612,,,0.74776,0.65167,-0.12338,-0.03091,
5.00781,0.71539,-0.06755,-0.98476,0.20177,0.96305,0.21031,1022.003,25.3,0.74773,0.65171,-0.12334,-0.03096,
5.01563,0.78467,-0.28088,-0.91446,0.19588,0.96012,0.19384,,,0.74769,0.65176,-0.12332,-0.03101,
5.02344,0.64611,-0.49422,-0.84417,0.19490,0.95572,0.20014,,,0.74766,0.65180,-0.12331,-0.03107,
5.03125,0.57683,-0.56533,-0.87932,0.20669,0.96452,0.19481,,,0.74762,0.65183,-0.12330,-0.03114,
5.03906,0.61147,-0.10310,-0.87932,0.20177,0.96550,0.20885,,,0.74759,0.65187,-0.12326,-0.03118,
5.04688,0.75003,0.00356,-1.05505,0.20227,0.96207,0.20546,,,0.74756,0.65192,-0.12322,-0.03123,
5.05469,0.68075,-0.24533,-1.09019,0.19637,0.96452,0.21176,,,0.74752,0.65196,-0.12318,-0.03129,
5.06250,0.75003,-0.31644,-1.01990,0.19932,0.96110,0.20837,,,0.74749,0.65201,-0.12316,-0.03135,
5.07031,0.68075,0.18134,-1.05505,0.20276,0.96403,0.21321,,,0.74746,0.65205,-0.12310,-0.03139,
5.07813,0.75003,-0.06755,-1.01990,0.20227,0.96012,0.19965,,,0.74742,0.65210,-0.12306,-0.03144,
5.08594,0.78467,-0.06755,-0.98476,0.19588,0.96256,0.20111,,,0.74738,0.65215,-0.12302,-0.03148,
5.09375,0.64611,-0.28088,-0.94961,0.19637,0.96452,0.20014,,,0.74735,0.65219,-0.12300,-0.03154,
5.10156,0.88859,-0.06755,-1.09019,0.20177,0.96501,0.20643,,,0.74731,0.65224,-0.12295,-0.03159,
5.10938,0.85395,-0.06755,-1.05505,0.19392,0.96794,0.20837,,,0.74727,0.65229,-0.12291,-0.03164,
5.11719,0.88859,-0.38755,-0.94961,0.19932,0.95816,0.21079,,,0.74722,0.65234,-0.12289,-0.03170,
5.12500,0.78467,-0.24533,-1.01990,0.19097,0.96550,0.20740,,,0.74718,0.65239,-0.12286,-0.03175,
5.13281,0.92323,-0.38755,-0.91446,0.19539,0.96256,0.20643,,,0.74714,0.65245,-0.12284,-0.03181,
5.14063,0.92323,-0.17421,-0.91446,0.19883,0.96403,0.20546,,,0.74709,0.65250,-0.12281,-0.03186,
5.14844,1.02715,-0.17421,-0.87932,0.18950,0.96061,0.20304,,,0.74704,0.65256,-0.12278,-0.03190,
5.15625,0.78467,-0.81422,-0.80902,0.18900,0.96110,0.20159,,,0.74700,0.65260,-0.12279,-0.03197,
5.16406,0.88859,-0.67200,-0.80902,0.20374,0.96403,0.20643,,,0.74695,0.65265,-0.12279,-0.03203,
5.17188,1.09643,-0.31644,-0.80902,0.20325,0.96354,0.21515,,,0.74690,0.65272,-0.12277,-0.03208,
5.17969,1.20035,-0.24533,-0.94961,0.19735,0.96647,0.21466,,,0.74684,0.65279,-0.12275,-0.03213,
5.18750,0.75003,-0.60088,-0.91446,0.19588,0.96012,0.19481,,,0.74680,0.65283,-0.12274,-0.03220,
5.19531,0.81931,-0.63644,-0.73873,0.20472,0.96696,0.19869,,,0.74676,0.65288,-0.12274,-0.03225,
5.20313,0.81931,-0.35199,-0.84417,0.19244,0.96159,0.20546,,,0.74672,0.65292,-0.12272,-0.03231,
5.21094,1.02715,-0.35199,-0.87932,0.19490,0.96696,0.20304,,,0.74667,0.65298,-0.12270,-0.03236,
5.21875,0.85395,-0.67200,-0.77388,0.19785,0.96843,0.20256,,,0.74662,0.65303,-0.12270,-0.03242,
5.22656,0.81931,-0.67200,-0.70358,0.19490,0.96599,0.20789,,,0.74658,0.65308,-0.12271,-0.03248,
5.23438,0.88859,-0.31644,-0.84417,0.20374,0.96256,0.21273,,,0.74653,0.65313,-0.12269,-0.03253,
5.24219,0.92323,-0.35199,-0.98476,0.19883,0.96061,0.20740,,,0.74649,0.65318,-0.12267,-0.03259,
5.25000,0.81931,-0.95644,-0.80902,0.19735,0.96256,0.19965,,,0.74644,0.65323,-0.12268,-0.03266,
5.25781,0.64611,-0.74311,-0.91446,0.19195,0.95963,0.20546,,,0.74640,0.65327,-0.12268,-0.03274,
5.26563,0.64611,-0.60088,-0.73873,0.19637,0.96012,0.19965,,,0.74637,0.65331,-0.12268,-0.03280,
5.27344,0.64611,-0.52977,-0.87932,0.19146,0.96354,0.21370,,,0.74633,0.65334,-0.12267,-0.03286,
5.28125,0.75003,-0.92089,-0.87932,0.19588,0.96599,0.20837,,,0.74629,0.65339,-0.12268,-0.03294,
5.28906,0.54219,-0.63644,-0.91446,0.20227,0.96696,0.20595,,,0.74626,0.65342,-0.12267,-0.03301,
5.29688,0.47292,-0.81422,-0.84417,0.19342,0.96159,0.20934,,,0.74623,0.65345,-0.12267,-0.03308,
5.30469,0.47292,-0.49422,-0.87932,0.19146,0.96941,0.20740,,,0.74620,0.65348,-0.12266,-0.03315,
5.31250,0.40364,-0.77866,-0.87932,0.19883,0.96941,0.19869,,,0.74618,0.65351,-0.12266,-0.03322,
5.32031,0.33436,-0.74311,-1.05505,0.19785,0.96354,0.19142,,,0.74615,0.65353,-0.12265,-0.03331,
5.32813,0.50755,-0.38755,-1.16049,0.19883,0.96207,0.19239,,,0.74612,0.65357,-0.12262,-0.03338,
5.33594,0.54219,-0.17421,-1.19563,0.20128,0.96305,0.20740,,,0.74610,0.65360,-0.12258,-0.03344,
5.34375,0.57683,-0.28088,-1.33622,0.19686,0.96696,0.21176,,,0.74607,0.65364,-0.12254,-0.03352,
5.35156,0.50755,-0.60088,-1.19563,0.20276,0.96599,0.21079,,,0.74604,0.65368,-0.12252,-0.03360,
5.35938,0.33436,-0.81422,-1.16049,0.20227,0.96256,0.20256,,,0.74601,0.65370,-0.12251,-0.03369,
5.36719,0.40364,-0.38755,-1.23078,0.19637,0.96354,0.20450,,,0.74599,0.65373,-0.12247,-0.03377,
5.37500,0.26508,-0.31644,-1.26593,0.19735,0.96647,0.20643,,,0.74597,0.65375,-0.12243,-0.03385,
5.38281,0.05724,-0.52977,-1.23078,0.19392,0.96745,0.20401,,,0.74596,0.65377,-0.12240,-0.03393,
5.39063,-0.01204,-0.67200,-1.16049,0.20767,0.96207,0.20789,,,0.74595,0.65377,-0.12239,-0.03402,
5.39844,0.16116,-0.99200,-1.30107,0.21012,0.96990,0.20740,,,0.74593,0.65379,-0.12238,-0.03413,
5.40625,0.19580,0.39468,-1.68768,0.18999,0.96843,0.21031,,,0.74592,0.65381,-0.12228,-0.03420,
5.41406,-0.28916,-0.45866,-1.33622,0.20374,0.96892,0.20595,,,0.74593,0.65381,-0.12225,-0.03429,
5.42188,-0.35844,-1.27645,-1.23078,0.20030,0.95963,0.18949,,,0.74593,0.65380,-0.12226,-0.03441,
5.42969,-0.28916,-0.42311,-1.65254,0.19588,0.95865,0.20256,,,0.74594,0.65380,-0.12220,-0.03452,
5.43750,-0.35844,-0.56533,-1.58224,0.19293,0.96452,0.21079,,,0.74595,0.65379,-0.12216,-0.03462,
5.44531,-0.63556,-0.63644,-1.75798,0.19392,0.96599,0.20885,,,0.74597,0.65377,-0.12211,-0.03475,
5.45313,-0.87803,-0.74311,-1.68768,0.20177,0.96452,0.20546,,,0.74599,0.65374,-0.12208,-0.03487,
5.46094,-1.01659,-0.77866,-1.68768,0.20177,0.96354,0.20546,,,0.74603,0.65370,-0.12204,-0.03500,
5.46875,-0.87803,-0.49422,-2.21488,0.21111,0.96501,0.21031,,,0.74606,0.65367,-0.12196,-0.03514,
5.47656,-0.60092,0.89246,-2.39061,0.20276,0.96941,0.21370,,,0.74609,0.65366,-0.12181,-0.03523,
5.48438,-0.67020,1.28358,-2.46090,0.20423,0.96745,0.20159,,,0.74612,0.65365,-0.12163,-0.03531,
5.49219,-0.63556,1.24802,-2.25002,0.22044,0.96696,0.19723,,,0.74616,0.65364,-0.12147,-0.03537,
5.50000,-0.18524,4.16360,-2.49605,0.18409,0.96501,0.19045,,,0.74619,0.65366,-0.12114,-0.03531,
5.50781,-0.01204,3.45248,-2.35546,0.19441,0.96794,0.20401,,,0.74622,0.65369,-0.12086,-0.03528,
5.51563,-0.01204,2.13692,-2.32032,0.19195,0.96892,0.20934,,,0.74623,0.65371,-0.12065,-0.03530,
5.52344,-0.08132,2.03025,-1.96885,0.18360,0.95719,0.21079,,,0.74624,0.65373,-0.12046,-0.03531,
5.53125,-0.11596,1.78136,-1.79312,0.19048,0.95963,0.21418,,,0.74626,0.65374,-0.12029,-0.03532,
5.53906,0.12652,1.60358,-1.40651,0.18507,0.95767,0.21999,,,0.74626,0.65376,-0.12014,-0.03532,
5.54688,0.05724,1.10580,-1.23078,0.18458,0.96403,0.21757,,,0.74627,0.65378,-0.12003,-0.03534,
5.55469,0.05724,0.78579,-0.66844,0.18655,0.95621,0.21273,,,0.74627,0.65379,-0.11996,-0.03533,
5.56250,0.36900,0.75024,-0.07095,0.19097,0.96012,0.21370,,,0.74626,0.65381,-0.11992,-0.03530,
5.57031,0.43828,1.10580,0.17507,0.18458,0.95767,0.22677,,,0.74625,0.65383,-0.11988,-0.03524,
5.57813,1.02715,0.89246,0.56168,0.19048,0.96647,0.22532,,,0.74621,0.65388,-0.11986,-0.03516,
5.58594,1.26963,0.32357,1.12403,0.18557,0.96256,0.20789,,,0.74616,0.65394,-0.11989,-0.03508,
5.59375,1.26963,0.50135,1.51064,0.17476,0.96647,0.20595,,,0.74611,0.65399,-0.11994,-0.03497,
5.60156,1.06179,-0.28088,2.07298,0.18704,0.96599,0.21370,,,0.74607,0.65403,-0.12005,-0.03487,
5.60938,1.44283,-0.49422,2.60017,0.19342,0.96256,0.21660,,,0.74601,0.65408,-0.12019,-0.03475,
5.61719,1.71994,-0.31644,3.02193,0.19588,0.96110,0.21321,,,0.74593,0.65414,-0.12035,-0.03459,
5.62500,1.71994,0.25246,3.44368,0.18213,0.96941,0.20789,,,0.74587,0.65420,-0.12049,-0.03439,
5.63281,1.65067,0.46579,3.72486,0.18753,0.97234,0.21031,,,0.74581,0.65426,-0.12064,-0.03417,
5.64063,1.37355,-0.60088,4.28720,0.19048,0.95963,0.20401,,,0.74575,0.65429,-0.12086,-0.03397,
5.64844,1.65067,0.21690,4.46293,0.19932,0.96403,0.20692,,,0.74569,0.65434,-0.12106,-0.03372,
5.65625,1.47747,0.28801,4.70895,0.19195,0.96110,0.19965,,,0.74564,0.65437,-0.12126,-0.03345,
5.66406,1.20035,0.21690,5.16586,0.19293,0.96647,0.20498,,,0.74560,0.65439,-0.12148,-0.03317,
5.67188,1.20035,-0.20977,5.27130,0.20079,0.96159,0.18949,,,0.74555,0.65441,-0.12173,-0.03290,
5.67969,1.40819,0.07468,5.27130,0.19146,0.95865,0.20643,,,0.74550,0.65444,-0.12196,-0.03262,
5.68750,0.88859,-0.70755,5.16586,0.21012,0.96403,0.21418,,,0.74547,0.65444,-0.12223,-0.03238,
5.69531,0.54219,-0.63644,4.88469,0.20079,0.96745,0.19675,,,0.74545,0.65442,-0.12248,-0.03216,
5.70313,0.33436,-0.95644,4.46293,0.20816,0.98358,0.18900,,,0.74544,0.65440,-0.12273,-0.03197,
5.71094,-0.08132,-3.16090,3.23281,0.19932,1.00754,0.16237,,,0.74542,0.65436,-0.12303,-0.03195,
5.71875,-0.70483,-6.11204,2.28386,0.20816,1.01096,0.16043,,,0.74541,0.65429,-0.12345,-0.03211,
5.72656,-2.40218,-9.95207,-0.45756,0.23223,0.99874,0.16334,,,0.74543,0.65415,-0.12393,-0.03260,
5.73438,-3.16425,-10.52096,-4.00734,0.28233,1.00510,0.16092,,,0.74547,0.65400,-0.12427,-0.03329,
5.74219,-3.75313,-9.95207,-6.53788,0.30689,1.00705,0.15220,,,0.74554,0.65384,-0.12448,-0.03410,
5.75000,-5.24264,-6.96538,-12.72364,0.34422,1.01194,0.14058,,,0.74568,0.65367,-0.12426,-0.03510,
5.75781,-7.25174,-3.94313,-20.63157,0.33046,1.02269,0.13380,,,0.74592,0.65347,-0.12352,-0.03639,
5.76563,-8.36021,-3.12535,-25.09515,0.33292,1.03101,0.11492,,,0.74621,0.65324,-0.12254,-0.03788,
5.77344,-10.95819,1.56802,-33.98718,0.37123,1.05203,0.09942,,,0.74662,0.65297,-0.12092,-0.03963,
5.78125,-12.44769,5.19472,-38.31018,0.38941,1.05105,0.06746,,,0.74711,0.65266,-0.11891,-0.04145,
5.78906,-14.56072,15.64813,-47.83484,0.41347,1.07256,0.03647,,,0.74774,0.65235,-0.11595,-0.04330,
5.79688,-16.11950,25.46155,-57.32436,0.39481,1.11558,0.01081,,,0.74848,0.65205,-0.11205,-0.04522,
5.80469,-16.91622,29.33713,-61.82309,0.37221,1.14442,0.00306,,,0.74926,0.65174,-0.10775,-0.04720,
5.81250,-18.12861,36.66164,-69.83646,0.32310,1.18353,-0.03519,,,0.75010,0.65144,-0.10272,-0.04927,
5.82031,-16.84694,42.67057,-76.09251,0.20276,1.25442,-0.13300,,,0.75088,0.65124,-0.09710,-0.05138,
5.82813,-15.94630,43.95058,-78.93937,0.10108,1.32090,-0.23226,,,0.75158,0.65109,-0.09128,-0.05358,
5.83594,-16.53518,41.17723,-84.49249,0.07259,1.41721,-0.37995,,,0.75225,0.65091,-0.08536,-0.05618,
5.84375,-14.66463,39.43499,-91.31088,-0.03546,1.36246,-0.44726,,,0.75276,0.65082,-0.07923,-0.05920,
5.85156,-10.40395,36.98164,-94.08744,-0.19559,1.35366,-0.66031,,,0.75302,0.65093,-0.07311,-0.06244,
5.85938,0.36900,13.33701,-95.24727,-0.45886,1.46659,-0.62932,,,0.75265,0.65147,-0.06820,-0.06674,
5.86719,-3.51065,-22.00550,-96.61798,-0.37143,1.45485,-0.59107,,,0.75225,0.65162,-0.06502,-0.07269,
5.87500,3.20945,-59.73025,-100.94098,-0.01729,1.36441,-0.93534,,,0.75131,0.65192,-0.06361,-0.08050,
5.88281,12.56217,-54.82354,-105.19369,-0.02073,1.31699,-0.55475,,,0.74992,0.65270,-0.06181,-0.08827,
5.89063,14.25952,-57.38356,-111.16857,-0.04676,1.37712,-0.39060,,,0.74834,0.65353,-0.05988,-0.09644,
5.89844,14.08632,-36.33450,-121.74762,-0.23390,1.37175,-0.43273,,,0.74674,0.65448,-0.05640,-0.10421,
5.90625,10.93411,-53.57909,-113.52338,-0.07820,1.37615,0.11250,,,0.74521,0.65507,-0.05414,-0.11233,
5.91406,9.99883,-76.19260,-112.78530,0.18016,1.25637,-0.22161,,,0.74358,0.65538,-0.05305,-0.12142,
5.92188,30.74802,-37.18784,-106.66984,0.74698,1.07207,-0.59930,,,0.74117,0.65700,-0.05042,-0.12838,
5.92969,36.98316,-23.07218,-98.72676,1.01664,0.90194,-0.75618,,,0.73855,0.65899,-0.04749,-0.13427,
5.93750,56.79707,15.57702,-88.04227,0.94247,0.79830,-0.54022,,,0.73522,0.66226,-0.04327,-0.13781,
5.94531,80.04031,39.25721,-75.38958,0.87911,0.71960,-0.53006,,,0.73099,0.66684,-0.03865,-0.13958,
5.95313,87.76497,54.22622,-70.75027,0.80445,0.72595,-0.41917,,,0.72644,0.67189,-0.03357,-0.14040,
5.96094,96.21705,72.46637,-55.21558,0.74256,0.68098,-0.32572,,,0.72164,0.67745,-0.02837,-0.13959,
5.96875,96.97913,83.16868,-35.53362,0.60503,0.64627,-0.27633,,,0.71696,0.68306,-0.02356,-0.13730,
5.97656,96.28633,76.59085,-25.20059,0.71702,0.61156,-0.31119,,,0.71233,0.68850,-0.01955,-0.13480,
5.98438,103.52603,86.11981,-6.29185,0.78726,0.60227,-0.44435,,,0.70750,0.69430,-0.01602,-0.13092,
5.99219,113.71010,105.49774,11.42191,0.57212,0.68146,-0.34412,,,0.70230,0.70067,-0.01249,-0.12524,
6.00000,116.37736,109.19555,19.61101,0.45670,0.74844,-0.26083,,,0.69695,0.70712,-0.00919,-0.11898,
6.00781,112.77483,102.68883,37.78167,0.16936,0.74942,-0.19837,1021.974,25.3,0.69185,0.71324,-0.00705,-0.11216,
6.01563,113.32907,91.66652,44.95153,0.08831,0.78070,-0.17852,,,0.68669,0.71923,-0.00578,-0.10552,
6.02344,111.83956,64.25297,58.20170,-0.00649,0.80124,-0.24389,,,0.68162,0.72487,-0.00643,-0.09960,
6.03125,111.97812,37.62164,67.69122,-0.07574,0.85452,-0.23130,,,0.67653,0.73027,-0.00878,-0.09454,
6.03906,111.90884,22.72375,71.34644,-0.07525,0.88190,-0.21435,,,0.67140,0.73550,-0.01201,-0.09004,
6.04688,111.83956,3.48804,75.73973,-0.06101,0.88777,-0.10782,,,0.66623,0.74055,-0.01633,-0.08631,
6.05469,113.84866,-5.75648,78.12968,-0.07525,0.89803,-0.01534,,,0.66091,0.74557,-0.02121,-0.08292,
6.06250,114.19506,-8.28095,78.76232,-0.06985,0.91514,0.01372,,,0.65551,0.75052,-0.02623,-0.07962,
6.07031,114.26434,-10.30763,78.76232,-0.10276,0.94741,0.13186,,,0.65004,0.75540,-0.03134,-0.07642,
6.07813,114.26434,-7.35649,78.48115,-0.04136,0.98896,0.16237,,,0.64452,0.76022,-0.03630,-0.07308,
6.08594,114.22970,-0.84978,77.39161,-0.05216,1.03394,0.30763,,,0.63896,0.76501,-0.04092,-0.06943,
6.09375,111.83956,15.50591,75.88032,-0.07721,1.07598,0.38220,,,0.63350,0.76971,-0.04472,-0.06500,
6.10156,110.45397,26.74156,75.49371,-0.11504,1.08185,0.44321,,,0.62810,0.77433,-0.04802,-0.06000,
6.10938,106.64360,51.48842,72.18995,-0.22015,1.11265,0.53909,,,0.62290,0.77884,-0.05006,-0.05384,
6.11719,99.75030,79.00864,66.88285,-0.42743,1.09260,0.61317,,,0.61809,0.78310,-0.05062,-0.04646,
6.12500,95.38570,90.67096,63.47366,-0.53647,1.09798,0.63690,,,0.61349,0.78714,-0.05048,-0.03862,
6.13281,84.92451,105.53330,54.05443,-0.72213,1.08967,0.64368,,,0.60941,0.79075,-0.04919,-0.03040,
6.14063,76.12603,121.85343,42.49128,-0.86703,1.12193,0.61414,,,0.60577,0.79398,-0.04657,-0.02181,
6.14844,71.41503,133.05352,36.97331,-0.97853,1.16153,0.62818,,,0.60235,0.79696,-0.04318,-0.01286,
6.15625,58.59834,143.79138,25.79677,-1.17304,1.17033,0.63448,,,0.59958,0.79937,-0.03873,-0.00382,
6.16406,52.36319,143.25805,19.92732,-1.27029,1.16007,0.58557,,,0.59708,0.80145,-0.03397,0.00494,
6.17188,41.72880,135.32909,6.99347,-1.49869,1.15811,0.60785,,,0.59508,0.80305,-0.02882,0.01271,
6.17969,29.50099,110.68890,-9.38473,-1.57335,1.18891,0.61947,,,0.59368,0.80414,-0.02379,0.01845,
6.18750,24.85927,97.63990,-19.96379,-1.59250,1.19966,0.62286,,,0.59248,0.80504,-0.01871,0.02303,
6.19531,17.06533,79.39976,-41.01645,-1.64457,1.18207,0.67999,,,0.59170,0.80564,-0.01322,0.02575,
6.20313,9.23676,65.24853,-62.52602,-1.68337,1.08625,0.72261,,,0.59136,0.80593,-0.00713,0.02681,
6.21094,7.78189,64.18186,-74.51093,-1.70695,1.13758,0.79717,,,0.59109,0.80615,-0.00043,0.02733,
6.21875,-2.85250,54.29733,-94.50920,-1.70007,1.15909,0.86206,,,0.59141,0.80591,0.00695,0.02651,
6.22656,-12.44769,44.80392,-111.34430,-1.56008,1.02367,0.80492,,,0.59225,0.80524,0.01485,0.02448,
6.23438,-15.32279,41.14167,-118.19784,-1.44466,0.94545,0.81606,,,0.59323,0.80440,0.02298,0.02198,
6.24219,-19.20244,36.98164,-127.16016,-1.22117,0.83790,0.79717,,,0.59439,0.80334,0.03142,0.01889,
6.25000,-21.07298,38.26165,-129.76099,-1.13571,0.78315,0.81606,,,0.59561,0.80212,0.04005,0.01577,
6.25781,-27.10029,38.58165,-132.18609,-0.91664,0.65311,0.78604,,,0.59710,0.80058,0.04881,0.01258,
6.26563,-34.58246,39.29277,-128.28485,-0.69070,0.50889,0.69985,,,0.59895,0.79867,0.05738,0.00962,
6.27344,-40.57513,42.95502,-123.61038,-0.60081,0.42921,0.65627,,,0.60104,0.79647,0.06584,0.00707,
6.28125,-48.40371,47.57728,-112.01208,-0.42251,0.26935,0.47711,,,0.60349,0.79393,0.07385,0.00528,
6.28906,-50.62065,53.69288,-105.96691,-2.25952,-0.17552,0.02485,,,0.60597,0.79126,0.08177,0.00407,
6.29688,-32.67728,67.48855,-135.27897,-1.97808,0.76555,-0.71890,,,0.60736,0.78909,0.09185,0.00230,
6.30469,-22.66641,103.15106,-60.62812,1.44642,1.16984,-5.72422,,,0.60791,0.78774,0.09937,0.00549,
6.31250,81.49518,289.39255,-74.01888,-0.98737,6.52979,3.23180,,,0.60148,0.79033,0.11535,0.01740,
6.32031,-35.48310,-13.89877,-181.98847,1.75832,9.43807,4.89411,,,0.60369,0.78738,0.12452,0.00948,
6.32813,-70.39992,-70.18366,-122.02879,1.25192,0.00438,0.63787,,,0.60811,0.78345,0.12813,0.00129,
6.33594,-40.92153,26.88378,-116.33509,-0.48096,-1.30285,-0.12671,,,0.61004,0.78070,0.13545,-0.00174,
6.34375,-18.47500,13.44367,-165.64542,-0.82479,0.75577,-0.00711,,,0.61084,0.77836,0.14482,-0.00775,
6.35156,-11.68562,-20.40549,-98.90249,-0.23685,-0.24641,-1.06560,,,0.61160,0.77686,0.14922,-0.01283,
6.35938,21.94953,30.47492,-95.35271,-0.60523,0.26397,-0.05165,,,0.61003,0.77682,0.15552,-0.01542,
6.36719,20.14827,25.31932,-93.31422,-0.79679,1.26322,0.36671,,,0.60858,0.77667,0.16149,-0.01817,
6.37500,-0.39308,-6.21871,-78.41217,-0.11307,1.03883,-0.55281,,,0.60856,0.77578,0.16538,-0.02175,
6.38281,6.11919,12.44811,-72.96449,0.01120,0.85208,-0.56395,,,0.60798,0.77522,0.16975,-0.02419,
6.39063,13.56672,18.45705,-54.89926,-0.39845,1.02025,-0.07199,,,0.60696,0.77517,0.17339,-0.02565,
6.39844,2.10098,6.83029,-53.59885,-0.52763,1.09358,-0.20418,,,0.60667,0.77463,0.17650,-0.02753,
6.40625,-9.43404,20.91040,-50.29509,-0.62341,1.12878,-0.07490,,,0.60682,0.77366,0.18004,-0.02839,
6.41406,-10.26539,1.78136,-43.33611,-0.35473,1.04909,-0.15915,,,0.60725,0.77271,0.18242,-0.02996,
6.42188,-11.02747,-2.94757,-40.48926,-0.19755,1.03589,-0.22355,,,0.60778,0.77174,0.18445,-0.03166,
6.42969,-12.93265,-0.63644,-36.97462,-0.43037,1.04078,-0.31507,,,0.60839,0.77073,0.18640,-0.03306,
6.43750,-13.27905,-12.47654,-35.32274,-0.45788,1.00607,-0.19595,,,0.60916,0.76970,0.18776,-0.03501,
6.44531,-13.03657,-22.78773,-32.61647,-0.35571,0.98847,-0.16883,,,0.61006,0.76868,0.18856,-0.03740,
6.45313,-10.95819,-19.40992,-28.29347,-0.25404,1.08283,-0.03325,,,0.61081,0.76781,0.18926,-0.03945,
6.46094,-13.03657,-22.96551,-23.47842,-0.22555,1.05985,0.00936,,,0.61172,0.76690,0.18957,-0.04146,
6.46875,-12.41305,-16.74324,-24.95457,-0.13910,1.05545,-0.01195,,,0.61252,0.76601,0.19021,-0.04322,
6.47656,-9.78044,-0.92089,-24.88428,-0.15973,0.95767,-0.12913,,,0.61297,0.76528,0.19150,-0.04418,
6.48438,-6.93998,11.31032,-26.50101,-0.38764,0.98847,-0.08410,,,0.61310,0.76467,0.19338,-0.04460,
6.49219,-6.38575,10.95476,-26.00896,-0.48686,0.94350,-0.15963,,,0.61321,0.76410,0.19521,-0.04504,
6.50000,-5.72759,-4.51203,-21.43993,-0.39304,0.85697,-0.16109,,,0.61350,0.76356,0.19615,-0.04609,
6.50781,-5.31192,-10.66319,-20.03408,-0.35228,0.85550,-0.14172,,,0.61386,0.76303,0.19677,-0.04741,
6.51563,-3.99561,-13.22321,-18.20647,-0.26583,0.86381,-0.19159,,,0.61418,0.76258,0.19717,-0.04881,
6.52344,-2.67930,-3.62313,-15.92196,-0.28646,0.86919,-0.13155,,,0.61432,0.76224,0.19786,-0.04963,
6.53125,-1.53619,-3.37424,-15.42991,-0.31249,0.89754,-0.12428,,,0.61439,0.76195,0.19852,-0.05043,
6.53906,0.19580,-4.54758,-15.50020,-0.38813,0.91857,-0.08991,,,0.61439,0.76173,0.19914,-0.05132,
6.54688,0.26508,-8.38761,-16.44915,-0.28990,0.95034,-0.03083,,,0.61443,0.76149,0.19964,-0.05245,
6.55469,0.78467,-10.73430,-15.99225,-0.24962,0.92834,-0.03180,,,0.61448,0.76127,0.20002,-0.05368,
6.56250,2.20490,-6.00537,-18.27676,-0.30070,0.94399,-0.02357,,,0.61438,0.76109,0.20071,-0.05479,
6.57031,3.00161,-6.07648,-18.87425,-0.30709,0.94839,-0.07635,,,0.61424,0.76093,0.20142,-0.05594,
6.57813,4.11008,-5.89870,-20.66671,-0.24520,0.97381,-0.08458,,,0.61402,0.76080,0.20223,-0.05717,
6.58594,5.94599,-4.40536,-22.70520,-0.27320,0.96599,-0.07247,,,0.61369,0.76071,0.20320,-0.05843,
6.59375,6.81198,-2.30756,-24.39223,-0.33558,0.96403,-0.06376,,,0.61327,0.76065,0.20434,-0.05966,
6.60156,7.60869,-4.54758,-27.06335,-0.27663,0.97967,-0.04052,,,0.61283,0.76057,0.20552,-0.06113,
6.60938,8.09365,-9.45429,-28.64494,-0.25748,0.98847,-0.04875,,,0.61242,0.76047,0.20658,-0.06293,
6.61719,7.81653,-9.59651,-29.73447,-0.25306,0.98994,-0.06715,,,0.61202,0.76033,0.20768,-0.06478,
6.62500,8.30149,-5.93426,-32.15957,-0.33459,0.97723,-0.05843,,,0.61153,0.76019,0.20906,-0.06655,
6.63281,7.81653,-7.35649,-33.21396,-0.29775,0.95767,-0.05940,,,0.61108,0.76001,0.21044,-0.06843,
6.64063,7.78189,-9.31207,-33.74116,-0.26337,0.97039,-0.04584,,,0.61065,0.75980,0.21177,-0.07043,
6.64844,5.70351,-4.19202,-35.99052,-0.37192,1.02074,-0.10201,,,0.61024,0.75950,0.21343,-0.07222,
6.65625,4.83752,-0.49422,-36.93947,-0.38568,1.05349,-0.07925,,,0.60982,0.75916,0.21529,-0.07386,
6.66406,1.82386,-3.44535,-37.00977,-0.31937,1.00656,-0.16932,,,0.60958,0.75867,0.21706,-0.07560,
6.67188,1.58139,-1.34756,-38.23989,-0.36259,1.02661,-0.24824,,,0.60932,0.75816,0.21897,-0.07728,
6.67969,1.68530,-0.17421,-38.45077,-0.43381,1.03932,-0.27536,,,0.60903,0.75765,0.22094,-0.07891,
6.68750,1.37355,-7.42761,-37.99387,-0.35375,1.02954,-0.26277,,,0.60887,0.75709,0.22259,-0.08089,
6.69531,1.58139,-10.41430,-37.92357,-0.35031,1.08722,-0.18917,,,0.60873,0.75652,0.22410,-0.08303,
6.70313,0.95787,-10.16541,-38.13445,-0.39795,1.08869,-0.17755,,,0.60862,0.75592,0.22564,-0.08515,
6.71094,-0.08132,-11.16097,-38.41562,-0.38960,1.13025,-0.09136,,,0.60857,0.75526,0.22716,-0.08732,
6.71875,-0.73947,-16.52990,-37.57211,-0.32673,1.10629,-0.11605,,,0.60864,0.75454,0.22841,-0.08971,
6.72656,-0.91267,-17.16991,-38.52106,-0.32723,1.14051,-0.08797,,,0.60872,0.75380,0.22968,-0.09218,
6.73438,-0.53164,-15.64101,-40.52440,-0.36996,1.18109,-0.08652,,,0.60873,0.75304,0.23112,-0.09466,
6.74219,-0.98195,-18.12991,-40.34867,-0.30365,1.15469,-0.08216,,,0.60881,0.75224,0.23244,-0.09725,
6.75000,-0.70483,-21.15216,-41.22733,-0.35031,1.14833,-0.03567,,,0.60890,0.75141,0.23368,-0.10003,
6.75781,-0.87803,-19.19659,-44.53109,-0.43971,1.16789,-0.03471,,,0.60895,0.75053,0.23517,-0.10285,
6.76563,-2.26362,-21.15216,-45.55033,-0.36603,1.17278,-0.03422,,,0.60908,0.74956,0.23663,-0.10578,
6.77344,-3.85705,-29.75667,-47.97543,-0.33950,1.13953,-0.05311,,,0.60941,0.74840,0.23787,-0.10923,
6.78125,-5.65831,-29.36556,-51.63065,-0.27712,1.15273,-0.09330,,,0.60979,0.74710,0.23933,-0.11278,
6.78906,-5.62367,-25.20553,-54.51265,-0.32526,1.17229,-0.09475,,,0.61006,0.74578,0.24110,-0.11624,
6.79688,-7.11318,-26.80554,-57.99214,-0.19461,1.12242,-0.12671,,,0.61040,0.74431,0.24298,-0.11989,
6.80469,-6.80142,-27.37443,-60.45238,-0.22752,1.12145,-0.09378,,,0.61070,0.74280,0.24496,-0.12368,
6.81250,-7.00926,-22.78773,-67.09505,-0.32379,1.16349,-0.09136,,,0.61086,0.74118,0.24747,-0.12751,
6.82031,-8.74125,-26.20109,-71.62892,-0.21573,1.16495,-0.10250,,,0.61111,0.73937,0.25007,-0.13167,
6.82813,-9.19156,-27.97888,-74.61636,-0.19952,1.14051,-0.11073,,,0.61137,0.73745,0.25274,-0.13603,
6.83594,-10.16147,-26.73443,-80.45066,-0.20148,1.12829,-0.10637,,,0.61159,0.73538,0.25576,-0.14055,
6.84375,-11.82418,-20.58327,-88.18286,-0.22310,1.18402,-0.06860,,,0.61169,0.73314,0.25943,-0.14505,
6.85156,-13.07121,-20.54771,-90.92427,-0.21720,1.20895,-0.08264,,,0.61179,0.73077,0.26324,-0.14963,
6.85938,-15.66919,-20.19215,-99.07823,-0.22604,1.27006,-0.06424,,,0.61191,0.72812,0.26749,-0.15448,
6.86719,-16.67374,-19.30326,-103.36608,-0.22506,1.28766,-0.09426,,,0.61199,0.72531,0.27198,-0.15944,
6.87500,-18.05933,-15.67656,-112.50413,-0.07869,1.33606,-0.12767,,,0.61193,0.72228,0.27708,-0.16457,
6.88281,-17.64365,-13.79210,-121.36101,-0.02761,1.41134,-0.13784,,,0.61168,0.71907,0.28266,-0.16997,
6.89063,-17.05477,-11.76542,-125.75431,-0.03841,1.42210,-0.20031,,,0.61126,0.71578,0.28852,-0.17545,
6.89844,-14.31824,-6.43204,-137.07143,-0.11111,1.56632,-0.19256,,,0.61042,0.71237,0.29510,-0.18118,
6.90625,-12.41305,-13.54321,-146.17434,-0.02171,1.69342,-0.20999,,,0.60946,0.70872,0.30177,-0.18766,
6.91406,-11.75490,-18.37880,-150.88395,-0.01041,1.77164,-0.22355,,,0.60844,0.70485,0.30843,-0.19456,
6.92188,-10.19611,-26.66332,-160.16259,-0.03104,1.93101,-0.18820,,,0.60733,0.70066,0.31513,-0.20226,
6.92969,-11.68562,-37.50785,-164.52074,0.03870,2.07474,-0.24195,,,0.60639,0.69608,0.32157,-0.21059,
6.93750,-12.51697,-42.27233,-165.25881,0.06081,2.12460,-0.21483,,,0.60550,0.69129,0.32782,-0.21914,
6.94531,-15.59991,-57.77468,-165.39939,0.17525,2.07816,-0.27536,,,0.60501,0.68604,0.33343,-0.22832,
6.95313,-15.46135,-60.93915,-165.92659,0.26170,1.99750,-0.34073,,,0.60450,0.68064,0.33889,-0.23764,
6.96094,-13.31369,-47.03681,-167.50818,0.43459,1.83813,-0.40949,,,0.60345,0.67541,0.34491,-0.24639,
6.96875,-12.20522,-4.76092,-165.11822,0.47831,1.67973,-0.67387,,,0.60131,0.67091,0.35250,-0.25309,
6.97656,-11.02747,19.48817,-155.87473,0.74846,1.58098,-0.53635,,,0.59862,0.66701,0.36059,-0.25831,
6.98438,-9.05300,64.89297,-148.59944,0.30640,1.54823,-0.02551,,,0.59479,0.66409,0.37013,-0.26118,
6.99219,-8.32557,57.81736,-143.25719,0.08389,1.29450,-0.21629,,,0.59112,0.66113,0.37909,-0.26414,
7.00000,-8.63733,60.44849,-140.76180,-0.17250,1.24122,0.05148,,,0.58738,0.65820,0.38800,-0.26685,
7.00781,-15.53063,12.73256,-131.34258,-0.54629,1.01292,-0.19837,1021.967,25.3,0.58533,0.65431,0.39467,-0.27111,
7.01563,4.04080,-19.33881,-109.23552,-0.67940,0.96110,-0.60172,,,0.58364,0.65116,0.39868,-0.27643,
7.02344,10.72627,-50.30795,-90.01047,-0.20247,1.11216,-0.68016,,,0.58281,0.64818,0.40046,-0.28253,
7.03125,5.42639,-63.57028,-51.45492,0.19342,1.00998,-0.27681,,,0.58331,0.64575,0.40010,-0.28752,
7.03906,5.77279,-77.72150,-37.08006,0.33341,0.76311,-0.21871,,,0.58444,0.64344,0.39852,-0.29257,
7.04688,13.39352,-110.21954,-17.99559,0.72144,0.86821,-0.13784,,,0.58647,0.64127,0.39464,-0.29847,
7.05469,0.33436,-91.94384,20.38423,0.74011,0.67218,0.01372,,,0.58934,0.63995,0.39005,-0.30168,
7.06250,0.47292,-80.28152,32.22855,0.69050,0.51965,-0.00275,,,0.59210,0.63916,0.38540,-0.30389,
7.07031,11.62690,-59.16135,62.31383,0.53627,0.34757,-0.14850,,,0.59443,0.64003,0.38005,-0.30425,
7.07813,20.77178,-46.68125,94.01584,0.37369,0.32752,-0.18094,,,0.59667,0.64233,0.37361,-0.30300,
7.08594,23.09264,-46.04125,108.67187,0.32408,0.33877,-0.16786,,,0.59906,0.64506,0.36649,-0.30118,
7.09375,26.55661,-48.81460,134.08268,0.29166,0.35343,-0.17949,,,0.60183,0.64847,0.35803,-0.29849,
7.10156,29.08531,-45.47236,145.32951,0.32653,0.36223,-0.14172,,,0.60458,0.65225,0.34913,-0.29523,
7.10938,32.68784,-30.78779,168.94786,0.32653,0.38228,-0.09330,,,0.60722,0.65695,0.33967,-0.29039,
7.11719,37.08708,-11.30319,190.66831,0.29363,0.47125,-0.05601,,,0.60954,0.66262,0.32989,-0.28384,
7.12500,38.16091,-1.34756,201.45824,0.25679,0.51183,-0.07683,,,0.61169,0.66865,0.31997,-0.27636,
7.13281,40.17001,12.69700,221.38622,0.12712,0.56463,-0.07877,,,0.61368,0.67531,0.30961,-0.26739,
7.14063,42.73335,13.44367,238.39705,0.06375,0.61645,-0.10492,,,0.61569,0.68228,0.29837,-0.25766,
7.14844,44.18822,13.62145,246.62130,0.05933,0.63991,-0.11605,,,0.61760,0.68930,0.28665,-0.24754,
7.15625,47.82539,14.11923,263.14009,0.06081,0.68978,-0.13784,,,0.61941,0.69657,0.27403,-0.23669,
7.16406,52.98670,17.60371,278.78021,0.05000,0.78119,-0.16254,,,0.62095,0.70417,0.26063,-0.22502,
7.17188,55.13437,18.91927,285.98521,0.02397,0.82617,-0.14753,,,0.62223,0.71174,0.24680,-0.21294,
7.17969,59.25649,13.26589,297.58351,-0.01385,0.93812,-0.14704,,,0.62332,0.71930,0.23201,-0.20063,
7.18750,61.85447,11.31032,302.25798,-0.04529,0.98456,-0.15043,,,0.62410,0.72670,0.21677,-0.18816,
7.19531,67.67394,11.91477,310.55252,-0.09490,1.07451,-0.17949,,,0.62441,0.73415,0.20098,-0.17531,
7.20313,71.03399,10.49254,318.49559,-0.16415,1.20651,-0.16060,,,0.62437,0.74148,0.18459,-0.16216,
7.21094,70.13336,7.47029,321.20186,-0.18724,1.29108,-0.16641,,,0.62412,0.74841,0.16785,-0.14896,
7.21875,69.40592,4.37693,324.50562,-0.26435,1.36881,-0.17077,,,0.62367,0.75492,0.15073,-0.13568,
7.22656,74.80972,-2.52090,323.48637,-0.26042,1.42650,-0.10201,,,0.62268,0.76121,0.13325,-0.12279,
7.23438,78.79328,-0.20977,322.04537,-0.24176,1.46170,-0.09136,,,0.62113,0.76728,0.11584,-0.10982,
7.24219,87.00289,15.86147,318.35501,-0.29530,1.60640,-0.06327,,,0.61868,0.77340,0.09918,-0.09617,
7.25000,88.83880,28.30601,309.56842,-0.44413,1.77555,-0.02212,,,0.61569,0.77924,0.08345,-0.08220,
7.25781,88.59632,33.67495,305.13998,-0.50258,1.81613,-0.04681,,,0.61235,0.78469,0.06814,-0.06809,
7.26563,85.30555,43.20391,295.08812,-0.61064,1.88604,-0.04536,,,0.60883,0.78965,0.05375,-0.05385,
7.27344,81.80694,46.75950,289.46470,-0.61555,1.89630,-0.05553,,,0.60518,0.79410,0.03980,-0.03961,
7.28125,74.98292,60.05738,278.46390,-0.72164,1.86697,-0.06182,,,0.60159,0.79795,0.02699,-0.02507,
7.28906,69.47520,78.08419,268.30660,-0.91566,1.87430,-0.03858,,,0.59802,0.80127,0.01548,-0.00995,
7.29688,66.28835,80.92866,261.03130,-0.98491,1.87870,-0.04342,,,0.59438,0.80416,0.00448,0.00504,
7.30469,58.42514,84.05757,244.89913,-1.19121,1.83177,-0.03083,,,0.59097,0.80644,-0.00552,0.01955,
7.31250,49.10706,78.04864,227.25566,-1.32972,1.66751,-0.03374,,,0.58792,0.80811,-0.01480,0.03300,
7.32031,44.95029,73.49749,216.53602,-1.39701,1.56876,-0.06570,,,0.58496,0.80943,-0.02367,0.04576,
7.32813,40.48177,64.67964,192.21475,-1.48248,1.44996,-0.09814,,,0.58217,0.81045,-0.03156,0.05705,
7.33594,38.23019,59.59515,178.99972,-1.51784,1.42943,-0.11412,,,0.57945,0.81128,-0.03893,0.06752,
7.34375,32.58392,52.37732,152.81568,-1.55173,1.36539,-0.12283,,,0.57704,0.81187,-0.04516,0.07652,
7.35156,29.05067,41.46168,126.45592,-1.52668,1.28815,-0.15382,,,0.57488,0.81237,-0.05036,0.08387,
7.35938,26.79909,41.21278,110.78065,-1.44859,1.27788,-0.13930,,,0.57289,0.81277,-0.05472,0.09058,
7.36719,25.06710,38.01276,87.51376,-1.46627,1.21335,-0.09572,,,0.57109,0.81317,-0.05793,0.09618,
7.37500,25.62134,33.71050,64.31717,-1.51146,1.19038,-0.04487,,,0.56937,0.81368,-0.06000,0.10065,
7.38281,24.44359,27.09712,52.71887,-1.50851,1.17864,-0.04342,,,0.56776,0.81422,-0.06170,0.10429,
7.39063,20.14827,18.38593,28.85450,-1.45841,1.16007,-0.00081,,,0.56652,0.81475,-0.06244,0.10650,
7.39844,16.96141,16.89259,5.86878,-1.39652,1.10189,0.03308,,,0.56561,0.81525,-0.06199,0.10773,
7.40625,17.20389,21.12373,-6.18642,-1.44908,1.10874,0.05197,,,0.56479,0.81579,-0.06070,0.10873,
7.41406,15.81830,26.03044,-29.87506,-1.51097,1.09896,0.16915,,,0.56424,0.81632,-0.05791,0.10909,
7.42188,12.56217,24.46598,-42.84406,-1.46578,1.09749,0.16576,,,0.56395,0.81679,-0.05449,0.10884,
7.42969,4.14472,24.46598,-65.23229,-1.38621,1.08527,0.18513,,,0.56430,0.81700,-0.04988,0.10771,
7.43750,-1.95186,22.22597,-80.45066,-1.29190,1.00167,0.20111,,,0.56507,0.81702,-0.04455,0.10583,
7.44531,-4.23808,21.79930,-86.84730,-1.22903,0.93665,0.20595,,,0.56599,0.81694,-0.03890,0.10368,
7.45313,-7.39030,22.68819,-96.23137,-0.98000,0.86479,0.01226,,,0.56713,0.81673,-0.03271,0.10120,
7.46094,14.15560,20.80373,-78.02556,0.02839,1.01683,-0.37317,,,0.56692,0.81730,-0.02746,0.09937,
7.46875,16.19934,54.79512,-69.13353,-0.27860,0.77191,-0.48599,,,0.56657,0.81767,-0.02138,0.09978,
7.47656,25.24030,35.63052,-72.99963,1.33885,1.00070,-1.11063,,,0.56570,0.81850,-0.01576,0.09899,
7.48438,14.60591,14.61702,-56.62143,1.08541,1.39032,0.06068,,,0.56528,0.81901,-0.01194,0.09764,
7.49219,4.24864,-43.65901,-68.25487,1.10309,1.62742,0.23306,,,0.56546,0.81951,-0.00979,0.09258,
7.50000,-7.90989,19.91484,-96.23137,0.04656,1.84057,0.33281,,,0.56651,0.81912,-0.00370,0.08997,
7.50781,-0.35844,65.24853,-119.49826,-0.53647,2.05763,0.37349,,,0.56726,0.81870,0.00550,0.08899,
7.51563,18.93588,80.39532,-126.38694,-1.13571,2.06105,-0.05311,,,0.56692,0.81885,0.01578,0.08857,
7.52344,21.70705,24.18154,-123.01289,-0.73736,1.68902,-0.44532,,,0.56640,0.81938,0.02372,0.08514,
7.53125,17.09997,26.49267,-133.41621,-0.30610,1.63133,-0.44919,,,0.56615,0.81963,0.03229,0.08143,
7.53906,-0.28916,3.02581,-147.36931,-0.17545,1.56240,-0.17755,,,0.56696,0.81924,0.04064,0.07591,
7.54688,-32.91976,-62.75249,-134.01370,-0.28302,1.11753,0.01614,,,0.56963,0.81787,0.04553,0.06731,
7.55469,-34.27071,-78.14817,-129.47982,-0.40385,0.77093,0.09410,,,0.57235,0.81645,0.04956,0.05803,
7.56250,-7.56350,-101.61503,-122.16938,-0.39795,0.56658,-0.08071,,,0.57357,0.81610,0.05236,0.04762,
7.57031,3.76369,-97.41944,-118.47901,-0.13026,0.67755,-0.21241,,,0.57406,0.81609,0.05515,0.03755,
7.57813,8.26685,-69.97033,-110.88740,0.11287,1.00363,-0.33347,,,0.57412,0.81615,0.05860,0.02929,
7.58594,3.90225,-32.70781,-96.19623,0.00727,0.94154,-0.20757,,,0.57421,0.81596,0.06268,0.02369,
7.59375,8.37077,-27.87221,-89.83474,-0.21082,0.93323,-0.06618,,,0.57400,0.81593,0.06660,0.01858,
7.60156,15.99150,-28.90333,-84.66822,-0.15826,1.05398,0.00597,,,0.57334,0.81619,0.07020,0.01359,
7.60938,14.88303,-21.36550,-74.51093,-0.04774,1.02318,-0.20563,,,0.57268,0.81642,0.07352,0.00942,
7.61719,14.81375,-15.78323,-68.43061,-0.17545,1.02074,-0.24631,,,0.57197,0.81666,0.07672,0.00579,
7.62500,11.93866,-8.10317,-65.93522,-0.13075,1.15127,-0.18869,,,0.57137,0.81677,0.08008,0.00271,
7.63281,6.84662,0.28801,-59.36285,-0.02711,1.11998,-0.22549,,,0.57099,0.81671,0.08340,0.00037,
7.64063,5.70351,-0.10310,-57.95699,-0.16366,1.10971,-0.20466,,,0.57067,0.81659,0.08662,-0.00192,
7.64844,5.49567,-9.41873,-54.75868,-0.30316,1.08869,-0.19111,,,0.57041,0.81648,0.08930,-0.00461,
7.65625,5.04536,-14.68100,-50.99802,-0.28302,1.07745,-0.19643,,,0.57020,0.81635,0.09157,-0.00744,
7.66406,1.92778,-26.69887,-43.09009,-0.08114,0.99581,-0.25551,,,0.57024,0.81614,0.09293,-0.01061,
7.67188,5.18391,-21.61439,-39.15369,-0.17447,1.00803,-0.19401,,,0.57006,0.81607,0.09426,-0.01337,
7.67969,5.56495,-20.04993,-37.18550,-0.16857,1.03492,-0.17561,,,0.56984,0.81603,0.09554,-0.01597,
7.68750,3.38265,-20.33438,-30.05079,-0.12339,0.92443,-0.23808,,,0.56975,0.81594,0.09642,-0.01829,
7.69531,7.95509,-21.86328,-26.95791,-0.15187,0.96696,-0.25405,,,0.56942,0.81604,0.09706,-0.02060,
7.70313,8.12829,-19.23214,-25.48176,-0.20001,0.99825,-0.26955,,,0.56906,0.81616,0.09772,-0.02272,
7.71094,5.18391,-18.44992,-21.54537,-0.12977,1.00412,-0.23565,,,0.56886,0.81618,0.09820,-0.02461,
7.71875,2.48202,-20.68993,-18.34705,-0.14598,0.94008,-0.22888,,,0.56883,0.81612,0.09841,-0.02649,
7.72656,2.89769,-21.89883,-17.74957,-0.20640,0.97625,-0.18675,,,0.56878,0.81607,0.09854,-0.02842,
7.73438,-4.27272,-26.16553,-15.85166,-0.17201,1.04714,-0.13348,,,0.56916,0.81575,0.09842,-0.03046,
7.74219,-10.54251,-29.72112,-13.28598,-0.10816,1.02612,-0.11073,,,0.56992,0.81518,0.09803,-0.03256,
7.75000,-21.80041,-41.63232,-12.72364,-0.14254,1.03932,-0.04826,,,0.57138,0.81415,0.09716,-0.03522,
7.75781,-40.22874,-58.45024,-13.32113,-0.22260,1.05105,-0.15237,,,0.57396,0.81235,0.09572,-0.03872,
7.76563,-45.87501,-63.21472,-13.35627,-0.17349,0.97674,-0.29376,,,0.57687,0.81028,0.09411,-0.04244,
7.77344,-38.98171,-62.82361,-11.77469,-0.05708,0.85941,-0.40513,,,0.57939,0.80848,0.09240,-0.04612,
7.78125,-30.14858,-52.15685,-14.09435,-0.19019,0.95083,-0.24582,,,0.58133,0.80703,0.09121,-0.04937,
7.78906,-30.56426,-51.90796,-14.65669,-0.12584,0.95963,-0.23469,,,0.58328,0.80555,0.09006,-0.05261,
7.79688,-28.58980,-52.79686,-12.26673,-0.04725,0.89021,-0.24776,,,0.58512,0.80414,0.08873,-0.05582,
7.80469,-26.16502,-49.63239,-14.37552,-0.05560,0.90928,-0.18530,,,0.58680,0.80281,0.08764,-0.05896,
7.81250,-20.38019,-36.69006,-14.23493,-0.11012,0.89852,-0.21629,,,0.58807,0.80176,0.08703,-0.06141,
7.82031,-17.74757,-26.59220,-14.55125,-0.12781,0.95914,-0.14269,,,0.58914,0.80085,0.08684,-0.06334,
7.82813,-17.33189,-26.76998,-13.74288,-0.11897,0.93665,-0.16399,,,0.59019,0.79995,0.08659,-0.06525,
7.83594,-14.73391,-23.32107,-15.35961,-0.26239,0.98847,-0.16012,,,0.59106,0.79916,0.08655,-0.06706,
7.84375,-14.59536,-25.95220,-16.02739,-0.18577,0.98358,-0.19740,,,0.59193,0.79836,0.08644,-0.06903,
7.85156,-13.66008,-28.76111,-16.02739,-0.13567,0.97136,-0.21193,,,0.59277,0.79758,0.08622,-0.07116,
7.85938,-13.17513,-29.68556,-17.36296,-0.16022,0.97479,-0.24340,,,0.59357,0.79680,0.08603,-0.07340,
7.86719,-10.12683,-23.10773,-19.61232,-0.21867,0.99434,-0.19062,,,0.59416,0.79615,0.08621,-0.07539,
7.87500,-10.02291,-21.82772,-19.99893,-0.16808,1.00265,-0.15770,,,0.59473,0.79551,0.08646,-0.07732,
7.88281,-7.59814,-28.47666,-17.53869,-0.14991,1.02905,-0.10879,,,0.59522,0.79495,0.08630,-0.07953,
7.89063,-7.45958,-30.57446,-15.60564,-0.28498,1.05447,-0.11170,,,0.59572,0.79439,0.08594,-0.08178,
7.89844,-5.48511,-34.52116,-18.48764,-0.13517,1.07891,-0.08845,,,0.59611,0.79386,0.08557,-0.08437,
7.90625,-3.92633,-35.23227,-20.10437,-0.14451,1.06571,-0.10492,,,0.59641,0.79338,0.08525,-0.08707,
7.91406,-3.23353,-35.01894,-22.10771,-0.12977,1.04714,-0.10685,,,0.59666,0.79290,0.08504,-0.08984,
7.92188,-2.54074,-35.01894,-27.90686,-0.15826,1.02709,-0.11024,,,0.59683,0.79242,0.08514,-0.09285,
7.92969,-5.10408,-39.35675,-35.35789,-0.01434,1.02025,-0.08748,,,0.59710,0.79175,0.08548,-0.09639,
7.93750,-7.63278,-47.89015,-37.74784,0.01464,1.04127,-0.12816,,,0.59754,0.79090,0.08561,-0.10046,
7.94531,-11.51242,-32.45892,-52.93107,0.09126,1.08576,-0.11799,,,0.59799,0.78989,0.08722,-0.10430,
7.95313,-14.94175,-15.64101,-65.93522,0.22830,1.10385,-0.08361,,,0.59841,0.78877,0.09024,-0.10774,
7.96094,-16.56982,-7.07205,-72.61302,0.13694,1.14736,-0.07877,,,0.59880,0.78758,0.09397,-0.11097,
7.96875,-19.61811,8.11030,-85.75776,-0.03743,1.16838,-0.06812,,,0.59915,0.78628,0.09905,-0.11391,
7.97656,-19.82595,14.19035,-91.34603,-0.09146,1.21433,-0.04729,,,0.59939,0.78495,0.10468,-0.11674,
7.98438,-21.28082,16.32370,-96.68827,-0.01876,1.22753,-0.11170,,,0.59963,0.78350,0.11068,-0.11966,
7.99219,-23.80952,14.79479,-101.25730,-0.20492,1.31602,-0.13881,,,0.59995,0.78186,0.11689,-0.12283,
8.00000,-24.32911,13.94145,-103.04976,-0.27909,1.29695,-0.13010,,,0.60026,0.78014,0.12315,-0.12610,
8.00781,-26.16502,3.70137,-104.84223,-0.12928,1.34632,-0.10104,1021.980,25.4,0.60071,0.77820,0.12910,-0.12997,
8.01563,-29.76755,-6.14760,-107.44306,-0.16563,1.38103,-0.11702,,,0.60137,0.77596,0.13480,-0.13443,
8.02344,-31.70737,-6.60982,-110.11418,-0.13910,1.36979,-0.11993,,,0.60209,0.77356,0.14064,-0.13900,
8.03125,-34.13215,-1.95201,-116.54596,-0.05609,1.39521,-0.16109,,,0.60278,0.77099,0.14703,-0.14355,
8.03906,-36.34909,1.21246,-118.44387,-0.06002,1.37761,-0.12767,,,0.60350,0.76830,0.15365,-0.14798,
8.04688,-38.25427,3.70137,-124.34845,-0.15089,1.36979,-0.17029,,,0.60419,0.76543,0.16069,-0.15249,
8.05469,-40.54049,8.96364,-131.83463,-0.15826,1.46561,-0.14365,,,0.60481,0.76237,0.16835,-0.15700,
8.06250,-42.37640,3.80804,-132.15094,-0.07034,1.43921,-0.13881,,,0.60553,0.75912,0.17582,-0.16176,
8.07031,-43.76199,-2.09423,-137.66892,-0.17447,1.46023,-0.13591,,,0.60627,0.75560,0.18333,-0.16701,
8.07813,-47.22596,-6.96538,-141.95678,-0.10177,1.54236,-0.17029,,,0.60715,0.75175,0.19088,-0.17264,
8.08594,-48.95794,-8.56539,-146.20949,-0.07132,1.57023,-0.19982,,,0.60801,0.74768,0.19858,-0.17848,
8.09375,-49.92785,-16.92102,-151.79776,0.14234,1.58000,-0.32959,,,0.60891,0.74331,0.20621,-0.18494,
8.10156,-48.29979,-16.20990,-161.14669,0.12220,1.65480,-0.32088,,,0.60951,0.73879,0.21429,-0.19175,
8.10938,-46.11749,-17.95213,-166.55922,0.07161,1.74426,-0.30054,,,0.60988,0.73415,0.22252,-0.19888,
8.11719,-44.90510,-29.97001,-176.78681,0.16641,1.87039,-0.21532,,,0.61014,0.72914,0.23070,-0.20703,
8.12500,-44.90510,-38.00563,-181.03952,0.13743,1.91048,-0.16641,,,0.61036,0.72383,0.23873,-0.21572,
8.13281,-47.53771,-48.60127,-190.17757,0.11827,2.07865,-0.07199,,,0.61065,0.71798,0.24676,-0.22523,
8.14063,-53.04543,-58.84135,-194.85204,0.22584,2.35584,-0.10782,,,0.61118,0.71152,0.25463,-0.23529,
8.14844,-57.02899,-64.38806,-195.80099,0.33390,2.44726,-0.24340,,,0.61187,0.70464,0.26232,-0.24555,
8.15625,-53.42646,-77.47261,-196.74994,0.49697,2.23215,-0.51505,,,0.61246,0.69752,0.26940,-0.25648,
8.16406,-36.93796,-58.16579,-206.59092,0.63549,1.95741,-0.47050,,,0.61161,0.69109,0.27740,-0.26716,
8.17188,-32.85048,-37.93452,-214.42856,0.62222,1.88408,-0.47728,,,0.60990,0.68491,0.28648,-0.27722,
8.17969,-36.34909,1.07024,-215.93985,0.36976,1.89728,-0.44048,,,0.60743,0.67913,0.29726,-0.28540,
8.18750,-44.45478,-18.62770,-196.71479,0.21602,1.63916,-0.64433,,,0.60598,0.67288,0.30642,-0.29347,
8.19531,-45.35541,-18.91214,-181.42613,0.73225,1.40059,-1.10869,,,0.60478,0.66679,0.31484,-0.30085,
8.20313,-20.38019,12.87478,-166.73496,0.60209,1.28571,-0.28311,,,0.60197,0.66260,0.32334,-0.30668,
8.21094,-19.09852,26.27933,-157.70234,0.70965,1.05692,-0.41578,,,0.59892,0.65885,0.33192,-0.31151,
8.21875,-7.00926,61.90628,-143.25719,0.37123,0.75137,-0.01243,,,0.59476,0.65660,0.34101,-0.31440,
8.22656,-14.73391,96.21767,-131.06141,-0.24667,0.81981,-0.02986,,,0.59034,0.65498,0.35107,-0.31504,
8.23438,-18.26716,99.31103,-117.53006,-0.58509,0.68635,-0.25744,,,0.58622,0.65353,0.36068,-0.31488,
8.24219,-6.83606,42.10168,-78.44732,-0.17447,0.79488,-0.39206,,,0.58379,0.65222,0.36600,-0.31596,
8.25000,-10.61179,14.29701,-37.74784,0.41347,0.66093,-0.26810,,,0.58309,0.65117,0.36847,-0.31656,
8.25781,-7.52886,4.83916,-19.01483,0.54806,0.39548,-0.31119,,,0.58290,0.65050,0.36967,-0.31691,
8.26563,12.38897,-11.58764,-2.42576,0.82901,0.44534,-0.24340,,,0.58259,0.65068,0.36904,-0.31782,
8.27344,11.17658,-12.51209,14.51479,0.78382,0.44925,-0.20757,,,0.58272,0.65122,0.36766,-0.31808,
8.28125,8.61325,-6.39649,47.27119,0.65022,0.28695,-0.10395,,,0.58352,0.65261,0.36511,-0.31670,
8.28906,18.34700,-5.75648,74.05271,0.56132,0.19895,-0.20999,,,0.58444,0.65505,0.36119,-0.31446,
8.29688,23.57760,0.78579,89.23593,0.48813,0.20091,-0.24292,,,0.58527,0.65819,0.35672,-0.31144,
8.30469,29.36243,7.86141,121.28941,0.31475,0.18869,-0.29424,,,0.58631,0.66246,0.35095,-0.30694,
8.31250,35.73613,6.86584,148.28180,0.20914,0.26153,-0.26132,,,0.58761,0.66755,0.34376,-0.30154,
8.32031,38.61123,6.33250,160.40730,0.18164,0.32508,-0.22452,,,0.58896,0.67294,0.33590,-0.29571,
8.32813,42.42160,4.80360,182.76038,0.15806,0.43850,-0.16109,,,0.59054,0.67887,0.32682,-0.28910,
8.33594,43.35687,6.47473,205.50007,0.15315,0.48836,-0.08991,,,0.59238,0.68526,0.31668,-0.28146,
8.34375,43.53007,7.57696,216.43058,0.16346,0.53432,-0.07151,,,0.59427,0.69176,0.30601,-0.27327,
8.35156,44.43070,6.72362,236.85061,0.08537,0.61889,0.00209,,,0.59637,0.69853,0.29424,-0.26424,
8.35938,43.56471,-0.06755,246.26984,0.09814,0.65604,-0.00856,,,0.59865,0.70514,0.28168,-0.25507,
8.36719,44.53462,-9.77429,262.26143,0.14038,0.72009,0.01565,,,0.60116,0.71171,0.26785,-0.24565,
8.37500,46.78620,-15.71212,276.39026,0.24549,0.78315,0.00984,,,0.60369,0.71828,0.25296,-0.23589,
8.38281,50.04233,-12.79654,282.99777,0.29559,0.82764,0.03163,,,0.60590,0.72487,0.23772,-0.22568,
8.39063,57.14347,1.53247,294.56092,0.30050,0.93763,0.02001,,,0.60746,0.73188,0.22230,-0.21432,
8.39844,62.16623,19.98595,305.87805,0.20276,1.05594,0.03260,,,0.60839,0.73921,0.20690,-0.20154,
8.40625,63.62109,26.13711,311.67720,0.13399,1.11362,0.03502,,,0.60895,0.74643,0.19136,-0.18815,
8.41406,63.65573,29.83492,323.38093,0.02544,1.22362,0.05923,,,0.60932,0.75348,0.17527,-0.17399,
8.42188,61.57735,25.81711,333.15162,-0.03055,1.31406,0.05003,,,0.60964,0.76012,0.15846,-0.15951,
8.42969,60.88456,24.14598,337.50977,-0.03497,1.36001,0.04616,,,0.60973,0.76635,0.14126,-0.14485,
8.43750,59.70681,20.66151,345.20682,-0.03989,1.44654,0.02534,,,0.60965,0.77214,0.12346,-0.12995,
8.44531,60.64208,19.84372,347.94823,-0.02564,1.50570,0.02727,,,0.60920,0.77754,0.10540,-0.11492,
8.45313,63.65573,18.99038,352.27124,0.01807,1.60396,0.06601,,,0.60827,0.78262,0.08698,-0.09971,
8.46094,70.47975,24.53710,353.25533,0.10256,1.71542,0.07134,,,0.60658,0.78757,0.06865,-0.08414,
8.46875,76.09139,35.95052,352.62270,0.05639,1.81710,0.07134,,,0.60417,0.79233,0.05075,-0.06796,
8.47656,80.35207,64.67964,352.20094,-0.22555,2.09380,0.18174,,,0.60106,0.79690,0.03401,-0.05022,
8.48438,69.19809,80.96421,348.96748,-0.34736,2.12265,0.14881,,,0.59812,0.80057,0.01812,-0.03167,
8.49219,63.96749,100.98215,342.88716,-0.49521,2.13634,0.10136,,,0.59507,0.80357,0.00339,-0.01226,
8.50000,56.93563,128.43126,336.24450,-0.92745,2.24780,0.04761,,,0.59203,0.80582,-0.00986,0.00840,
8.50781,51.63576,133.72908,329.00435,-0.96281,2.22922,-0.06666,,,0.58892,0.80736,-0.02250,0.02904,
8.51563,45.67773,137.71134,313.32908,-0.98491,2.15785,-0.21871,,,0.58584,0.80821,-0.03411,0.04925,
8.52344,45.33133,144.32472,290.72997,-1.15290,2.07180,-0.28359,,,0.58256,0.80866,-0.04419,0.06889,
8.53125,44.60390,144.50250,274.42206,-1.19416,1.96816,-0.35671,,,0.57911,0.80874,-0.05335,0.08786,
8.53906,40.37785,130.81350,245.11001,-1.50114,1.95937,-0.28553,,,0.57579,0.80851,-0.06144,0.10487,
8.54688,27.63044,115.59560,214.95444,-1.74182,1.74915,-0.38334,,,0.57314,0.80776,-0.06853,0.11976,
8.55469,25.06710,103.18661,200.36870,-1.83269,1.63085,-0.37269,,,0.57054,0.80686,-0.07531,0.13336,
8.56250,24.37431,73.17749,171.90015,-1.97955,1.48272,-0.36833,,,0.56797,0.80620,-0.08168,0.14417,
8.57031,23.09264,50.13730,142.76383,-2.22956,1.42112,-0.35041,,,0.56555,0.80576,-0.08734,0.15255,
8.57813,21.01426,36.48386,123.22246,-2.29047,1.43725,-0.33056,,,0.56331,0.80543,-0.09246,0.15941,
8.58594,15.57583,6.08361,78.19998,-2.44077,1.34926,-0.37947,,,0.56164,0.80546,-0.09634,0.16282,
8.59375,12.63145,-10.94763,52.75402,-2.41081,1.32726,-0.35574,,,0.56029,0.80572,-0.09950,0.16430,
8.60156,2.72450,-42.84122,3.47883,-1.93633,1.20749,-0.52425,,,0.55981,0.80628,-0.10129,0.16208,
8.60938,-3.51065,-35.94339,-41.68423,-2.10284,1.11998,-0.41578,,,0.56022,0.80683,-0.10039,0.15847,
8.61719,-0.42772,-49.27683,-59.25741,-2.01344,1.25100,-0.47001,,,0.56054,0.80774,-0.09901,0.15348,
8.62500,6.18847,-88.35270,-85.68747,-1.18433,1.63182,-0.36542,,,0.56048,0.80945,-0.09759,0.14536,
8.63281,-12.34377,-83.73044,-115.56187,-1.22608,1.49983,0.12605,,,0.56173,0.81054,-0.09452,0.13622,
8.64063,-18.23252,-70.18366,-141.60531,-0.12879,1.60836,-0.07732,,,0.56357,0.81135,-0.08954,0.12679,
8.64844,-43.51951,-35.69450,-119.32253,1.53926,1.53503,0.13429,,,0.56677,0.81068,-0.08469,0.11997,
8.65625,-37.63076,-45.50791,-116.58111,1.67089,1.01145,0.27955,,,0.56952,0.81024,-0.08031,0.11274,
8.66406,-15.49599,-22.21884,-127.82794,1.26714,0.94105,0.09361,,,0.57122,0.81047,-0.07424,0.10647,
8.67188,20.70250,104.96441,-150.63793,0.01071,1.21629,-0.05988,,,0.57166,0.81121,-0.06167,0.10650,
8.67969,20.04435,140.48469,-155.62871,-0.43971,1.43481,0.10959,,,0.57222,0.81154,-0.04743,0.10827,
8.68750,10.72627,143.64916,-164.20442,-0.54187,1.39472,-0.30925,,,0.57324,0.81134,-0.03266,0.10983,
8.69531,30.22842,137.21355,-162.48225,-0.37733,1.35072,-0.33831,,,0.57303,0.81177,-0.01807,0.11112,
8.70313,39.89290,109.90667,-154.67976,-0.45690,1.45876,-0.15673,,,0.57208,0.81261,-0.00491,0.11119,
8.71094,36.60213,35.09718,-149.65383,-0.46132,1.70906,0.00258,,,0.57117,0.81377,0.00503,0.10730,
8.71875,21.18746,5.47916,-150.98939,-0.25993,1.41526,-0.27488,,,0.57107,0.81446,0.01378,0.10171,
8.72656,26.66053,8.25252,-153.59022,-0.27614,1.24220,-0.41966,,,0.57061,0.81525,0.02281,0.09615,
8.73438,38.29947,18.84816,-164.16927,-0.55955,1.30184,-0.44774,,,0.56949,0.81631,0.03292,0.09074,
8.74219,23.30048,5.87028,-163.11488,-0.36210,1.38055,-0.33201,,,0.56916,0.81676,0.04237,0.08468,
8.75000,-28.86691,-19.37437,-143.50322,-0.34393,1.09505,-0.08942,,,0.57162,0.81529,0.04944,0.07810,
8.75781,-19.20244,-36.65451,-141.11326,-0.56987,0.80613,0.06117,,,0.57354,0.81422,0.05576,0.07062,
8.76563,-13.83328,-60.93915,-139.74256,-0.49472,0.90634,-0.03374,,,0.57518,0.81340,0.06106,0.06182,
8.77344,-18.16324,-86.53935,-120.90411,-0.26239,0.98945,-0.08603,,,0.57703,0.81250,0.06430,0.05235,
8.78125,-11.92810,-105.84617,-101.01128,-0.18233,1.01585,-0.09281,,,0.57849,0.81192,0.06568,0.04257,
8.78906,-9.22620,-107.23285,-95.10669,-0.15433,1.08625,-0.01195,,,0.57973,0.81140,0.06669,0.03292,
8.79688,-14.42216,-89.84604,-87.40964,0.19981,1.15224,-0.06085,,,0.58112,0.81061,0.06794,0.02456,
8.80469,-18.89068,-53.22353,-80.90756,0.12024,1.06376,-0.15382,,,0.58253,0.80955,0.07027,0.01850,
8.81250,-18.64820,-38.18341,-80.34522,0.05786,1.07745,-0.24292,,,0.58383,0.80846,0.07316,0.01329,
8.82031,-18.02469,-11.44542,-76.37368,-0.08016,1.03247,-0.28504,,,0.58495,0.80736,0.07689,0.00971,
8.82813,-15.39207,-7.00094,-73.66741,-0.21573,1.02172,-0.19595,,,0.58587,0.80635,0.08066,0.00647,
8.83594,-17.64365,-26.98332,-67.37622,-0.08213,1.07549,-0.08700,,,0.58701,0.80528,0.08328,0.00239,
8.84375,-17.08941,-39.39231,-52.36872,-0.01484,1.00705,-0.16980,,,0.58818,0.80429,0.08457,-0.00177,
8.85156,-13.79864,-30.11223,-49.66245,0.00629,1.00167,-0.17464,,,0.58910,0.80344,0.08609,-0.00533,
8.85938,-7.59814,-3.26757,-49.69760,-0.15728,1.02709,-0.17658,,,0.58952,0.80284,0.08868,-0.00746,
8.86719,-6.21255,2.91914,-43.75787,-0.11209,0.92199,-0.20127,,,0.58981,0.80232,0.09120,-0.00902,
8.87500,-2.64466,-1.77423,-39.18884,-0.25650,0.89021,-0.16399,,,0.58994,0.80197,0.09327,-0.01068,
8.88281,1.96242,-16.84990,-34.61982,-0.24274,0.97039,-0.15818,,,0.58992,0.80181,0.09448,-0.01301,
8.89063,5.77279,-27.26776,-30.54284,-0.26239,0.96061,-0.10831,,,0.58975,0.80182,0.09505,-0.01577,
8.89844,7.50477,-31.96114,-28.01230,-0.14303,0.96110,-0.10637,,,0.58952,0.80190,0.09529,-0.01869,
8.90625,10.03347,-37.79229,-21.47508,-0.16219,0.95034,-0.09426,,,0.58918,0.80211,0.09493,-0.02168,
8.91406,11.38442,-35.26783,-22.35374,-0.21524,1.02563,-0.04681,,,0.58876,0.80237,0.09472,-0.02458,
8.92188,10.79555,-36.69006,-19.12027,-0.04824,0.98407,-0.07102,,,0.58837,0.80261,0.09427,-0.02743,
8.92969,13.32424,-30.61001,-18.76881,-0.04381,0.97430,-0.10395,,,0.58780,0.80296,0.09405,-0.02994,
8.93750,13.18569,-25.09886,-18.69852,-0.07279,0.99825,-0.15382,,,0.58720,0.80332,0.09404,-0.03215,
8.94531,13.08177,-13.04543,-18.41735,-0.11062,1.00265,-0.14172,,,0.58653,0.80369,0.09449,-0.03368,
8.95313,11.24586,-11.87209,-15.39476,-0.07034,0.96159,-0.19643,,,0.58596,0.80401,0.09484,-0.03502,
8.96094,10.51843,-11.40986,-15.74622,-0.13861,0.97381,-0.20563,,,0.58542,0.80430,0.09522,-0.03634,
8.96875,8.09365,-15.42767,-15.60564,-0.25453,0.97723,-0.26277,,,0.58503,0.80448,0.09544,-0.03786,
8.97656,6.08455,-20.22771,-14.97300,-0.20394,0.96159,-0.26616,,,0.58479,0.80458,0.09544,-0.03961,
8.98438,3.20945,-32.85003,-11.91527,-0.10718,0.92150,-0.26906,,,0.58480,0.80453,0.09477,-0.04191,
8.99219,0.75003,-32.45892,-12.58305,-0.17398,0.97039,-0.25115,,,0.58493,0.80439,0.09416,-0.04419,
9.00000,-0.77411,-31.49891,-11.88012,-0.14844,0.97234,-0.23469,,,0.58514,0.80418,0.09356,-0.04639,
9.00781,-2.85250,-32.28114,-10.43912,-0.04136,0.96501,-0.21386,1021.897,25.4,0.58546,0.80390,0.09285,-0.04856,
9.01563,-4.09953,-26.84109,-11.03661,-0.13272,1.00265,-0.17464,,,0.58582,0.80357,0.09240,-0.05044,
9.02344,-4.65376,-21.82772,-12.33703,-0.22064,1.04127,-0.14075,,,0.58617,0.80323,0.09222,-0.05210,
9.03125,-6.66286,-23.67663,-11.03661,-0.13468,1.00412,-0.19934,,,0.58665,0.80281,0.09190,-0.05380,
9.03906,-3.19889,-22.68106,-14.12949,-0.22850,0.88337,-0.42208,,,0.58691,0.80251,0.09178,-0.05558,
9.04688,2.10098,-22.60995,-14.16464,-0.28155,0.87408,-0.30344,,,0.58688,0.80242,0.09164,-0.05740,
9.05469,8.68252,-43.83679,-17.25752,-0.06444,1.13562,0.17399,,,0.58661,0.80248,0.09080,-0.06054,
9.06250,6.70806,-53.01019,-18.06588,0.09077,1.19184,0.24226,,,0.58650,0.80241,0.08963,-0.06420,
9.07031,-0.04668,-49.77461,-26.43072,0.07849,1.09309,0.07570,,,0.58669,0.80202,0.08909,-0.06798,
9.07813,1.89314,-26.41442,-41.50850,0.21897,1.00314,-0.14898,,,0.58656,0.80172,0.09029,-0.07109,
9.08594,2.68986,-11.16097,-49.34614,0.12024,1.03198,-0.02986,,,0.58624,0.80146,0.09252,-0.07369,
9.09375,-0.04668,-19.76548,-59.71431,0.19785,1.01585,-0.09959,,,0.58606,0.80097,0.09499,-0.07715,
9.10156,-4.65376,7.25696,-75.88163,0.16690,1.04127,-0.23904,,,0.58586,0.80032,0.09945,-0.07975,
9.10938,-5.69295,22.29708,-83.36781,0.10403,1.06963,-0.26761,,,0.58556,0.79964,0.10491,-0.08182,
9.11719,-9.26084,27.80823,-92.36527,0.02741,1.12585,-0.26422,,,0.58534,0.79874,0.11111,-0.08392,
9.12500,-12.13594,27.73712,-101.04642,-0.23980,1.20260,-0.16012,,,0.58520,0.79763,0.11778,-0.08635,
9.13281,-14.28360,27.02600,-103.85813,-0.14893,1.23046,-0.08845,,,0.58513,0.79636,0.12459,-0.08890,
9.14063,-19.16780,13.79923,-104.10415,-0.06395,1.25002,-0.04681,,,0.58541,0.79478,0.13090,-0.09214,
9.14844,-23.25528,9.35475,-106.21294,-0.11356,1.26957,-0.03955,,,0.58591,0.79293,0.13717,-0.09566,
9.15625,-27.58524,-0.92089,-109.13008,-0.11012,1.24122,-0.11121,,,0.58668,0.79078,0.14320,-0.09981,
9.16406,-33.61255,-1.16978,-115.28069,-0.03399,1.30282,-0.07828,,,0.58770,0.78828,0.14959,-0.10415,
9.17188,-35.93341,-3.26757,-117.53006,-0.01484,1.29842,-0.13203,,,0.58882,0.78559,0.15602,-0.10866,
9.17969,-40.92153,-2.27201,-127.01958,-0.16366,1.31553,-0.14850,,,0.59007,0.78254,0.16303,-0.11343,
9.18750,-43.65807,-1.88089,-135.13838,-0.04431,1.36490,-0.22839,,,0.59135,0.77923,0.17049,-0.11848,
9.19531,-44.52406,-5.25870,-138.61787,-0.03792,1.36246,-0.25454,,,0.59263,0.77575,0.17799,-0.12382,
9.20313,-45.32077,-2.23645,-148.38856,-0.05609,1.37810,-0.29134,,,0.59377,0.77205,0.18612,-0.12937,
9.21094,-44.66262,0.32357,-152.74671,-0.14058,1.44068,-0.27149,,,0.59473,0.76826,0.19455,-0.13496,
9.21875,-45.66717,1.95914,-160.68978,-0.11356,1.53454,-0.29618,,,0.59558,0.76425,0.20345,-0.14075,
9.22656,-45.90965,-9.56096,-167.78935,-0.09637,1.64453,-0.33492,,,0.59646,0.75991,0.21222,-0.14741,
9.23438,-45.42469,-7.32094,-172.63954,-0.21425,1.68560,-0.25986,,,0.59714,0.75544,0.22130,-0.15413,
9.24219,-45.80573,-14.11210,-182.09391,0.05393,1.80537,-0.27633,,,0.59775,0.75062,0.23056,-0.16156,
9.25000,-45.87501,-33.88115,-188.13908,0.16985,1.90559,-0.21386,,,0.59851,0.74535,0.23929,-0.17022,
9.25781,-45.70181,-34.94783,-191.97004,0.15069,1.97892,-0.21047,,,0.59912,0.73988,0.24812,-0.17905,
9.26563,-48.95794,-40.31676,-197.73404,0.11778,2.15491,-0.21241,,,0.59981,0.73398,0.25701,-0.18831,
9.27344,-56.44012,-49.34794,-202.86541,0.27791,2.38615,-0.16690,,,0.60083,0.72740,0.26582,-0.19805,
9.28125,-59.69625,-74.94815,-199.24533,0.26759,2.51179,-0.23420,,,0.60240,0.72026,0.27340,-0.20881,
9.28906,-69.91496,-92.01495,-204.97419,0.40611,2.68387,-0.42643,,,0.60455,0.71217,0.28063,-0.22039,
9.29688,-71.54303,-83.44599,-211.19509,0.43263,2.53427,-0.48551,,,0.60638,0.70384,0.28847,-0.23173,
9.30469,-66.52027,-75.97927,-222.05531,0.69934,2.02096,-0.83947,,,0.60747,0.69544,0.29698,-0.24320,
9.31250,-44.93974,-45.33013,-230.03354,0.68362,1.85524,-0.61576,,,0.60663,0.68809,0.30671,-0.25392,
9.32031,-37.66540,-22.18328,-229.08459,0.57556,1.90559,-0.51892,,,0.60482,0.68128,0.31714,-0.26360,
9.32813,-28.97083,9.99476,-215.65868,0.28970,1.82542,-0.48309,,,0.60201,0.67553,0.32804,-0.27136,
9.33594,-26.23430,23.25708,-194.81689,0.31524,1.55116,-0.55233,,,0.59904,0.67047,0.33841,-0.27766,
9.34375,-23.80952,29.69269,-180.89894,0.41200,1.38397,-0.57121,,,0.59597,0.66584,0.34831,-0.28311,
9.35156,-12.79409,23.68375,-148.63458,0.53971,1.10336,-0.28069,,,0.59309,0.66222,0.35624,-0.28774,
9.35938,-2.09042,1.67469,-131.55346,0.40021,0.83595,0.24226,,,0.59055,0.65895,0.36227,-0.29292,
9.36719,-0.18524,7.79029,-127.47648,0.06768,0.83741,0.29117,,,0.58780,0.65593,0.36829,-0.29768,
9.37500,-9.84972,19.38150,-114.96438,-0.20099,0.71471,-0.21193,,,0.58540,0.65302,0.37440,-0.30116,
9.38281,-15.32279,37.37275,-99.64057,-0.41957,0.51085,-0.27052,,,0.58307,0.65062,0.38063,-0.30307,
9.39063,3.34801,-1.13422,-45.93694,-0.26337,0.36810,-0.59785,,,0.58199,0.64954,0.38255,-0.30503,
9.39844,18.10452,-53.89909,-9.73620,0.46849,0.76457,-0.24776,,,0.58239,0.64888,0.38046,-0.30826,
9.40625,9.02892,-65.27696,9.41856,0.79512,0.70835,-0.07974,,,0.58388,0.64811,0.37725,-0.31100,
9.41406,0.54219,-54.89465,40.55823,1.02696,0.33584,-0.05456,,,0.58613,0.64801,0.37325,-0.31181,
9.42188,17.86205,-25.63220,64.45775,1.06281,0.23366,-0.06424,,,0.58735,0.64981,0.36899,-0.31082,
9.42969,23.75080,-4.72536,79.85186,0.99306,0.19015,-0.11460,,,0.58810,0.65266,0.36475,-0.30841,
9.43750,32.44536,26.81267,115.06850,0.65366,0.11340,-0.21629,,,0.58839,0.65737,0.36001,-0.30340,
9.44531,38.02235,31.64826,130.60319,0.52251,0.12611,-0.23904,,,0.58859,0.66273,0.35462,-0.29766,
9.45313,46.54372,31.89715,159.35291,0.37663,0.19406,-0.28989,,,0.58891,0.66906,0.34773,-0.29092,
9.46094,52.32855,29.33713,185.32606,0.29903,0.29330,-0.26471,,,0.58945,0.67608,0.33939,-0.28336,
9.46875,55.30756,27.16823,196.99465,0.29903,0.36761,-0.21774,,,0.59002,0.68332,0.33030,-0.27543,
9.47656,57.07419,24.96377,219.62890,0.24058,0.51085,-0.07393,,,0.59085,0.69095,0.31996,-0.26668,
9.48438,52.46711,16.25258,242.15771,0.16445,0.56756,0.00306,,,0.59234,0.69854,0.30820,-0.25727,
9.49219,49.86913,10.45698,253.89659,0.09077,0.56707,0.04132,,,0.59411,0.70596,0.29561,-0.24752,
9.50000,47.58291,-8.49428,273.78943,0.04951,0.57391,0.05100,,,0.59651,0.71313,0.28123,-0.23775,
9.50781,50.28481,-27.72999,288.09400,0.15167,0.64480,0.03986,,,0.59915,0.72011,0.26522,-0.22830,
9.51563,51.94751,-34.69894,294.73666,0.23419,0.67413,0.02243,,,0.60169,0.72687,0.24847,-0.21885,
9.52344,58.49442,-28.65444,306.65127,0.38891,0.76555,0.02631,,,0.60371,0.73387,0.23117,-0.20863,
9.53125,62.33942,-19.12548,312.76674,0.41838,0.81101,0.02243,,,0.60521,0.74092,0.21379,-0.19764,
9.53906,70.27192,6.51028,324.85708,0.32703,0.94399,0.04325,,,0.60579,0.74845,0.19664,-0.18488,
9.54688,73.59733,17.99482,337.12316,0.19735,1.09602,0.06988,,,0.60587,0.75602,0.17920,-0.17097,
9.55469,73.49341,20.02150,343.06289,0.12662,1.16789,0.07570,,,0.60567,0.76326,0.16144,-0.15662,
9.56250,73.28557,16.43036,353.53650,0.07014,1.26517,0.04567,,,0.60527,0.77012,0.14289,-0.14193,
9.57031,75.91819,14.72368,362.85029,0.08291,1.34584,-0.01292,,,0.60446,0.77668,0.12367,-0.12687,
9.57813,78.27369,15.22146,367.13814,0.07849,1.41183,-0.03083,,,0.60317,0.78288,0.10414,-0.11156,
9.58594,83.91996,12.94589,374.48373,0.03527,1.56632,-0.05020,,,0.60125,0.78881,0.08401,-0.09603,
9.59375,89.80871,6.08361,377.96322,0.02446,1.73840,-0.05843,,,0.59865,0.79442,0.06332,-0.08069,
9.60156,94.45043,5.97695,378.03351,-0.00403,1.83470,-0.05843,,,0.59538,0.79965,0.04255,-0.06532,
9.60938,104.01099,11.16810,375.81929,-0.11258,2.09429,-0.00275,,,0.59115,0.80472,0.02205,-0.04974,
9.61719,106.40113,13.72812,373.46449,-0.08016,2.16958,0.02388,,,0.58636,0.80933,0.00175,-0.03408,
9.62500,106.71288,40.75056,358.38670,-0.41466,2.33726,0.03599,,,0.58112,0.81346,-0.01664,-0.01752,
9.63281,108.34095,50.77731,352.90387,-0.78107,2.56898,0.00645,,,0.57541,0.81715,-0.03431,-0.00060,
9.64063,102.62540,54.08400,346.75326,-0.81840,2.60516,-0.02986,,,0.56966,0.82010,-0.05149,0.01624,
9.64844,89.84335,63.71963,325.80603,-0.99130,2.54258,-0.06570,,,0.56436,0.82215,-0.06710,0.03275,
9.65625,80.38671,77.30196,292.13583,-1.27913,2.44481,-0.07441,,,0.55943,0.82354,-0.08029,0.04866,
9.66406,72.76597,83.95090,273.40282,-1.44613,2.28495,-0.04100,,,0.55480,0.82437,-0.09217,0.06417,
9.67188,67.18898,106.95553,218.60966,-1.60478,1.92074,0.07327,,,0.55067,0.82495,-0.10008,0.07884,
9.67969,64.72956,113.07114,192.67165,-1.68779,1.95497,0.16770,,,0.54670,0.82535,-0.10630,0.09284,
9.68750,42.14448,121.17787,158.47425,-1.87002,1.84888,0.17399,,,0.54416,0.82492,-0.11041,0.10584,
9.69531,18.00060,125.40902,128.07265,-2.20844,1.62498,-0.01534,,,0.54314,0.82366,-0.11280,0.11775,
9.70313,17.13461,123.02677,112.32709,-2.39755,1.51938,-0.14026,,,0.54219,0.82239,-0.11439,0.12891,
