Gait Up - Physilog data export
Created on: YYYY-MM-DD hh:mm:ss
Total data points: 22091

Time [128 hz],Gyro [128 hz],,,Accel [128 hz],,,Baro [1 hz],,Event [128 hz],Quaternion [128 hz],,,,
Time,Gyro X,Gyro Y,Gyro Z,Accel X,Accel Y,Accel Z,Pressure,Temperature,Quat W,Quat X,Quat Y,Quat Z,
[s],[deg/s],[deg/s],[deg/s],[g],[g],[g],[mBar],[degree C],[],[],[],[],
0.00781,0.43541,-0.63692,-0.32574,0.20408,0.91438,0.37231,1020.926,27.5,0.82528,0.55054,-0.12577,-0.00026,
0.01563,0.36666,-0.67207,-0.36074,0.19823,0.91389,0.37328,,,0.82526,0.55057,-0.12579,-0.00030,
0.02344,0.19477,-0.88292,-0.43075,0.19336,0.90709,0.37086,,,0.82524,0.55058,-0.12582,-0.00036,
0.03125,0.16039,-0.95320,-0.57078,0.19774,0.90271,0.37038,,,0.82523,0.55060,-0.12586,-0.00043,
0.03906,-0.08026,-1.16406,-0.71080,0.19336,0.90466,0.36941,,,0.82522,0.55060,-0.12590,-0.00051,
0.04688,-0.14902,-1.48034,-0.81581,0.19384,0.90077,0.37280,,,0.82522,0.55060,-0.12595,-0.00061,
0.05469,-0.11464,-1.65605,-0.85082,0.19141,0.90417,0.36989,,,0.82521,0.55060,-0.12601,-0.00072,
0.06250,-0.11464,-1.79662,-0.99084,0.19189,0.90757,0.36844,,,0.82519,0.55060,-0.12607,-0.00085,
0.07031,-0.01150,-1.93719,-1.16586,0.19287,0.90854,0.37038,,,0.82518,0.55061,-0.12614,-0.00099,
0.07813,0.05725,-2.11290,-1.27088,0.19628,0.90271,0.37328,,,0.82516,0.55062,-0.12621,-0.00114,
0.08594,0.05725,-2.07776,-1.27088,0.19482,0.90952,0.36989,,,0.82514,0.55064,-0.12628,-0.00129,
0.09375,0.05725,-1.90205,-1.37590,0.19433,0.91486,0.36650,,,0.82512,0.55065,-0.12633,-0.00143,
0.10156,-0.01150,-2.04262,-1.44591,0.20213,0.91875,0.36747,,,0.82510,0.55066,-0.12639,-0.00159,
0.10938,-0.14902,-1.90205,-1.55092,0.20408,0.91680,0.36554,,,0.82509,0.55067,-0.12644,-0.00175,
0.11719,-0.32091,-1.90205,-1.51592,0.19872,0.91583,0.36941,,,0.82509,0.55066,-0.12649,-0.00191,
0.12500,-0.42404,-1.90205,-1.69094,0.20018,0.91097,0.36554,,,0.82509,0.55065,-0.12654,-0.00208,
0.13281,-0.56156,-1.93719,-1.69094,0.20359,0.90903,0.36844,,,0.82509,0.55063,-0.12658,-0.00226,
0.14063,-0.66469,-1.90205,-1.79596,0.20115,0.90660,0.36796,,,0.82510,0.55061,-0.12662,-0.00243,
0.14844,-0.66469,-1.93719,-1.72595,0.19482,0.90271,0.36263,,,0.82511,0.55059,-0.12667,-0.00261,
0.15625,-0.59593,-1.93719,-1.65594,0.19920,0.89639,0.36941,,,0.82511,0.55057,-0.12671,-0.00278,
0.16406,-0.59593,-1.69119,-1.76095,0.20359,0.89834,0.36457,,,0.82512,0.55055,-0.12674,-0.00295,
0.17188,-0.35529,-1.72633,-1.62093,0.20700,0.89542,0.37086,,,0.82512,0.55055,-0.12678,-0.00311,
0.17969,-0.18340,-1.58577,-1.58593,0.20651,0.89980,0.37086,,,0.82511,0.55055,-0.12681,-0.00326,
0.18750,0.05725,-1.48034,-1.72595,0.20115,0.90709,0.36796,,,0.82509,0.55057,-0.12683,-0.00341,
0.19531,0.05725,-1.51548,-1.69094,0.20700,0.90757,0.37425,,,0.82508,0.55058,-0.12685,-0.00356,
0.20313,0.09163,-1.41005,-1.62093,0.20359,0.90563,0.37619,,,0.82506,0.55060,-0.12687,-0.00370,
0.21094,0.12601,-1.30463,-1.72595,0.20505,0.90952,0.37522,,,0.82505,0.55062,-0.12688,-0.00385,
0.21875,0.29790,-1.44520,-1.51592,0.20213,0.91340,0.37231,,,0.82502,0.55065,-0.12690,-0.00399,
0.22656,0.16039,-1.23434,-1.48091,0.21334,0.91486,0.37135,,,0.82501,0.55067,-0.12691,-0.00411,
0.23438,0.02287,-1.19920,-1.30589,0.20456,0.91486,0.36747,,,0.82499,0.55069,-0.12693,-0.00423,
0.24219,-0.14902,-1.16406,-1.23588,0.20651,0.91146,0.37522,,,0.82499,0.55069,-0.12695,-0.00435,
0.25000,-0.14902,-1.09377,-0.92083,0.20456,0.90854,0.37619,,,0.82498,0.55069,-0.12698,-0.00444,
0.25781,-0.25215,-1.09377,-0.99084,0.20456,0.89882,0.37958,,,0.82498,0.55068,-0.12700,-0.00454,
0.26563,-0.28653,-1.19920,-1.09585,0.20798,0.90174,0.37086,,,0.82498,0.55068,-0.12703,-0.00465,
0.27344,-0.18340,-1.12892,-1.02584,0.20603,0.89348,0.37909,,,0.82498,0.55067,-0.12705,-0.00475,
0.28125,-0.14902,-1.09377,-1.02584,0.20115,0.89299,0.37377,,,0.82498,0.55067,-0.12708,-0.00485,
0.28906,0.05725,-0.91806,-1.13086,0.20262,0.89737,0.36844,,,0.82497,0.55069,-0.12709,-0.00495,
0.29688,0.26352,-0.81263,-1.16586,0.20603,0.89834,0.37667,,,0.82495,0.55071,-0.12709,-0.00504,
0.30469,0.40104,-0.88292,-1.06085,0.20554,0.90417,0.37909,,,0.82493,0.55074,-0.12710,-0.00513,
0.31250,0.53855,-0.70721,-0.88582,0.20505,0.90320,0.38006,,,0.82490,0.55078,-0.12710,-0.00520,
0.32031,0.77920,-0.95320,-0.78081,0.20992,0.91632,0.38006,,,0.82486,0.55083,-0.12713,-0.00528,
0.32813,0.64168,-0.88292,-0.78081,0.20798,0.91680,0.38055,,,0.82483,0.55087,-0.12715,-0.00535,
0.33594,0.33228,-0.88292,-0.67579,0.20554,0.91680,0.38248,,,0.82481,0.55090,-0.12717,-0.00542,
0.34375,-0.11464,-0.84778,-0.64079,0.20749,0.91972,0.38006,,,0.82481,0.55090,-0.12720,-0.00548,
0.35156,-0.38966,-0.95320,-0.60578,0.20603,0.91438,0.38248,,,0.82481,0.55088,-0.12723,-0.00556,
0.35938,-0.73345,-1.05863,-0.67579,0.19920,0.90660,0.37813,,,0.82483,0.55084,-0.12726,-0.00564,
0.36719,-0.83658,-1.19920,-0.64079,0.19872,0.90125,0.38055,,,0.82485,0.55080,-0.12730,-0.00573,
0.37500,-0.83658,-1.12892,-0.64079,0.20749,0.89834,0.37619,,,0.82487,0.55076,-0.12734,-0.00582,
0.38281,-0.83658,-1.33977,-0.67579,0.19531,0.90417,0.38103,,,0.82489,0.55072,-0.12739,-0.00591,
0.39063,-0.52718,-1.33977,-0.81581,0.19677,0.90028,0.37958,,,0.82490,0.55069,-0.12744,-0.00601,
0.39844,-0.45842,-1.19920,-0.92083,0.20115,0.90077,0.37667,,,0.82491,0.55068,-0.12747,-0.00611,
0.40625,-0.28653,-1.30463,-0.88582,0.19823,0.90660,0.37570,,,0.82490,0.55067,-0.12751,-0.00621,
0.41406,-0.32091,-1.30463,-0.74580,0.20456,0.90952,0.38345,,,0.82491,0.55066,-0.12756,-0.00631,
0.42188,-0.42404,-1.23434,-0.92083,0.19920,0.91097,0.37619,,,0.82491,0.55064,-0.12759,-0.00641,
0.42969,-0.66469,-1.19920,-0.81581,0.20408,0.91486,0.37619,,,0.82492,0.55061,-0.12763,-0.00651,
0.43750,-0.83658,-1.33977,-0.85082,0.20505,0.91292,0.37377,,,0.82494,0.55057,-0.12767,-0.00661,
0.44531,-0.83658,-1.55062,-0.88582,0.19725,0.91049,0.37958,,,0.82496,0.55053,-0.12772,-0.00673,
0.45313,-1.04285,-1.76148,-0.88582,0.19969,0.91146,0.37377,,,0.82498,0.55048,-0.12779,-0.00685,
0.46094,-1.04285,-1.83176,-0.92083,0.20115,0.91340,0.37474,,,0.82501,0.55042,-0.12786,-0.00698,
0.46875,-1.07723,-1.86690,-0.88582,0.19823,0.90903,0.37474,,,0.82503,0.55037,-0.12793,-0.00711,
0.47656,-1.18036,-1.86690,-0.88582,0.19774,0.90903,0.37231,,,0.82506,0.55031,-0.12800,-0.00724,
0.48438,-1.24912,-1.86690,-0.92083,0.19774,0.90611,0.37086,,,0.82509,0.55025,-0.12807,-0.00737,
0.49219,-1.14599,-2.04262,-1.06085,0.20262,0.90271,0.37328,,,0.82511,0.55019,-0.12814,-0.00752,
0.50000,-0.97410,-2.00747,-1.09585,0.20262,0.90077,0.37086,,,0.82513,0.55015,-0.12822,-0.00767,
0.50781,-0.69907,-2.11290,-1.06085,0.20164,0.89980,0.37280,,,0.82514,0.55011,-0.12829,-0.00781,
0.51563,-0.69907,-2.04262,-1.16586,0.20067,0.89688,0.36893,,,0.82515,0.55008,-0.12836,-0.00796,
0.52344,-0.08026,-2.14804,-1.16586,0.20359,0.89737,0.36941,,,0.82513,0.55009,-0.12844,-0.00811,
0.53125,0.29790,-2.25347,-1.20087,0.20115,0.89785,0.37231,,,0.82510,0.55011,-0.12852,-0.00826,
0.53906,0.40104,-2.35890,-1.23588,0.20408,0.90077,0.37328,,,0.82506,0.55015,-0.12861,-0.00841,
0.54688,0.81357,-2.35890,-1.09585,0.20603,0.90417,0.37328,,,0.82501,0.55020,-0.12870,-0.00855,
0.55469,0.88233,-2.35890,-1.06085,0.20749,0.90757,0.37425,,,0.82496,0.55026,-0.12880,-0.00869,
0.56250,1.05422,-2.11290,-1.09585,0.20115,0.90514,0.37861,,,0.82490,0.55033,-0.12887,-0.00883,
0.57031,1.26049,-1.90205,-1.06085,0.20213,0.90806,0.37522,,,0.82483,0.55040,-0.12894,-0.00895,
0.57813,1.32925,-1.72633,-1.02584,0.20554,0.90709,0.37377,,,0.82477,0.55049,-0.12900,-0.00906,
0.58594,1.26049,-1.65605,-1.02584,0.21236,0.90174,0.37328,,,0.82470,0.55057,-0.12906,-0.00916,
0.59375,1.32925,-1.55062,-0.95583,0.20798,0.90417,0.37280,,,0.82464,0.55065,-0.12911,-0.00927,
0.60156,1.32925,-1.55062,-0.88582,0.20651,0.90563,0.37231,,,0.82458,0.55073,-0.12916,-0.00936,
0.60938,1.39800,-1.23434,-0.74580,0.20700,0.90028,0.37425,,,0.82451,0.55081,-0.12921,-0.00944,
0.61719,1.50114,-1.16406,-0.74580,0.20408,0.90271,0.37231,,,0.82445,0.55090,-0.12924,-0.00951,
0.62500,1.60427,-1.05863,-0.67579,0.20992,0.90174,0.37135,,,0.82438,0.55100,-0.12928,-0.00957,
0.63281,1.94806,-0.70721,-0.71080,0.20798,0.90077,0.37038,,,0.82430,0.55112,-0.12929,-0.00962,
0.64063,1.87930,-0.46121,-0.60578,0.21382,0.90320,0.36893,,,0.82422,0.55123,-0.12930,-0.00966,
0.64844,2.08557,-0.39093,-0.64079,0.21480,0.90514,0.37474,,,0.82414,0.55135,-0.12930,-0.00969,
0.65625,2.22308,-0.25036,-0.50076,0.21285,0.90757,0.37038,,,0.82405,0.55148,-0.12929,-0.00971,
0.66406,2.22308,0.06592,-0.43075,0.21139,0.91049,0.37716,,,0.82397,0.55161,-0.12928,-0.00971,
0.67188,2.25746,0.31192,-0.46576,0.20603,0.90660,0.37861,,,0.82389,0.55174,-0.12924,-0.00970,
0.67969,2.18870,0.59306,-0.36074,0.21090,0.90806,0.37183,,,0.82381,0.55186,-0.12920,-0.00968,
0.68750,2.11995,1.04991,-0.18572,0.20603,0.90903,0.37667,,,0.82374,0.55199,-0.12913,-0.00964,
0.69531,2.15433,1.19048,-0.15071,0.21480,0.91486,0.37183,,,0.82367,0.55211,-0.12906,-0.00958,
0.70313,2.05119,1.33105,-0.08070,0.21236,0.90417,0.37280,,,0.82360,0.55223,-0.12898,-0.00952,
0.71094,2.05119,1.57704,0.09432,0.20992,0.90903,0.36796,,,0.82354,0.55234,-0.12890,-0.00943,
0.71875,2.11995,1.85818,0.19934,0.20554,0.90417,0.36844,,,0.82347,0.55246,-0.12881,-0.00933,
0.72656,2.29184,2.13932,0.26935,0.21382,0.89542,0.36699,,,0.82341,0.55259,-0.12870,-0.00922,
0.73438,2.49811,2.13932,0.33936,0.21090,0.90174,0.36602,,,0.82333,0.55273,-0.12859,-0.00910,
0.74219,2.63562,2.24475,0.37437,0.21529,0.90125,0.36893,,,0.82325,0.55287,-0.12848,-0.00897,
0.75000,2.70438,2.56103,0.58440,0.21626,0.89834,0.36650,,,0.82317,0.55302,-0.12836,-0.00881,
0.75781,3.04816,2.77188,0.54939,0.22162,0.90417,0.36989,,,0.82308,0.55319,-0.12823,-0.00865,
0.76563,3.15130,2.91245,0.61940,0.21577,0.90271,0.36844,,,0.82299,0.55336,-0.12809,-0.00848,
0.77344,3.15130,3.01788,0.72442,0.22065,0.91000,0.36989,,,0.82290,0.55353,-0.12795,-0.00830,
0.78125,3.08254,3.08816,0.82943,0.21821,0.91146,0.36602,,,0.82281,0.55370,-0.12781,-0.00811,
0.78906,3.08254,3.19359,1.14448,0.21772,0.91680,0.36796,,,0.82272,0.55386,-0.12767,-0.00790,
0.79688,2.87627,3.12330,1.35451,0.21431,0.91146,0.36747,,,0.82264,0.55402,-0.12755,-0.00768,
0.80469,2.56687,3.43958,1.70457,0.21480,0.91146,0.36602,,,0.82257,0.55415,-0.12743,-0.00743,
0.81250,2.49811,3.40444,1.80958,0.21480,0.91195,0.36215,,,0.82251,0.55427,-0.12730,-0.00718,
0.82031,2.22308,3.40444,1.70457,0.20603,0.91778,0.36699,,,0.82246,0.55438,-0.12718,-0.00693,
0.82813,1.98243,3.68558,1.49453,0.20798,0.91486,0.36457,,,0.82241,0.55448,-0.12703,-0.00669,
0.83594,1.87930,3.82615,1.49453,0.20749,0.91583,0.36747,,,0.82238,0.55458,-0.12687,-0.00645,
0.84375,1.63865,3.86129,1.31951,0.19920,0.91000,0.37183,,,0.82235,0.55466,-0.12671,-0.00622,
0.85156,1.50114,3.50987,1.31951,0.19823,0.91049,0.37425,,,0.82232,0.55474,-0.12656,-0.00600,
0.85938,1.29487,3.68558,1.31951,0.19677,0.91049,0.37764,,,0.82231,0.55480,-0.12640,-0.00577,
0.86719,0.95109,3.61530,1.31951,0.19287,0.90854,0.37716,,,0.82230,0.55484,-0.12625,-0.00555,
0.87500,0.98547,3.22873,1.03947,0.18946,0.91729,0.37135,,,0.82229,0.55489,-0.12611,-0.00536,
0.88281,0.77920,3.19359,1.07447,0.18946,0.91535,0.37619,,,0.82229,0.55492,-0.12597,-0.00518,
0.89063,0.40104,2.77188,0.89945,0.18215,0.91875,0.37619,,,0.82230,0.55494,-0.12585,-0.00502,
0.89844,0.05725,2.63131,0.68941,0.18556,0.91583,0.37667,,,0.82232,0.55494,-0.12573,-0.00488,
0.90625,-0.04588,2.38532,0.72442,0.18069,0.91923,0.37086,,,0.82234,0.55493,-0.12562,-0.00475,
0.91406,-0.25215,2.06903,0.51439,0.17922,0.91972,0.37522,,,0.82237,0.55491,-0.12553,-0.00464,
0.92188,-0.38966,2.13932,0.40937,0.18751,0.91535,0.37231,,,0.82240,0.55489,-0.12542,-0.00454,
0.92969,-0.56156,1.99875,0.05932,0.18361,0.90952,0.36747,,,0.82244,0.55486,-0.12531,-0.00447,
0.93750,-0.66469,1.71761,-0.43075,0.18410,0.90709,0.36989,,,0.82248,0.55482,-0.12520,-0.00443,
0.94531,-0.56156,1.54190,-0.64079,0.18264,0.90757,0.37086,,,0.82252,0.55480,-0.12509,-0.00442,
0.95313,-0.69907,1.12019,-0.95583,0.18117,0.90854,0.37328,,,0.82255,0.55477,-0.12499,-0.00443,
0.96094,-0.66469,0.52277,-1.13086,0.18215,0.91243,0.37813,,,0.82258,0.55474,-0.12492,-0.00448,
0.96875,-0.87096,0.24163,-1.16586,0.18166,0.90903,0.37570,,,0.82262,0.55470,-0.12486,-0.00455,
0.97656,-0.76783,-0.21522,-1.20087,0.18361,0.90417,0.37861,,,0.82264,0.55467,-0.12483,-0.00463,
0.98438,-0.73345,-0.39093,-1.48091,0.19433,0.90320,0.37086,,,0.82267,0.55464,-0.12479,-0.00473,
0.99219,-0.73345,-0.56664,-1.41090,0.19725,0.90320,0.37135,,,0.82269,0.55461,-0.12477,-0.00484,
1.00000,-0.59593,-0.56664,-1.58593,0.19872,0.89785,0.37231,,,0.82271,0.55459,-0.12474,-0.00495,
1.00781,-0.32091,-0.42607,-1.69094,0.19774,0.90806,0.37474,1020.934,27.5,0.82271,0.55459,-0.12470,-0.00507,
1.01563,-0.18340,-0.60178,-1.72595,0.19872,0.90611,0.37861,,,0.82272,0.55459,-0.12467,-0.00519,
1.02344,-0.11464,-0.63692,-1.76095,0.20895,0.90320,0.37086,,,0.82271,0.55460,-0.12464,-0.00531,
1.03125,0.19477,-0.67207,-1.72595,0.20700,0.90368,0.37231,,,0.82270,0.55462,-0.12461,-0.00543,
1.03906,0.40104,-0.53150,-1.72595,0.21285,0.90223,0.36844,,,0.82268,0.55466,-0.12458,-0.00555,
1.04688,0.60730,-0.35578,-1.58593,0.21041,0.90563,0.37280,,,0.82265,0.55471,-0.12454,-0.00564,
1.05469,0.50417,-0.35578,-1.48091,0.21090,0.90611,0.37231,,,0.82263,0.55475,-0.12450,-0.00574,
1.06250,0.53855,-0.42607,-1.34089,0.20944,0.90320,0.37328,,,0.82261,0.55479,-0.12447,-0.00582,
1.07031,0.40104,-0.46121,-1.20087,0.21480,0.90757,0.37231,,,0.82259,0.55482,-0.12445,-0.00590,
1.07813,0.46979,-0.49635,-0.99084,0.21723,0.90125,0.37135,,,0.82256,0.55486,-0.12444,-0.00597,
1.08594,0.53855,-0.42607,-0.74580,0.21967,0.90611,0.37377,,,0.82254,0.55489,-0.12444,-0.00603,
1.09375,0.57293,-0.35578,-0.50076,0.22016,0.90952,0.37425,,,0.82251,0.55493,-0.12444,-0.00606,
1.10156,0.77920,-0.21522,-0.29073,0.21821,0.90368,0.37522,,,0.82248,0.55498,-0.12444,-0.00608,
1.10938,0.71044,-0.14493,-0.29073,0.22065,0.90806,0.37425,,,0.82245,0.55502,-0.12444,-0.00610,
1.11719,0.77920,-0.03950,-0.11571,0.21772,0.90514,0.36989,,,0.82243,0.55506,-0.12444,-0.00610,
1.12500,0.84795,-0.07465,-0.04570,0.21577,0.90854,0.37328,,,0.82239,0.55511,-0.12444,-0.00610,
1.13281,0.88233,0.10107,-0.08070,0.21139,0.90709,0.37716,,,0.82236,0.55516,-0.12443,-0.00609,
1.14063,0.84795,0.13621,0.16433,0.20992,0.90757,0.37570,,,0.82233,0.55521,-0.12443,-0.00607,
1.14844,0.77920,0.20649,0.05932,0.20554,0.90660,0.38200,,,0.82230,0.55525,-0.12442,-0.00605,
1.15625,0.71044,0.20649,0.09432,0.20505,0.90709,0.37813,,,0.82228,0.55529,-0.12441,-0.00603,
1.16406,0.57293,-0.10979,0.05932,0.20018,0.90223,0.38103,,,0.82225,0.55532,-0.12442,-0.00603,
1.17188,0.46979,-0.25036,0.37437,0.19774,0.90757,0.37570,,,0.82223,0.55534,-0.12445,-0.00601,
1.17969,0.60730,-0.35578,0.19934,0.19725,0.90611,0.37764,,,0.82221,0.55538,-0.12448,-0.00601,
1.18750,0.50417,-0.70721,0.12933,0.19872,0.90320,0.37474,,,0.82218,0.55540,-0.12452,-0.00603,
1.19531,0.60730,-0.91806,-0.08070,0.19628,0.90271,0.37619,,,0.82215,0.55544,-0.12457,-0.00606,
1.20313,0.57293,-0.95320,-0.04570,0.19482,0.90757,0.37764,,,0.82212,0.55547,-0.12463,-0.00609,
1.21094,0.53855,-1.12892,-0.22072,0.19043,0.90611,0.37764,,,0.82209,0.55550,-0.12468,-0.00614,
1.21875,0.46979,-1.12892,-0.29073,0.19531,0.91583,0.37813,,,0.82206,0.55553,-0.12473,-0.00620,
1.22656,0.57293,-1.16406,-0.36074,0.19628,0.91535,0.37813,,,0.82203,0.55556,-0.12478,-0.00626,
1.23438,0.33228,-1.16406,-0.43075,0.19384,0.91243,0.37909,,,0.82201,0.55559,-0.12483,-0.00632,
1.24219,0.19477,-1.23434,-0.50076,0.19774,0.91097,0.37328,,,0.82199,0.55560,-0.12488,-0.00640,
1.25000,0.12601,-1.26948,-0.64079,0.19189,0.91000,0.37425,,,0.82198,0.55561,-0.12493,-0.00648,
1.25781,0.02287,-1.19920,-0.78081,0.19725,0.90514,0.37086,,,0.82196,0.55562,-0.12497,-0.00657,
1.26563,0.02287,-1.26948,-0.74580,0.18848,0.90854,0.37328,,,0.82195,0.55563,-0.12501,-0.00666,
1.27344,-0.08026,-1.19920,-0.92083,0.19823,0.90466,0.37474,,,0.82194,0.55563,-0.12504,-0.00676,
1.28125,0.12601,-1.26948,-1.06085,0.19482,0.90514,0.36989,,,0.82193,0.55565,-0.12507,-0.00686,
1.28906,0.05725,-1.26948,-1.02584,0.19677,0.90125,0.37038,,,0.82192,0.55566,-0.12511,-0.00697,
1.29688,0.19477,-1.37491,-1.09585,0.19677,0.90271,0.37135,,,0.82190,0.55568,-0.12514,-0.00708,
1.30469,0.46979,-1.33977,-1.16586,0.19823,0.90077,0.37716,,,0.82187,0.55571,-0.12517,-0.00719,
1.31250,0.50417,-1.30463,-1.30589,0.19725,0.89737,0.37619,,,0.82183,0.55575,-0.12520,-0.00731,
1.32031,0.77920,-1.30463,-1.37590,0.19628,0.90514,0.37425,,,0.82179,0.55581,-0.12522,-0.00743,
1.32813,0.84795,-1.05863,-1.58593,0.20310,0.91195,0.37183,,,0.82175,0.55587,-0.12522,-0.00755,
1.33594,0.71044,-0.84778,-1.51592,0.20505,0.90854,0.37377,,,0.82172,0.55592,-0.12521,-0.00766,
1.34375,0.74482,-0.74235,-1.41090,0.20505,0.91729,0.37958,,,0.82168,0.55597,-0.12520,-0.00776,
1.35156,0.50417,-0.56664,-1.30589,0.21041,0.91729,0.37377,,,0.82166,0.55601,-0.12518,-0.00785,
1.35938,0.26352,-0.63692,-1.27088,0.20895,0.91438,0.37764,,,0.82164,0.55604,-0.12517,-0.00795,
1.36719,-0.01150,-0.56664,-1.20087,0.20749,0.91729,0.37813,,,0.82164,0.55605,-0.12515,-0.00804,
1.37500,-0.21777,-0.53150,-1.09585,0.20700,0.90854,0.37522,,,0.82164,0.55604,-0.12514,-0.00812,
1.38281,-0.49280,-0.46121,-1.20087,0.20213,0.91486,0.37377,,,0.82165,0.55603,-0.12512,-0.00821,
1.39063,-0.97410,-0.53150,-1.30589,0.20262,0.91340,0.37183,,,0.82168,0.55598,-0.12510,-0.00831,
1.39844,-1.11161,-0.67207,-1.34089,0.20554,0.90514,0.37135,,,0.82172,0.55593,-0.12509,-0.00842,
1.40625,-1.11161,-0.53150,-1.27088,0.20505,0.90417,0.36844,,,0.82176,0.55588,-0.12507,-0.00852,
1.41406,-0.80220,-1.09377,-1.30589,0.19872,0.89834,0.36941,,,0.82178,0.55584,-0.12508,-0.00864,
1.42188,-0.59593,-1.09377,-1.16586,0.20262,0.90174,0.36941,,,0.82179,0.55582,-0.12510,-0.00875,
1.42969,-0.56156,-1.05863,-1.16586,0.20310,0.90028,0.36554,,,0.82180,0.55580,-0.12511,-0.00886,
1.43750,-0.25215,-1.02349,-1.09585,0.21236,0.90417,0.36747,,,0.82180,0.55579,-0.12513,-0.00897,
1.44531,-0.11464,-0.91806,-0.99084,0.20895,0.90611,0.37570,,,0.82180,0.55579,-0.12514,-0.00906,
1.45313,0.05725,-0.74235,-0.99084,0.20944,0.90952,0.37377,,,0.82179,0.55581,-0.12515,-0.00914,
1.46094,-0.08026,-0.56664,-0.78081,0.21236,0.90952,0.37377,,,0.82179,0.55581,-0.12515,-0.00921,
1.46875,-0.21777,-0.53150,-0.74580,0.21236,0.91243,0.37522,,,0.82179,0.55580,-0.12515,-0.00927,
1.47656,-0.38966,-0.56664,-0.71080,0.21187,0.90952,0.37474,,,0.82180,0.55578,-0.12515,-0.00934,
1.48438,-0.35529,-0.56664,-0.60578,0.20700,0.90757,0.37716,,,0.82181,0.55577,-0.12516,-0.00939,
1.49219,-0.42404,-0.32064,-0.78081,0.20603,0.90514,0.37619,,,0.82182,0.55575,-0.12515,-0.00945,
1.50000,-0.32091,-0.42607,-0.78081,0.20262,0.90563,0.37328,,,0.82183,0.55574,-0.12514,-0.00952,
1.50781,-0.21777,-0.18007,-0.53577,0.19969,0.90757,0.37522,,,0.82183,0.55573,-0.12513,-0.00955,
1.51563,-0.18340,-0.07465,-0.53577,0.20651,0.90368,0.37909,,,0.82184,0.55573,-0.12512,-0.00959,
1.52344,-0.08026,-0.07465,-0.50076,0.20651,0.90174,0.37425,,,0.82184,0.55573,-0.12510,-0.00962,
1.53125,0.09163,0.10107,-0.39575,0.20846,0.90174,0.37038,,,0.82184,0.55574,-0.12508,-0.00964,
1.53906,0.19477,0.20649,-0.43075,0.20505,0.90271,0.37377,,,0.82183,0.55575,-0.12505,-0.00965,
1.54688,0.22914,0.13621,-0.43075,0.20749,0.90320,0.36941,,,0.82183,0.55577,-0.12503,-0.00967,
1.55469,0.36666,0.31192,-0.29073,0.20651,0.90271,0.36941,,,0.82181,0.55579,-0.12500,-0.00967,
1.56250,0.40104,0.41735,-0.22072,0.20359,0.90223,0.37474,,,0.82180,0.55581,-0.12497,-0.00966,
1.57031,0.53855,0.34706,-0.25573,0.20700,0.90514,0.37135,,,0.82178,0.55585,-0.12494,-0.00966,
1.57813,0.74482,0.48763,-0.11571,0.20700,0.90757,0.37764,,,0.82176,0.55589,-0.12491,-0.00964,
1.58594,0.71044,0.66334,-0.04570,0.20408,0.90660,0.37425,,,0.82174,0.55593,-0.12487,-0.00961,
1.59375,0.71044,0.62820,-0.04570,0.20749,0.90854,0.37135,,,0.82172,0.55597,-0.12484,-0.00959,
1.60156,0.77920,0.55792,-0.11571,0.20262,0.91292,0.37425,,,0.82169,0.55602,-0.12480,-0.00957,
1.60938,0.77920,0.80391,-0.15071,0.20262,0.91243,0.37280,,,0.82167,0.55606,-0.12475,-0.00954,
1.61719,0.84795,0.83905,-0.18572,0.19628,0.91000,0.37377,,,0.82164,0.55611,-0.12470,-0.00951,
1.62500,0.64168,0.76877,-0.11571,0.19872,0.91195,0.37619,,,0.82163,0.55615,-0.12465,-0.00948,
1.63281,0.50417,0.87420,-0.15071,0.19677,0.91049,0.37425,,,0.82162,0.55618,-0.12460,-0.00945,
1.64063,0.46979,0.62820,-0.11571,0.20310,0.90903,0.38151,,,0.82160,0.55621,-0.12456,-0.00943,
1.64844,0.43541,0.52277,-0.22072,0.19384,0.91097,0.38103,,,0.82159,0.55623,-0.12452,-0.00942,
1.65625,0.50417,0.41735,-0.08070,0.19238,0.90757,0.37861,,,0.82157,0.55626,-0.12449,-0.00940,
1.66406,0.33228,0.24163,-0.29073,0.19823,0.90709,0.37474,,,0.82156,0.55628,-0.12447,-0.00941,
1.67188,0.53855,0.10107,-0.36074,0.19531,0.90611,0.37328,,,0.82154,0.55632,-0.12445,-0.00942,
1.67969,0.57293,0.24163,-0.43075,0.19677,0.90368,0.37280,,,0.82152,0.55635,-0.12442,-0.00943,
1.68750,0.64168,0.17135,-0.57078,0.19969,0.90757,0.37764,,,0.82150,0.55639,-0.12439,-0.00945,
1.69531,0.74482,0.06592,-0.64079,0.19384,0.91049,0.38297,,,0.82147,0.55644,-0.12436,-0.00948,
1.70313,0.84795,0.10107,-0.71080,0.19433,0.90368,0.37667,,,0.82144,0.55649,-0.12433,-0.00950,
1.71094,0.71044,-0.00436,-0.71080,0.19531,0.90611,0.37522,,,0.82141,0.55654,-0.12430,-0.00954,
1.71875,0.81357,0.03078,-0.78081,0.19579,0.90854,0.37909,,,0.82138,0.55659,-0.12427,-0.00957,
1.72656,0.67606,-0.32064,-0.64079,0.19969,0.91243,0.37425,,,0.82135,0.55664,-0.12427,-0.00962,
1.73438,0.50417,-0.53150,-0.50076,0.19774,0.91146,0.37716,,,0.82133,0.55667,-0.12428,-0.00966,
1.74219,0.36666,-0.74235,-0.64079,0.19531,0.91389,0.37909,,,0.82131,0.55669,-0.12430,-0.00972,
1.75000,0.43541,-0.77749,-0.71080,0.19774,0.90611,0.37522,,,0.82129,0.55672,-0.12431,-0.00979,
1.75781,0.36666,-0.91806,-0.85082,0.20115,0.90709,0.37619,,,0.82126,0.55675,-0.12433,-0.00987,
1.76563,0.33228,-1.02349,-0.99084,0.20456,0.90320,0.37328,,,0.82124,0.55678,-0.12435,-0.00996,
1.77344,0.43541,-1.05863,-0.95583,0.20018,0.90757,0.37522,,,0.82122,0.55681,-0.12437,-0.01005,
1.78125,0.53855,-0.98835,-1.20087,0.19677,0.90320,0.38055,,,0.82119,0.55685,-0.12438,-0.01015,
1.78906,0.67606,-1.37491,-1.16586,0.19774,0.90271,0.37958,,,0.82115,0.55690,-0.12442,-0.01026,
1.79688,0.57293,-1.41005,-1.16586,0.19969,0.90368,0.37909,,,0.82111,0.55694,-0.12445,-0.01037,
1.80469,0.67606,-1.41005,-1.09585,0.20700,0.90611,0.37861,,,0.82107,0.55698,-0.12449,-0.01048,
1.81250,0.50417,-1.69119,-1.06085,0.20310,0.91097,0.37667,,,0.82104,0.55702,-0.12455,-0.01060,
1.82031,0.57293,-1.72633,-1.09585,0.21334,0.90466,0.38151,,,0.82100,0.55706,-0.12460,-0.01072,
1.82813,0.50417,-1.62091,-1.09585,0.20651,0.91049,0.37813,,,0.82097,0.55709,-0.12465,-0.01084,
1.83594,0.29790,-1.37491,-0.92083,0.21041,0.90952,0.38103,,,0.82095,0.55712,-0.12469,-0.01094,
1.84375,0.36666,-1.30463,-0.95583,0.21187,0.90757,0.37764,,,0.82092,0.55715,-0.12473,-0.01104,
1.85156,0.36666,-1.19920,-0.78081,0.20846,0.90854,0.38248,,,0.82089,0.55717,-0.12477,-0.01113,
1.85938,0.33228,-1.09377,-0.78081,0.21090,0.90320,0.37861,,,0.82087,0.55720,-0.12480,-0.01121,
1.86719,0.40104,-0.95320,-0.71080,0.21041,0.90223,0.37667,,,0.82085,0.55722,-0.12483,-0.01129,
1.87500,0.40104,-0.77749,-0.74580,0.21139,0.90709,0.37667,,,0.82083,0.55725,-0.12484,-0.01135,
1.88281,0.36666,-0.46121,-0.74580,0.21431,0.90174,0.37570,,,0.82081,0.55728,-0.12484,-0.01141,
1.89063,0.40104,-0.28550,-0.74580,0.20749,0.90806,0.38006,,,0.82079,0.55731,-0.12483,-0.01146,
1.89844,0.71044,-0.35578,-0.53577,0.20749,0.91049,0.37861,,,0.82076,0.55735,-0.12483,-0.01150,
1.90625,0.71044,-0.07465,-0.46576,0.20164,0.90952,0.37570,,,0.82073,0.55740,-0.12481,-0.01152,
1.91406,0.81357,-0.00436,-0.43075,0.21187,0.91000,0.37522,,,0.82070,0.55744,-0.12480,-0.01154,
1.92188,0.88233,0.17135,-0.32574,0.21041,0.91146,0.37764,,,0.82067,0.55750,-0.12478,-0.01154,
1.92969,0.60730,0.45249,-0.25573,0.21187,0.91146,0.37619,,,0.82065,0.55753,-0.12474,-0.01153,
1.93750,0.57293,0.59306,-0.18572,0.20651,0.91146,0.37231,,,0.82063,0.55757,-0.12470,-0.01152,
1.94531,0.33228,0.73363,-0.18572,0.21431,0.91438,0.37377,,,0.82062,0.55759,-0.12466,-0.01150,
1.95313,0.05725,1.04991,-0.11571,0.20700,0.91146,0.37135,,,0.82063,0.55759,-0.12459,-0.01146,
1.96094,-0.01150,1.12019,-0.15071,0.20603,0.91340,0.36893,,,0.82064,0.55759,-0.12452,-0.01143,
1.96875,0.02287,1.26076,0.02431,0.20651,0.90514,0.37474,,,0.82065,0.55760,-0.12445,-0.01138,
1.97656,-0.08026,1.36619,-0.04570,0.20018,0.90660,0.37231,,,0.82067,0.55759,-0.12438,-0.01133,
1.98438,0.02287,1.54190,0.02431,0.20651,0.89980,0.37231,,,0.82068,0.55760,-0.12429,-0.01127,
1.99219,0.40104,1.47162,-0.04570,0.19969,0.90320,0.37667,,,0.82067,0.55762,-0.12421,-0.01121,
2.00000,0.46979,1.64733,-0.11571,0.19872,0.90174,0.37716,,,0.82067,0.55765,-0.12411,-0.01115,
2.00781,0.67606,1.61218,-0.04570,0.20408,0.90271,0.37570,1020.960,27.5,0.82066,0.55769,-0.12402,-0.01109,
2.01563,0.84795,1.78790,0.05932,0.20505,0.90417,0.37183,,,0.82064,0.55774,-0.12392,-0.01101,
2.02344,0.88233,1.64733,-0.08070,0.19920,0.91000,0.37231,,,0.82062,0.55779,-0.12383,-0.01094,
2.03125,0.95109,1.64733,-0.11571,0.20115,0.91097,0.37328,,,0.82060,0.55784,-0.12373,-0.01088,
2.03906,0.81357,1.71761,-0.08070,0.20115,0.91729,0.37522,,,0.82058,0.55789,-0.12363,-0.01081,
2.04688,0.77920,1.64733,-0.29073,0.20505,0.91729,0.36941,,,0.82057,0.55794,-0.12353,-0.01076,
2.05469,0.71044,1.54190,-0.15071,0.20310,0.92166,0.37522,,,0.82055,0.55798,-0.12344,-0.01070,
2.06250,0.57293,1.26076,-0.22072,0.20067,0.91535,0.37667,,,0.82054,0.55801,-0.12336,-0.01066,
2.07031,0.46979,1.26076,-0.18572,0.19823,0.91729,0.37474,,,0.82053,0.55804,-0.12328,-0.01062,
2.07813,0.29790,1.01477,-0.18572,0.19287,0.91049,0.37328,,,0.82053,0.55806,-0.12322,-0.01059,
2.08594,0.19477,0.87420,-0.25573,0.19774,0.90757,0.36989,,,0.82053,0.55808,-0.12316,-0.01057,
2.09375,0.12601,0.94448,-0.25573,0.19628,0.90223,0.37038,,,0.82053,0.55809,-0.12310,-0.01055,
2.10156,0.12601,0.62820,-0.25573,0.19677,0.90563,0.37231,,,0.82053,0.55810,-0.12305,-0.01054,
2.10938,0.16039,0.52277,-0.43075,0.20067,0.90223,0.37377,,,0.82053,0.55811,-0.12301,-0.01054,
2.11719,0.26352,0.52277,-0.46576,0.19677,0.89737,0.37038,,,0.82053,0.55813,-0.12296,-0.01054,
2.12500,0.43541,0.20649,-0.60578,0.19823,0.90125,0.37522,,,0.82051,0.55816,-0.12293,-0.01056,
2.13281,0.46979,-0.10979,-0.81581,0.19384,0.90417,0.37522,,,0.82049,0.55819,-0.12290,-0.01061,
2.14063,0.53855,-0.14493,-0.78081,0.19725,0.90563,0.37474,,,0.82047,0.55823,-0.12288,-0.01066,
2.14844,0.43541,-0.21522,-0.88582,0.19433,0.90854,0.37861,,,0.82045,0.55826,-0.12286,-0.01071,
2.15625,0.36666,-0.42607,-0.92083,0.20164,0.91389,0.37522,,,0.82043,0.55829,-0.12285,-0.01077,
2.16406,0.29790,-0.39093,-0.85082,0.20359,0.91632,0.37280,,,0.82042,0.55831,-0.12284,-0.01083,
2.17188,0.09163,-0.63692,-0.81581,0.19433,0.91875,0.37280,,,0.82041,0.55832,-0.12284,-0.01090,
2.17969,0.02287,-0.63692,-0.99084,0.20456,0.91583,0.37135,,,0.82040,0.55833,-0.12284,-0.01098,
2.18750,-0.21777,-0.77749,-1.02584,0.20359,0.91486,0.37474,,,0.82040,0.55833,-0.12285,-0.01107,
2.19531,-0.42404,-0.98835,-0.95583,0.19384,0.90514,0.37667,,,0.82041,0.55831,-0.12286,-0.01117,
2.20313,-0.32091,-1.02349,-1.02584,0.19920,0.90709,0.37667,,,0.82041,0.55830,-0.12288,-0.01127,
2.21094,-0.42404,-1.05863,-1.02584,0.20408,0.90271,0.37522,,,0.82042,0.55828,-0.12290,-0.01137,
2.21875,-0.42404,-1.16406,-1.09585,0.20554,0.90077,0.37377,,,0.82042,0.55827,-0.12293,-0.01148,
2.22656,-0.32091,-1.37491,-1.27088,0.19872,0.90417,0.37522,,,0.82042,0.55826,-0.12295,-0.01160,
2.23438,-0.28653,-1.23434,-1.16586,0.20505,0.90563,0.36747,,,0.82042,0.55825,-0.12298,-0.01172,
2.24219,-0.08026,-1.12892,-1.30589,0.20700,0.90757,0.37231,,,0.82042,0.55826,-0.12299,-0.01183,
2.25000,0.09163,-1.23434,-1.23588,0.20262,0.90368,0.37813,,,0.82040,0.55827,-0.12301,-0.01195,
2.25781,0.09163,-1.12892,-1.27088,0.20456,0.90514,0.37813,,,0.82039,0.55829,-0.12303,-0.01206,
2.26563,0.09163,-1.16406,-1.27088,0.20115,0.90952,0.37474,,,0.82037,0.55830,-0.12305,-0.01218,
2.27344,-0.01150,-1.02349,-1.06085,0.20262,0.91680,0.37522,,,0.82036,0.55831,-0.12306,-0.01227,
2.28125,0.02287,-1.12892,-1.20087,0.20895,0.91340,0.37135,,,0.82035,0.55832,-0.12308,-0.01238,
2.28906,0.05725,-1.02349,-0.95583,0.20505,0.91292,0.37570,,,0.82034,0.55833,-0.12310,-0.01248,
2.29688,0.05725,-1.02349,-0.85082,0.20213,0.91000,0.37231,,,0.82033,0.55834,-0.12313,-0.01256,
2.30469,-0.01150,-1.02349,-0.88582,0.20164,0.90514,0.37958,,,0.82032,0.55835,-0.12315,-0.01265,
2.31250,-0.04588,-0.81263,-0.81581,0.20651,0.90563,0.36844,,,0.82031,0.55835,-0.12316,-0.01273,
2.32031,0.12601,-0.77749,-0.81581,0.20895,0.90368,0.37522,,,0.82030,0.55836,-0.12318,-0.01280,
2.32813,0.12601,-0.63692,-0.95583,0.21041,0.90174,0.37425,,,0.82029,0.55838,-0.12318,-0.01288,
2.33594,0.12601,-0.46121,-0.92083,0.20603,0.90223,0.37377,,,0.82028,0.55839,-0.12317,-0.01295,
2.34375,0.33228,-0.39093,-0.95583,0.20115,0.90223,0.37716,,,0.82026,0.55842,-0.12315,-0.01301,
2.35156,0.50417,-0.21522,-0.78081,0.20456,0.90611,0.37667,,,0.82024,0.55845,-0.12313,-0.01306,
2.35938,0.71044,-0.14493,-0.88582,0.19628,0.91243,0.38103,,,0.82021,0.55850,-0.12311,-0.01311,
2.36719,0.88233,-0.07465,-0.81581,0.20262,0.90709,0.37813,,,0.82018,0.55856,-0.12308,-0.01315,
2.37500,0.84795,-0.07465,-0.67579,0.20067,0.91340,0.37764,,,0.82015,0.55861,-0.12306,-0.01318,
2.38281,0.60730,0.06592,-0.57078,0.20408,0.90952,0.37716,,,0.82012,0.55865,-0.12304,-0.01321,
2.39063,0.67606,0.13621,-0.46576,0.20456,0.91535,0.37425,,,0.82010,0.55869,-0.12301,-0.01322,
2.39844,0.36666,0.10107,-0.43075,0.19774,0.91583,0.37813,,,0.82008,0.55871,-0.12299,-0.01324,
2.40625,-0.25215,0.03078,-0.60578,0.19531,0.91389,0.37764,,,0.82009,0.55870,-0.12297,-0.01327,
2.41406,-0.32091,-0.14493,-0.67579,0.19141,0.90320,0.37619,,,0.82010,0.55869,-0.12295,-0.01332,
2.42188,-0.49280,-0.32064,-0.74580,0.19774,0.90174,0.37086,,,0.82012,0.55867,-0.12294,-0.01338,
2.42969,-0.28653,-0.42607,-0.88582,0.19969,0.90223,0.37135,,,0.82013,0.55866,-0.12293,-0.01345,
2.43750,-0.14902,-0.35578,-0.92083,0.19433,0.89882,0.36844,,,0.82013,0.55866,-0.12291,-0.01351,
2.44531,0.09163,-0.46121,-0.99084,0.19628,0.90466,0.36796,,,0.82012,0.55867,-0.12290,-0.01359,
2.45313,0.19477,-0.46121,-0.92083,0.20067,0.90903,0.37183,,,0.82011,0.55869,-0.12289,-0.01365,
2.46094,0.33228,-0.39093,-1.02584,0.19872,0.90757,0.37135,,,0.82009,0.55872,-0.12287,-0.01372,
2.46875,0.40104,-0.53150,-0.95583,0.20213,0.91583,0.37086,,,0.82007,0.55875,-0.12287,-0.01379,
2.47656,0.22914,-0.28550,-1.20087,0.20213,0.91826,0.37231,,,0.82006,0.55877,-0.12284,-0.01387,
2.48438,0.22914,-0.21522,-1.27088,0.20554,0.91923,0.37135,,,0.82005,0.55879,-0.12280,-0.01395,
2.49219,0.19477,-0.25036,-1.09585,0.20310,0.91826,0.37474,,,0.82003,0.55881,-0.12277,-0.01402,
2.50000,-0.08026,-0.32064,-1.09585,0.19774,0.91535,0.37570,,,0.82003,0.55882,-0.12275,-0.01409,
2.50781,-0.14902,-0.35578,-1.13086,0.20115,0.91340,0.37619,,,0.82004,0.55882,-0.12273,-0.01417,
2.51563,-0.38966,-0.32064,-1.20087,0.19531,0.90903,0.37667,,,0.82005,0.55881,-0.12270,-0.01425,
2.52344,-0.28653,-0.14493,-1.30589,0.19384,0.90514,0.37716,,,0.82006,0.55880,-0.12266,-0.01433,
2.53125,-0.38966,-0.07465,-1.34089,0.19774,0.90174,0.38248,,,0.82007,0.55879,-0.12261,-0.01441,
2.53906,-0.35529,0.06592,-1.48091,0.20115,0.90028,0.37425,,,0.82008,0.55878,-0.12255,-0.01450,
2.54688,-0.01150,0.06592,-1.44591,0.19482,0.89445,0.37425,,,0.82008,0.55880,-0.12249,-0.01457,
2.55469,0.09163,0.13621,-1.51592,0.19823,0.89639,0.37474,,,0.82008,0.55881,-0.12243,-0.01465,
2.56250,0.40104,0.03078,-1.34089,0.19920,0.89882,0.37280,,,0.82006,0.55885,-0.12237,-0.01472,
2.57031,0.64168,-0.10979,-1.30589,0.19872,0.90125,0.37474,,,0.82003,0.55889,-0.12233,-0.01479,
2.57813,0.74482,-0.18007,-1.27088,0.19969,0.90028,0.37425,,,0.82000,0.55895,-0.12229,-0.01487,
2.58594,0.95109,-0.18007,-1.34089,0.19823,0.91389,0.37522,,,0.81996,0.55901,-0.12225,-0.01494,
2.59375,1.01984,-0.21522,-1.58593,0.20408,0.91292,0.37183,,,0.81992,0.55908,-0.12220,-0.01503,
2.60156,1.22611,-0.10979,-1.55092,0.20359,0.91340,0.37474,,,0.81987,0.55916,-0.12215,-0.01511,
2.60938,1.36363,-0.07465,-1.65594,0.19920,0.91049,0.37377,,,0.81982,0.55925,-0.12210,-0.01519,
2.61719,1.26049,-0.18007,-1.69094,0.19969,0.91923,0.37474,,,0.81977,0.55934,-0.12204,-0.01528,
2.62500,1.32925,-0.07465,-1.58593,0.20115,0.91826,0.37328,,,0.81971,0.55942,-0.12199,-0.01536,
2.63281,1.01984,0.06592,-1.55092,0.20018,0.91243,0.37038,,,0.81967,0.55949,-0.12193,-0.01544,
2.64063,0.88233,-0.00436,-1.62093,0.19725,0.91146,0.37764,,,0.81964,0.55956,-0.12187,-0.01552,
2.64844,0.74482,-0.10979,-1.72595,0.19531,0.91097,0.38055,,,0.81961,0.55961,-0.12181,-0.01562,
2.65625,0.60730,-0.10979,-1.69094,0.20018,0.90174,0.37328,,,0.81958,0.55966,-0.12175,-0.01571,
2.66406,0.64168,-0.39093,-1.55092,0.19920,0.89785,0.37038,,,0.81955,0.55971,-0.12171,-0.01581,
2.67188,0.81357,-0.32064,-1.55092,0.20164,0.89980,0.37328,,,0.81952,0.55977,-0.12167,-0.01590,
2.67969,1.08860,-0.49635,-1.51592,0.20408,0.89931,0.37135,,,0.81947,0.55984,-0.12164,-0.01599,
2.68750,1.29487,-0.60178,-1.51592,0.20408,0.90563,0.37328,,,0.81941,0.55992,-0.12162,-0.01609,
2.69531,1.29487,-0.35578,-1.65594,0.19628,0.90514,0.37231,,,0.81936,0.56001,-0.12158,-0.01619,
2.70313,1.50114,-0.25036,-1.62093,0.20067,0.90271,0.37813,,,0.81930,0.56011,-0.12153,-0.01627,
2.71094,1.67303,-0.25036,-1.62093,0.20115,0.91583,0.37619,,,0.81923,0.56021,-0.12149,-0.01636,
2.71875,1.53552,-0.25036,-1.55092,0.20213,0.91340,0.37474,,,0.81917,0.56031,-0.12144,-0.01644,
2.72656,1.39800,-0.39093,-1.51592,0.19969,0.91778,0.37619,,,0.81911,0.56040,-0.12141,-0.01653,
2.73438,1.19173,-0.46121,-1.41090,0.19969,0.91535,0.37328,,,0.81906,0.56048,-0.12138,-0.01662,
2.74219,0.71044,-0.60178,-1.37590,0.20213,0.91632,0.37135,,,0.81902,0.56053,-0.12136,-0.01671,
2.75000,0.57293,-0.67207,-1.30589,0.20018,0.91389,0.37425,,,0.81899,0.56057,-0.12135,-0.01681,
2.75781,0.60730,-0.70721,-1.27088,0.19482,0.90709,0.37425,,,0.81896,0.56061,-0.12134,-0.01690,
2.76563,0.67606,-0.56664,-1.30589,0.19238,0.90757,0.38006,,,0.81893,0.56066,-0.12133,-0.01699,
2.77344,0.64168,-0.56664,-1.16586,0.19823,0.89882,0.37619,,,0.81890,0.56071,-0.12131,-0.01707,
2.78125,0.67606,-0.53150,-1.16586,0.20018,0.89834,0.38006,,,0.81887,0.56075,-0.12130,-0.01715,
2.78906,0.91671,-0.63692,-1.16586,0.19677,0.90660,0.37667,,,0.81883,0.56081,-0.12129,-0.01723,
2.79688,1.05422,-0.49635,-1.13086,0.19725,0.90563,0.37619,,,0.81878,0.56088,-0.12128,-0.01731,
2.80469,1.08860,-0.53150,-1.20087,0.20408,0.90125,0.37086,,,0.81873,0.56095,-0.12126,-0.01738,
2.81250,1.53552,-0.42607,-1.27088,0.20310,0.90320,0.37619,,,0.81867,0.56105,-0.12124,-0.01746,
2.82031,1.67303,-0.28550,-1.16586,0.19725,0.91000,0.38055,,,0.81860,0.56115,-0.12121,-0.01752,
2.82813,1.77617,-0.32064,-1.23588,0.19969,0.91486,0.37813,,,0.81853,0.56126,-0.12118,-0.01759,
2.83594,1.63865,-0.39093,-1.06085,0.20067,0.91680,0.37425,,,0.81846,0.56136,-0.12117,-0.01765,
2.84375,1.50114,-0.35578,-0.92083,0.19872,0.91632,0.37716,,,0.81840,0.56145,-0.12115,-0.01770,
2.85156,1.39800,-0.35578,-1.02584,0.20164,0.92264,0.37280,,,0.81834,0.56154,-0.12114,-0.01776,
2.85938,1.08860,-0.39093,-1.06085,0.19823,0.91778,0.37619,,,0.81830,0.56160,-0.12112,-0.01782,
2.86719,0.74482,-0.49635,-0.92083,0.19628,0.91000,0.37909,,,0.81826,0.56165,-0.12111,-0.01789,
2.87500,0.77920,-0.49635,-0.95583,0.19920,0.91438,0.37813,,,0.81823,0.56170,-0.12110,-0.01795,
2.88281,0.50417,-0.39093,-0.74580,0.19969,0.89882,0.37280,,,0.81821,0.56174,-0.12110,-0.01801,
2.89063,0.53855,-0.42607,-0.92083,0.20408,0.90466,0.37377,,,0.81818,0.56178,-0.12109,-0.01807,
2.89844,0.71044,-0.39093,-0.99084,0.19628,0.90125,0.37183,,,0.81815,0.56182,-0.12107,-0.01813,
2.90625,0.91671,-0.35578,-1.13086,0.19969,0.90077,0.37570,,,0.81811,0.56188,-0.12105,-0.01820,
2.91406,1.15736,-0.28550,-1.06085,0.19725,0.90757,0.37619,,,0.81806,0.56196,-0.12103,-0.01826,
2.92188,1.15736,-0.14493,-1.27088,0.19725,0.90660,0.37183,,,0.81801,0.56203,-0.12099,-0.01833,
2.92969,1.26049,-0.10979,-0.99084,0.19287,0.91097,0.37958,,,0.81796,0.56211,-0.12096,-0.01838,
2.93750,1.29487,-0.07465,-1.02584,0.19774,0.91535,0.37813,,,0.81791,0.56219,-0.12092,-0.01843,
2.94531,1.15736,-0.18007,-0.95583,0.19872,0.91632,0.37425,,,0.81787,0.56226,-0.12090,-0.01848,
2.95313,1.08860,-0.14493,-0.99084,0.20164,0.91535,0.37135,,,0.81782,0.56233,-0.12087,-0.01853,
2.96094,0.71044,-0.03950,-0.95583,0.20115,0.91972,0.37522,,,0.81779,0.56238,-0.12084,-0.01858,
2.96875,0.50417,0.03078,-1.02584,0.19872,0.91923,0.37474,,,0.81777,0.56241,-0.12080,-0.01863,
2.97656,0.33228,0.06592,-0.92083,0.20067,0.90903,0.36505,,,0.81776,0.56244,-0.12076,-0.01868,
2.98438,0.26352,0.10107,-0.95583,0.20018,0.91195,0.37135,,,0.81775,0.56246,-0.12072,-0.01873,
2.99219,0.12601,0.06592,-0.88582,0.19823,0.90709,0.37328,,,0.81774,0.56248,-0.12068,-0.01877,
3.00000,0.16039,0.06592,-0.92083,0.19677,0.90611,0.36650,,,0.81774,0.56249,-0.12064,-0.01882,
3.00781,0.36666,0.17135,-0.92083,0.19774,0.90174,0.37135,1020.966,27.5,0.81772,0.56252,-0.12060,-0.01886,
3.01563,0.46979,0.31192,-0.95583,0.19336,0.90320,0.37135,,,0.81771,0.56256,-0.12054,-0.01890,
3.02344,0.60730,0.24163,-0.78081,0.19433,0.91049,0.36796,,,0.81768,0.56260,-0.12050,-0.01893,
3.03125,0.71044,0.34706,-0.78081,0.19725,0.90709,0.37328,,,0.81766,0.56264,-0.12045,-0.01895,
3.03906,0.81357,0.34706,-0.78081,0.19969,0.91389,0.37328,,,0.81763,0.56270,-0.12040,-0.01898,
3.04688,0.81357,0.31192,-0.64079,0.19872,0.91243,0.37231,,,0.81760,0.56275,-0.12036,-0.01899,
3.05469,0.67606,0.24163,-0.60578,0.19725,0.91826,0.37328,,,0.81757,0.56279,-0.12033,-0.01901,
3.06250,0.57293,0.24163,-0.60578,0.19920,0.91826,0.37328,,,0.81755,0.56283,-0.12029,-0.01903,
3.07031,0.29790,0.41735,-0.67579,0.19920,0.91632,0.37667,,,0.81754,0.56285,-0.12024,-0.01905,
3.07813,0.29790,0.31192,-0.64079,0.19531,0.91243,0.37135,,,0.81754,0.56287,-0.12020,-0.01907,
3.08594,0.29790,0.45249,-0.71080,0.19774,0.90903,0.37183,,,0.81753,0.56290,-0.12015,-0.01909,
3.09375,0.26352,0.59306,-0.67579,0.18653,0.90417,0.38055,,,0.81752,0.56292,-0.12009,-0.01910,
3.10156,0.26352,0.48763,-0.57078,0.19725,0.90271,0.36941,,,0.81751,0.56294,-0.12004,-0.01912,
3.10938,0.33228,0.55792,-0.53577,0.19677,0.90611,0.36893,,,0.81750,0.56296,-0.11999,-0.01912,
3.11719,0.46979,0.48763,-0.71080,0.19969,0.90368,0.37135,,,0.81749,0.56299,-0.11993,-0.01914,
3.12500,0.50417,0.45249,-0.74580,0.19823,0.90417,0.36796,,,0.81747,0.56303,-0.11988,-0.01916,
3.13281,0.77920,0.24163,-0.71080,0.19774,0.90660,0.36893,,,0.81744,0.56308,-0.11984,-0.01918,
3.14063,0.84795,0.34706,-0.67579,0.19531,0.91243,0.37328,,,0.81741,0.56313,-0.11980,-0.01920,
3.14844,0.81357,0.31192,-0.60578,0.19482,0.91000,0.37377,,,0.81738,0.56318,-0.11976,-0.01921,
3.15625,0.77920,0.10107,-0.64079,0.19628,0.91097,0.37086,,,0.81735,0.56323,-0.11973,-0.01924,
3.16406,0.84795,0.24163,-0.50076,0.20262,0.91583,0.37135,,,0.81732,0.56328,-0.11970,-0.01925,
3.17188,0.81357,0.20649,-0.46576,0.19677,0.91875,0.36989,,,0.81729,0.56333,-0.11967,-0.01926,
3.17969,0.64168,-0.10979,-0.71080,0.19677,0.91389,0.37183,,,0.81727,0.56337,-0.11965,-0.01930,
3.18750,0.33228,0.03078,-0.67579,0.19823,0.91535,0.37474,,,0.81725,0.56340,-0.11962,-0.01934,
3.19531,0.33228,0.03078,-0.67579,0.19482,0.91049,0.37716,,,0.81724,0.56342,-0.11959,-0.01937,
3.20313,0.16039,-0.03950,-0.60578,0.19141,0.90466,0.37861,,,0.81723,0.56343,-0.11957,-0.01940,
3.21094,0.05725,-0.18007,-0.50076,0.19823,0.90368,0.36989,,,0.81723,0.56344,-0.11956,-0.01944,
3.21875,0.02287,-0.07465,-0.64079,0.19872,0.90368,0.37086,,,0.81723,0.56345,-0.11954,-0.01948,
3.22656,0.16039,-0.14493,-0.71080,0.19579,0.90125,0.36941,,,0.81722,0.56346,-0.11952,-0.01952,
3.23438,0.53855,-0.21522,-0.78081,0.19238,0.90125,0.36796,,,0.81719,0.56350,-0.11951,-0.01957,
3.24219,0.53855,-0.03950,-0.71080,0.19531,0.90125,0.37135,,,0.81717,0.56353,-0.11948,-0.01960,
3.25000,0.74482,-0.28550,-0.60578,0.19531,0.91000,0.37764,,,0.81714,0.56358,-0.11948,-0.01964,
3.25781,0.88233,-0.25036,-0.57078,0.19920,0.91486,0.37280,,,0.81710,0.56363,-0.11947,-0.01968,
3.26563,0.81357,-0.18007,-0.60578,0.19725,0.91535,0.37231,,,0.81707,0.56368,-0.11946,-0.01971,
3.27344,0.77920,-0.25036,-0.60578,0.19628,0.91583,0.37280,,,0.81704,0.56373,-0.11945,-0.01975,
3.28125,0.67606,-0.25036,-0.60578,0.20067,0.91680,0.37474,,,0.81701,0.56377,-0.11944,-0.01979,
3.28906,0.64168,-0.25036,-0.57078,0.19823,0.91729,0.37474,,,0.81698,0.56381,-0.11943,-0.01982,
3.29688,0.40104,-0.21522,-0.78081,0.20262,0.92069,0.37377,,,0.81696,0.56384,-0.11942,-0.01987,
3.30469,0.40104,-0.14493,-0.60578,0.19579,0.91097,0.37038,,,0.81694,0.56387,-0.11940,-0.01991,
3.31250,0.40104,-0.25036,-0.57078,0.19433,0.91097,0.36989,,,0.81693,0.56390,-0.11939,-0.01994,
3.32031,0.33228,0.03078,-0.50076,0.19531,0.90757,0.37183,,,0.81691,0.56392,-0.11937,-0.01997,
3.32813,0.26352,-0.18007,-0.64079,0.19774,0.90223,0.37570,,,0.81690,0.56394,-0.11936,-0.02001,
3.33594,0.29790,-0.14493,-0.60578,0.19141,0.90320,0.36989,,,0.81689,0.56396,-0.11935,-0.02005,
3.34375,0.43541,-0.07465,-0.67579,0.19433,0.90028,0.36796,,,0.81687,0.56399,-0.11932,-0.02008,
3.35156,0.60730,-0.25036,-0.78081,0.19433,0.90368,0.37183,,,0.81684,0.56403,-0.11931,-0.02013,
3.35938,0.64168,-0.18007,-0.78081,0.19677,0.90223,0.37183,,,0.81682,0.56407,-0.11929,-0.02018,
3.36719,0.84795,-0.18007,-0.81581,0.19141,0.90757,0.37231,,,0.81678,0.56412,-0.11927,-0.02022,
3.37500,0.91671,-0.28550,-0.78081,0.19579,0.91292,0.37183,,,0.81674,0.56418,-0.11926,-0.02027,
3.38281,0.91671,-0.32064,-0.74580,0.19774,0.91680,0.37231,,,0.81670,0.56424,-0.11925,-0.02032,
3.39063,0.84795,-0.18007,-0.74580,0.19579,0.92458,0.37328,,,0.81667,0.56429,-0.11923,-0.02036,
3.39844,0.81357,-0.25036,-0.78081,0.20262,0.92507,0.37328,,,0.81663,0.56434,-0.11921,-0.02040,
3.40625,0.60730,-0.10979,-0.81581,0.19482,0.92361,0.37716,,,0.81661,0.56438,-0.11919,-0.02045,
3.41406,0.40104,0.06592,-0.81581,0.20262,0.92264,0.37183,,,0.81659,0.56441,-0.11916,-0.02049,
3.42188,0.19477,-0.00436,-0.74580,0.19969,0.92021,0.37231,,,0.81658,0.56443,-0.11913,-0.02053,
3.42969,-0.18340,-0.00436,-0.85082,0.20164,0.91778,0.37328,,,0.81659,0.56442,-0.11909,-0.02058,
3.43750,-0.28653,0.10107,-0.88582,0.19774,0.90903,0.37231,,,0.81660,0.56442,-0.11905,-0.02062,
3.44531,-0.38966,0.13621,-0.88582,0.19969,0.90320,0.37328,,,0.81661,0.56440,-0.11901,-0.02067,
3.45313,-0.28653,0.13621,-0.78081,0.19725,0.89591,0.37474,,,0.81663,0.56439,-0.11897,-0.02071,
3.46094,0.19477,-0.00436,-0.78081,0.19774,0.89931,0.37231,,,0.81662,0.56441,-0.11895,-0.02075,
3.46875,0.33228,-0.03950,-0.67579,0.19287,0.89980,0.36893,,,0.81660,0.56443,-0.11892,-0.02079,
3.47656,0.64168,-0.03950,-0.57078,0.19677,0.90611,0.37135,,,0.81658,0.56447,-0.11890,-0.02082,
3.48438,0.71044,0.10107,-0.60578,0.19433,0.90709,0.37425,,,0.81655,0.56452,-0.11887,-0.02084,
3.49219,0.77920,0.06592,-0.57078,0.19531,0.90854,0.37619,,,0.81652,0.56457,-0.11885,-0.02087,
3.50000,0.84795,0.10107,-0.67579,0.19531,0.92021,0.37231,,,0.81649,0.56462,-0.11882,-0.02089,
3.50781,0.64168,0.06592,-0.60578,0.19969,0.92021,0.37231,,,0.81646,0.56466,-0.11879,-0.02092,
3.51563,0.60730,0.13621,-0.67579,0.19579,0.92118,0.37328,,,0.81644,0.56470,-0.11876,-0.02095,
3.52344,0.26352,-0.03950,-0.64079,0.19628,0.91535,0.37038,,,0.81643,0.56472,-0.11874,-0.02098,
3.53125,-0.14902,0.10107,-0.53577,0.20067,0.91875,0.37474,,,0.81643,0.56471,-0.11871,-0.02101,
3.53906,-0.28653,0.17135,-0.53577,0.19725,0.91826,0.36747,,,0.81644,0.56470,-0.11868,-0.02103,
3.54688,-0.32091,0.17135,-0.53577,0.19336,0.90903,0.37861,,,0.81646,0.56469,-0.11865,-0.02106,
3.55469,-0.21777,0.24163,-0.60578,0.19531,0.90709,0.37280,,,0.81647,0.56468,-0.11861,-0.02109,
3.56250,-0.21777,0.38220,-0.53577,0.19531,0.90514,0.36941,,,0.81648,0.56468,-0.11857,-0.02110,
3.57031,-0.11464,0.38220,-0.57078,0.20115,0.90854,0.37038,,,0.81648,0.56467,-0.11853,-0.02112,
3.57813,0.09163,0.41735,-0.46576,0.19579,0.90320,0.37135,,,0.81648,0.56468,-0.11849,-0.02113,
3.58594,0.12601,0.41735,-0.50076,0.19336,0.90611,0.36893,,,0.81648,0.56470,-0.11845,-0.02114,
3.59375,0.19477,0.52277,-0.32574,0.19384,0.91389,0.36893,,,0.81648,0.56471,-0.11840,-0.02114,
3.60156,0.29790,0.59306,-0.43075,0.20067,0.91000,0.36360,,,0.81647,0.56473,-0.11836,-0.02114,
3.60938,0.40104,0.83905,-0.36074,0.19872,0.91195,0.37038,,,0.81646,0.56476,-0.11830,-0.02112,
3.61719,0.46979,0.76877,-0.39575,0.19628,0.91632,0.36650,,,0.81645,0.56479,-0.11824,-0.02111,
3.62500,0.36666,0.87420,-0.43075,0.19969,0.91632,0.37086,,,0.81644,0.56481,-0.11817,-0.02110,
3.63281,0.46979,0.90934,-0.46576,0.20213,0.91340,0.36699,,,0.81643,0.56484,-0.11811,-0.02108,
3.64063,0.50417,1.19048,-0.29073,0.19872,0.90903,0.36941,,,0.81642,0.56488,-0.11803,-0.02105,
3.64844,0.33228,1.04991,-0.39575,0.19725,0.91146,0.36796,,,0.81642,0.56490,-0.11796,-0.02103,
3.65625,0.26352,1.12019,-0.29073,0.19482,0.91049,0.37474,,,0.81641,0.56492,-0.11788,-0.02100,
3.66406,0.22914,1.01477,-0.32574,0.19336,0.90514,0.37086,,,0.81641,0.56493,-0.11781,-0.02098,
3.67188,0.22914,0.83905,-0.43075,0.19336,0.90611,0.36602,,,0.81641,0.56495,-0.11775,-0.02097,
3.67969,0.29790,1.01477,-0.32574,0.18995,0.90611,0.37522,,,0.81641,0.56497,-0.11768,-0.02094,
3.68750,0.40104,1.08505,-0.36074,0.19238,0.90417,0.37183,,,0.81640,0.56500,-0.11761,-0.02092,
3.69531,0.53855,0.90934,-0.29073,0.19579,0.91049,0.36989,,,0.81638,0.56503,-0.11755,-0.02089,
3.70313,0.57293,0.94448,-0.29073,0.19628,0.90611,0.36796,,,0.81637,0.56507,-0.11748,-0.02087,
3.71094,0.74482,0.94448,-0.22072,0.20018,0.91438,0.37231,,,0.81635,0.56511,-0.11742,-0.02084,
3.71875,0.71044,1.04991,-0.18572,0.20018,0.91535,0.37425,,,0.81633,0.56516,-0.11736,-0.02080,
3.72656,0.64168,1.19048,-0.18572,0.20164,0.91778,0.37231,,,0.81631,0.56519,-0.11729,-0.02076,
3.73438,0.67606,1.19048,-0.43075,0.20213,0.91923,0.37231,,,0.81630,0.56524,-0.11721,-0.02074,
3.74219,0.46979,1.15533,-0.25573,0.19823,0.91632,0.37474,,,0.81629,0.56527,-0.11713,-0.02070,
3.75000,0.36666,1.12019,-0.08070,0.19531,0.91097,0.37522,,,0.81628,0.56529,-0.11707,-0.02066,
3.75781,0.16039,0.90934,-0.15071,0.19189,0.90660,0.37522,,,0.81628,0.56530,-0.11701,-0.02063,
3.76563,0.09163,0.97962,-0.22072,0.19092,0.91000,0.37425,,,0.81629,0.56531,-0.11695,-0.02061,
3.77344,0.16039,0.90934,-0.18572,0.18946,0.90660,0.37667,,,0.81629,0.56532,-0.11689,-0.02058,
3.78125,0.02287,0.80391,-0.25573,0.18507,0.90757,0.37231,,,0.81629,0.56532,-0.11684,-0.02056,
3.78906,0.05725,0.80391,-0.32574,0.19336,0.90320,0.37135,,,0.81630,0.56533,-0.11678,-0.02055,
3.79688,0.16039,0.52277,-0.32574,0.18410,0.91097,0.37667,,,0.81629,0.56534,-0.11674,-0.02055,
3.80469,0.29790,0.20649,-0.43075,0.18410,0.90709,0.37522,,,0.81628,0.56536,-0.11671,-0.02056,
3.81250,0.19477,0.17135,-0.39575,0.18605,0.90806,0.37038,,,0.81628,0.56538,-0.11669,-0.02057,
3.82031,0.33228,-0.00436,-0.57078,0.18848,0.91340,0.36602,,,0.81626,0.56540,-0.11666,-0.02060,
3.82813,0.19477,-0.35578,-0.50076,0.18605,0.91097,0.36989,,,0.81625,0.56542,-0.11666,-0.02064,
3.83594,0.16039,-0.39093,-0.50076,0.19092,0.91340,0.37425,,,0.81624,0.56543,-0.11667,-0.02068,
3.84375,0.12601,-0.39093,-0.71080,0.18946,0.91243,0.37280,,,0.81623,0.56544,-0.11666,-0.02074,
3.85156,-0.01150,-0.74235,-0.78081,0.19433,0.91583,0.37377,,,0.81623,0.56544,-0.11667,-0.02081,
3.85938,-0.18340,-0.74235,-0.88582,0.18995,0.91195,0.37231,,,0.81623,0.56544,-0.11668,-0.02089,
3.86719,-0.25215,-0.84778,-0.88582,0.19238,0.91195,0.37280,,,0.81623,0.56543,-0.11669,-0.02097,
3.87500,-0.45842,-0.98835,-0.95583,0.19628,0.91097,0.37570,,,0.81624,0.56541,-0.11671,-0.02107,
3.88281,-0.52718,-0.98835,-0.95583,0.19384,0.91097,0.37619,,,0.81625,0.56539,-0.11673,-0.02116,
3.89063,-0.56156,-1.05863,-1.02584,0.19384,0.90174,0.36941,,,0.81626,0.56536,-0.11675,-0.02127,
3.89844,-0.52718,-1.16406,-0.95583,0.19628,0.90952,0.37522,,,0.81627,0.56534,-0.11677,-0.02137,
3.90625,-0.35529,-1.16406,-1.09585,0.18702,0.90368,0.37861,,,0.81627,0.56533,-0.11680,-0.02148,
3.91406,-0.18340,-1.26948,-1.02584,0.19677,0.90563,0.36844,,,0.81627,0.56532,-0.11683,-0.02158,
3.92188,-0.28653,-1.16406,-1.16586,0.19969,0.90806,0.36844,,,0.81627,0.56532,-0.11685,-0.02170,
3.92969,-0.11464,-1.30463,-1.13086,0.19287,0.91097,0.37522,,,0.81626,0.56532,-0.11687,-0.02181,
3.93750,0.09163,-1.26948,-1.09585,0.19043,0.90806,0.37619,,,0.81625,0.56533,-0.11690,-0.02192,
3.94531,0.16039,-1.16406,-0.92083,0.18897,0.90660,0.37909,,,0.81623,0.56534,-0.11693,-0.02202,
3.95313,0.16039,-1.05863,-0.85082,0.19384,0.90660,0.37377,,,0.81621,0.56536,-0.11696,-0.02210,
3.96094,0.26352,-1.16406,-0.85082,0.19384,0.90806,0.37764,,,0.81619,0.56538,-0.11699,-0.02219,
3.96875,0.33228,-0.91806,-0.71080,0.20213,0.91097,0.37231,,,0.81617,0.56540,-0.11702,-0.02226,
3.97656,0.29790,-0.81263,-0.81581,0.20018,0.90952,0.36893,,,0.81615,0.56542,-0.11703,-0.02234,
3.98438,0.33228,-0.56664,-0.85082,0.19579,0.91438,0.37958,,,0.81613,0.56545,-0.11703,-0.02241,
3.99219,0.43541,-0.49635,-0.92083,0.19384,0.90806,0.37425,,,0.81611,0.56548,-0.11702,-0.02247,
4.00000,0.40104,-0.39093,-0.99084,0.19482,0.90903,0.37522,,,0.81609,0.56551,-0.11701,-0.02254,
4.00781,0.43541,-0.35578,-0.88582,0.19141,0.90125,0.37667,1020.939,27.5,0.81607,0.56554,-0.11699,-0.02260,
4.01563,0.43541,-0.32064,-0.78081,0.19482,0.90806,0.37667,,,0.81605,0.56557,-0.11698,-0.02265,
4.02344,0.50417,-0.35578,-0.67579,0.19628,0.90514,0.37231,,,0.81603,0.56560,-0.11698,-0.02270,
4.03125,0.46979,-0.18007,-0.60578,0.19238,0.90806,0.37764,,,0.81601,0.56563,-0.11696,-0.02273,
4.03906,0.60730,-0.18007,-0.57078,0.19433,0.90757,0.37813,,,0.81598,0.56567,-0.11695,-0.02277,
4.04688,0.67606,-0.25036,-0.64079,0.19482,0.90417,0.37570,,,0.81595,0.56571,-0.11694,-0.02281,
4.05469,0.77920,-0.14493,-0.53577,0.19384,0.90757,0.37861,,,0.81592,0.56576,-0.11693,-0.02284,
4.06250,0.67606,-0.32064,-0.60578,0.19774,0.90466,0.37861,,,0.81589,0.56580,-0.11693,-0.02288,
4.07031,0.67606,-0.21522,-0.50076,0.19628,0.91000,0.37861,,,0.81586,0.56584,-0.11692,-0.02291,
4.07813,0.50417,-0.28550,-0.67579,0.19725,0.91000,0.37813,,,0.81584,0.56587,-0.11691,-0.02295,
4.08594,0.46979,-0.25036,-0.74580,0.19336,0.91146,0.37522,,,0.81582,0.56591,-0.11690,-0.02300,
4.09375,0.50417,-0.39093,-0.88582,0.19287,0.91000,0.37522,,,0.81579,0.56594,-0.11688,-0.02306,
4.10156,0.43541,-0.25036,-0.85082,0.19628,0.91000,0.37813,,,0.81577,0.56597,-0.11687,-0.02311,
4.10938,0.40104,-0.32064,-0.85082,0.19287,0.90952,0.37909,,,0.81575,0.56600,-0.11685,-0.02317,
4.11719,0.33228,-0.39093,-0.74580,0.20164,0.91097,0.37522,,,0.81574,0.56602,-0.11685,-0.02323,
4.12500,0.19477,-0.46121,-0.60578,0.19823,0.90806,0.37570,,,0.81572,0.56604,-0.11685,-0.02328,
4.13281,0.26352,-0.56664,-0.60578,0.20018,0.91146,0.37619,,,0.81571,0.56606,-0.11686,-0.02333,
4.14063,0.09163,-0.60178,-0.67579,0.19336,0.90466,0.37328,,,0.81570,0.56607,-0.11686,-0.02339,
4.14844,0.12601,-0.46121,-0.71080,0.19043,0.90709,0.37861,,,0.81569,0.56608,-0.11686,-0.02345,
4.15625,0.19477,-0.53150,-0.71080,0.19531,0.91195,0.38103,,,0.81568,0.56609,-0.11687,-0.02350,
4.16406,0.12601,-0.53150,-0.71080,0.18995,0.90466,0.37958,,,0.81567,0.56610,-0.11687,-0.02356,
4.17188,0.22914,-0.63692,-0.67579,0.18946,0.90563,0.37570,,,0.81565,0.56612,-0.11688,-0.02362,
4.17969,0.19477,-0.53150,-0.71080,0.19579,0.90709,0.37231,,,0.81564,0.56614,-0.11688,-0.02368,
4.18750,0.29790,-0.63692,-0.67579,0.19141,0.91097,0.38200,,,0.81562,0.56616,-0.11689,-0.02374,
4.19531,0.26352,-0.42607,-0.81581,0.19287,0.90709,0.37667,,,0.81561,0.56618,-0.11688,-0.02380,
4.20313,0.26352,-0.32064,-0.85082,0.18848,0.90514,0.38200,,,0.81559,0.56620,-0.11687,-0.02386,
4.21094,0.26352,-0.28550,-0.71080,0.19531,0.90563,0.37474,,,0.81558,0.56622,-0.11686,-0.02391,
4.21875,0.26352,-0.21522,-0.67579,0.19823,0.91049,0.37474,,,0.81557,0.56624,-0.11684,-0.02395,
4.22656,0.36666,-0.14493,-0.57078,0.19531,0.90854,0.37861,,,0.81555,0.56626,-0.11683,-0.02398,
4.23438,0.40104,-0.07465,-0.43075,0.19384,0.90757,0.37377,,,0.81553,0.56629,-0.11682,-0.02401,
4.24219,0.50417,-0.03950,-0.43075,0.19384,0.90320,0.37086,,,0.81551,0.56632,-0.11680,-0.02403,
4.25000,0.43541,-0.03950,-0.32574,0.19969,0.91243,0.37474,,,0.81549,0.56635,-0.11679,-0.02405,
4.25781,0.46979,0.06592,-0.32574,0.19774,0.91438,0.37667,,,0.81548,0.56638,-0.11678,-0.02406,
4.26563,0.43541,0.24163,-0.25573,0.19336,0.91340,0.37377,,,0.81546,0.56640,-0.11676,-0.02406,
4.27344,0.40104,0.20649,-0.22072,0.18995,0.90709,0.37861,,,0.81545,0.56643,-0.11674,-0.02406,
4.28125,0.43541,0.31192,-0.22072,0.19725,0.91535,0.37425,,,0.81543,0.56645,-0.11671,-0.02406,
4.28906,0.26352,0.41735,-0.36074,0.19092,0.90952,0.37570,,,0.81543,0.56647,-0.11668,-0.02406,
4.29688,0.26352,0.41735,-0.39575,0.19384,0.90806,0.37716,,,0.81542,0.56649,-0.11664,-0.02406,
4.30469,0.16039,0.41735,-0.46576,0.18751,0.90903,0.37231,,,0.81541,0.56650,-0.11660,-0.02407,
4.31250,0.12601,0.38220,-0.46576,0.18458,0.90320,0.37958,,,0.81541,0.56651,-0.11656,-0.02408,
4.32031,0.29790,0.24163,-0.50076,0.19043,0.90223,0.37328,,,0.81540,0.56654,-0.11653,-0.02410,
4.32813,0.40104,0.34706,-0.50076,0.18800,0.90223,0.38006,,,0.81539,0.56656,-0.11649,-0.02411,
4.33594,0.50417,0.20649,-0.57078,0.18946,0.90223,0.37619,,,0.81537,0.56659,-0.11645,-0.02413,
4.34375,0.50417,0.20649,-0.46576,0.19092,0.90320,0.37570,,,0.81535,0.56663,-0.11643,-0.02414,
4.35156,0.60730,0.10107,-0.50076,0.19092,0.90223,0.37280,,,0.81533,0.56666,-0.11640,-0.02416,
4.35938,0.60730,-0.07465,-0.57078,0.19189,0.90320,0.37425,,,0.81530,0.56670,-0.11639,-0.02419,
4.36719,0.60730,-0.18007,-0.60578,0.19384,0.90806,0.37377,,,0.81528,0.56674,-0.11637,-0.02423,
4.37500,0.67606,-0.07465,-0.64079,0.19628,0.91097,0.37522,,,0.81525,0.56678,-0.11635,-0.02426,
4.38281,0.60730,-0.10979,-0.81581,0.19872,0.91729,0.37377,,,0.81522,0.56682,-0.11633,-0.02430,
4.39063,0.57293,-0.07465,-0.74580,0.19920,0.91972,0.37425,,,0.81520,0.56686,-0.11631,-0.02434,
4.39844,0.64168,-0.03950,-0.71080,0.19482,0.91972,0.37280,,,0.81517,0.56690,-0.11628,-0.02438,
4.40625,0.33228,-0.28550,-0.60578,0.19677,0.92312,0.37813,,,0.81516,0.56693,-0.11627,-0.02442,
4.41406,0.33228,-0.42607,-0.53577,0.19725,0.92409,0.37958,,,0.81514,0.56695,-0.11628,-0.02447,
4.42188,-0.01150,-0.35578,-0.74580,0.19287,0.91049,0.37861,,,0.81514,0.56695,-0.11627,-0.02452,
4.42969,-0.14902,-0.39093,-0.64079,0.19384,0.91340,0.37183,,,0.81514,0.56695,-0.11627,-0.02457,
4.43750,-0.35529,-0.46121,-0.57078,0.19287,0.91000,0.37813,,,0.81515,0.56693,-0.11627,-0.02463,
4.44531,-0.56156,-0.35578,-0.60578,0.19628,0.91049,0.37570,,,0.81516,0.56690,-0.11626,-0.02468,
4.45313,-0.59593,-0.35578,-0.60578,0.19384,0.90563,0.37183,,,0.81518,0.56688,-0.11626,-0.02473,
4.46094,-0.59593,-0.60178,-0.64079,0.19384,0.89494,0.37086,,,0.81520,0.56685,-0.11627,-0.02479,
4.46875,-0.32091,-0.74235,-0.71080,0.19384,0.89785,0.36505,,,0.81521,0.56683,-0.11628,-0.02486,
4.47656,-0.18340,-0.70721,-0.71080,0.19725,0.89688,0.36941,,,0.81521,0.56683,-0.11629,-0.02493,
4.48438,0.33228,-0.74235,-0.74580,0.19579,0.90368,0.36747,,,0.81519,0.56685,-0.11630,-0.02500,
4.49219,0.50417,-0.49635,-0.64079,0.19920,0.90466,0.36699,,,0.81516,0.56688,-0.11631,-0.02505,
4.50000,0.60730,-0.60178,-0.64079,0.19579,0.90806,0.36893,,,0.81513,0.56692,-0.11632,-0.02510,
4.50781,0.53855,-0.42607,-0.67579,0.19774,0.91146,0.37086,,,0.81511,0.56695,-0.11632,-0.02515,
4.51563,0.43541,-0.32064,-0.74580,0.20310,0.92021,0.37135,,,0.81509,0.56698,-0.11631,-0.02520,
4.52344,0.40104,-0.39093,-0.60578,0.20213,0.91972,0.37280,,,0.81507,0.56701,-0.11631,-0.02525,
4.53125,0.26352,-0.18007,-0.53577,0.19920,0.91778,0.37619,,,0.81505,0.56703,-0.11630,-0.02528,
4.53906,0.19477,-0.03950,-0.53577,0.19872,0.91875,0.37377,,,0.81505,0.56704,-0.11628,-0.02531,
4.54688,0.16039,0.03078,-0.50076,0.19823,0.91340,0.37183,,,0.81504,0.56706,-0.11626,-0.02534,
4.55469,0.09163,0.06592,-0.53577,0.19969,0.91146,0.36844,,,0.81504,0.56707,-0.11623,-0.02537,
4.56250,0.05725,-0.07465,-0.53577,0.19287,0.90271,0.37328,,,0.81503,0.56707,-0.11622,-0.02540,
4.57031,0.09163,0.13621,-0.46576,0.19579,0.90757,0.37328,,,0.81503,0.56708,-0.11619,-0.02542,
4.57813,0.19477,0.24163,-0.53577,0.19531,0.90514,0.37231,,,0.81502,0.56710,-0.11616,-0.02544,
4.58594,0.43541,0.13621,-0.50076,0.19238,0.90368,0.37231,,,0.81501,0.56713,-0.11613,-0.02546,
4.59375,0.46979,0.20649,-0.46576,0.19774,0.90368,0.36893,,,0.81499,0.56716,-0.11610,-0.02547,
4.60156,0.60730,0.24163,-0.46576,0.19872,0.90611,0.36747,,,0.81497,0.56719,-0.11607,-0.02548,
4.60938,0.46979,0.24163,-0.43075,0.19482,0.90563,0.37425,,,0.81495,0.56722,-0.11604,-0.02549,
4.61719,0.50417,0.34706,-0.36074,0.19189,0.90952,0.37135,,,0.81493,0.56726,-0.11601,-0.02550,
4.62500,0.64168,0.31192,-0.46576,0.19433,0.91195,0.37183,,,0.81491,0.56730,-0.11598,-0.02550,
4.63281,0.60730,0.06592,-0.46576,0.19774,0.91292,0.37522,,,0.81488,0.56733,-0.11596,-0.02552,
4.64063,0.64168,0.20649,-0.53577,0.18946,0.91000,0.37425,,,0.81486,0.56737,-0.11592,-0.02554,
4.64844,0.74482,0.17135,-0.53577,0.19774,0.91243,0.37570,,,0.81483,0.56742,-0.11590,-0.02556,
4.65625,0.60730,0.31192,-0.60578,0.20164,0.91680,0.37425,,,0.81481,0.56746,-0.11586,-0.02557,
4.66406,0.60730,0.31192,-0.57078,0.19628,0.90952,0.37425,,,0.81479,0.56750,-0.11582,-0.02559,
4.67188,0.46979,0.27678,-0.60578,0.18946,0.90660,0.37958,,,0.81477,0.56753,-0.11578,-0.02561,
4.67969,0.36666,0.27678,-0.57078,0.19384,0.91195,0.37909,,,0.81476,0.56755,-0.11574,-0.02563,
4.68750,0.26352,0.20649,-0.50076,0.19189,0.90903,0.37716,,,0.81475,0.56757,-0.11571,-0.02564,
4.69531,0.19477,-0.10979,-0.57078,0.19189,0.91097,0.37716,,,0.81474,0.56759,-0.11570,-0.02568,
4.70313,0.09163,-0.32064,-0.60578,0.18995,0.90806,0.37425,,,0.81473,0.56760,-0.11569,-0.02572,
4.71094,0.16039,-0.18007,-0.60578,0.19189,0.91146,0.37570,,,0.81472,0.56761,-0.11568,-0.02576,
4.71875,0.02287,-0.18007,-0.67579,0.19433,0.90903,0.37619,,,0.81472,0.56762,-0.11566,-0.02581,
4.72656,0.16039,-0.25036,-0.71080,0.19433,0.90320,0.37425,,,0.81471,0.56763,-0.11565,-0.02585,
4.73438,0.19477,-0.18007,-0.71080,0.19287,0.90660,0.37813,,,0.81470,0.56765,-0.11563,-0.02590,
4.74219,0.16039,-0.21522,-0.53577,0.19189,0.90952,0.37570,,,0.81469,0.56766,-0.11562,-0.02594,
4.75000,0.09163,-0.21522,-0.64079,0.19189,0.91243,0.36941,,,0.81469,0.56767,-0.11561,-0.02598,
4.75781,0.09163,-0.25036,-0.67579,0.19189,0.90709,0.37619,,,0.81468,0.56768,-0.11560,-0.02603,
4.76563,-0.04588,-0.14493,-0.71080,0.19141,0.91389,0.36989,,,0.81468,0.56768,-0.11558,-0.02607,
4.77344,-0.08026,-0.49635,-0.67579,0.19189,0.90903,0.37716,,,0.81468,0.56768,-0.11558,-0.02613,
4.78125,-0.21777,-0.53150,-0.67579,0.19092,0.90806,0.37619,,,0.81468,0.56767,-0.11558,-0.02619,
4.78906,-0.14902,-0.56664,-0.67579,0.19384,0.91486,0.37570,,,0.81468,0.56767,-0.11559,-0.02625,
4.79688,-0.11464,-0.53150,-0.67579,0.19482,0.90563,0.37328,,,0.81468,0.56767,-0.11559,-0.02631,
4.80469,-0.08026,-0.42607,-0.71080,0.19482,0.90709,0.37474,,,0.81468,0.56767,-0.11559,-0.02636,
4.81250,-0.11464,-0.39093,-0.71080,0.19336,0.91195,0.38200,,,0.81468,0.56767,-0.11558,-0.02642,
4.82031,-0.01150,-0.35578,-0.71080,0.18848,0.90368,0.38151,,,0.81467,0.56767,-0.11557,-0.02647,
4.82813,-0.11464,-0.35578,-0.71080,0.19433,0.91389,0.37813,,,0.81467,0.56767,-0.11557,-0.02653,
4.83594,-0.01150,-0.35578,-0.74580,0.19043,0.90806,0.37958,,,0.81467,0.56767,-0.11556,-0.02658,
4.84375,-0.11464,-0.21522,-0.81581,0.19774,0.91195,0.37474,,,0.81467,0.56767,-0.11554,-0.02664,
4.85156,0.09163,-0.25036,-0.85082,0.19482,0.91486,0.37474,,,0.81466,0.56768,-0.11552,-0.02669,
4.85938,-0.01150,-0.18007,-0.71080,0.19677,0.91097,0.37474,,,0.81466,0.56769,-0.11550,-0.02674,
4.86719,-0.04588,-0.10979,-0.71080,0.19872,0.90806,0.36844,,,0.81466,0.56769,-0.11548,-0.02678,
4.87500,-0.14902,-0.14493,-0.67579,0.20067,0.91195,0.37328,,,0.81467,0.56769,-0.11546,-0.02683,
4.88281,-0.08026,-0.10979,-0.64079,0.19189,0.90757,0.37909,,,0.81467,0.56769,-0.11544,-0.02687,
4.89063,-0.04588,-0.10979,-0.71080,0.19628,0.90757,0.36989,,,0.81467,0.56769,-0.11542,-0.02691,
4.89844,0.02287,-0.00436,-0.39575,0.19336,0.90757,0.37813,,,0.81466,0.56770,-0.11541,-0.02693,
4.90625,0.05725,0.03078,-0.53577,0.19482,0.90709,0.36989,,,0.81466,0.56770,-0.11538,-0.02696,
4.91406,0.05725,0.13621,-0.46576,0.19092,0.90174,0.36844,,,0.81466,0.56771,-0.11536,-0.02698,
4.92188,0.09163,0.31192,-0.36074,0.19482,0.90757,0.37619,,,0.81466,0.56772,-0.11533,-0.02699,
4.92969,0.26352,0.31192,-0.46576,0.19141,0.90466,0.37619,,,0.81465,0.56774,-0.11529,-0.02700,
4.93750,0.26352,0.20649,-0.57078,0.19677,0.91195,0.37764,,,0.81464,0.56776,-0.11526,-0.02702,
4.94531,0.46979,0.24163,-0.46576,0.19043,0.90757,0.37861,,,0.81462,0.56779,-0.11523,-0.02704,
4.95313,0.26352,0.24163,-0.50076,0.19043,0.90854,0.37619,,,0.81461,0.56781,-0.11520,-0.02705,
4.96094,0.36666,0.31192,-0.36074,0.19092,0.90709,0.37716,,,0.81460,0.56783,-0.11517,-0.02706,
4.96875,0.29790,0.20649,-0.57078,0.19336,0.91049,0.37764,,,0.81459,0.56785,-0.11513,-0.02708,
4.97656,0.16039,0.24163,-0.60578,0.19628,0.90903,0.37280,,,0.81458,0.56786,-0.11510,-0.02710,
4.98438,0.19477,0.24163,-0.46576,0.19482,0.91486,0.38006,,,0.81458,0.56788,-0.11506,-0.02712,
4.99219,-0.01150,0.20649,-0.57078,0.19238,0.91049,0.38006,,,0.81458,0.56788,-0.11503,-0.02714,
5.00000,-0.01150,0.20649,-0.53577,0.19189,0.91146,0.37667,,,0.81458,0.56789,-0.11500,-0.02716,
5.00781,-0.11464,0.10107,-0.46576,0.19141,0.90854,0.37716,1020.946,27.5,0.81458,0.56788,-0.11497,-0.02719,
5.01563,-0.32091,0.10107,-0.50076,0.19287,0.90660,0.37861,,,0.81460,0.56787,-0.11495,-0.02721,
5.02344,-0.11464,0.17135,-0.57078,0.19482,0.90417,0.37474,,,0.81460,0.56787,-0.11492,-0.02724,
5.03125,-0.25215,0.13621,-0.46576,0.19043,0.90028,0.37716,,,0.81461,0.56786,-0.11489,-0.02726,
5.03906,-0.21777,0.17135,-0.50076,0.19092,0.90223,0.37522,,,0.81462,0.56785,-0.11486,-0.02728,
5.04688,-0.14902,-0.10979,-0.57078,0.19677,0.89882,0.37377,,,0.81462,0.56785,-0.11485,-0.02732,
5.05469,0.05725,-0.10979,-0.50076,0.19238,0.90611,0.37570,,,0.81462,0.56785,-0.11483,-0.02735,
5.06250,0.12601,-0.21522,-0.60578,0.19189,0.90660,0.37667,,,0.81461,0.56787,-0.11482,-0.02739,
5.07031,0.12601,-0.42607,-0.57078,0.19043,0.90854,0.37958,,,0.81460,0.56788,-0.11482,-0.02744,
5.07813,0.05725,-0.35578,-0.71080,0.19043,0.90709,0.38151,,,0.81460,0.56788,-0.11482,-0.02749,
5.08594,0.02287,-0.39093,-0.67579,0.18848,0.91000,0.38297,,,0.81459,0.56789,-0.11481,-0.02755,
5.09375,-0.01150,-0.25036,-0.74580,0.18946,0.90660,0.37958,,,0.81459,0.56789,-0.11480,-0.02760,
5.10156,-0.08026,-0.35578,-0.71080,0.19384,0.91195,0.37958,,,0.81459,0.56789,-0.11479,-0.02765,
5.10938,0.02287,-0.46121,-0.67579,0.19433,0.91583,0.37861,,,0.81458,0.56790,-0.11479,-0.02771,
5.11719,-0.08026,-0.53150,-0.71080,0.19287,0.91778,0.38006,,,0.81458,0.56790,-0.11479,-0.02777,
5.12500,-0.14902,-0.49635,-0.71080,0.19384,0.91340,0.37716,,,0.81458,0.56790,-0.11479,-0.02783,
5.13281,-0.25215,-0.63692,-0.74580,0.19141,0.91340,0.37474,,,0.81458,0.56789,-0.11480,-0.02789,
5.14063,-0.21777,-0.63692,-0.71080,0.18897,0.90611,0.38006,,,0.81459,0.56788,-0.11480,-0.02796,
5.14844,-0.35529,-0.70721,-0.60578,0.19287,0.90125,0.37377,,,0.81459,0.56786,-0.11482,-0.02802,
5.15625,-0.32091,-0.60178,-0.74580,0.19628,0.90125,0.37619,,,0.81460,0.56785,-0.11482,-0.02809,
5.16406,-0.25215,-0.77749,-0.64079,0.19969,0.90028,0.37570,,,0.81460,0.56784,-0.11484,-0.02816,
5.17188,-0.04588,-0.70721,-0.81581,0.19238,0.90223,0.36941,,,0.81460,0.56784,-0.11485,-0.02823,
5.17969,0.26352,-0.67207,-0.64079,0.19579,0.89834,0.37474,,,0.81458,0.56786,-0.11486,-0.02829,
5.18750,0.33228,-0.70721,-0.71080,0.19628,0.90223,0.37231,,,0.81456,0.56788,-0.11487,-0.02835,
5.19531,0.53855,-0.81263,-0.78081,0.19189,0.90125,0.37474,,,0.81453,0.56792,-0.11489,-0.02843,
5.20313,0.50417,-0.70721,-0.60578,0.19384,0.90611,0.37570,,,0.81451,0.56795,-0.11491,-0.02848,
5.21094,0.50417,-0.63692,-0.71080,0.19384,0.91049,0.37958,,,0.81448,0.56798,-0.11492,-0.02854,
5.21875,0.71044,-0.63692,-0.85082,0.19092,0.91195,0.37522,,,0.81445,0.56803,-0.11492,-0.02861,
5.22656,0.60730,-0.49635,-0.74580,0.19579,0.91340,0.37958,,,0.81442,0.56806,-0.11492,-0.02866,
5.23438,0.53855,-0.53150,-0.78081,0.19189,0.91340,0.37813,,,0.81439,0.56810,-0.11492,-0.02872,
5.24219,0.43541,-0.46121,-0.74580,0.19872,0.91486,0.37570,,,0.81437,0.56813,-0.11492,-0.02878,
5.25000,0.57293,-0.35578,-0.71080,0.19920,0.90806,0.38103,,,0.81434,0.56816,-0.11491,-0.02883,
5.25781,0.40104,-0.35578,-0.74580,0.19043,0.90611,0.38200,,,0.81432,0.56819,-0.11490,-0.02888,
5.26563,0.29790,-0.28550,-0.57078,0.19531,0.90611,0.37958,,,0.81431,0.56821,-0.11490,-0.02892,
5.27344,0.57293,-0.14493,-0.71080,0.19384,0.90077,0.37861,,,0.81428,0.56825,-0.11488,-0.02896,
5.28125,0.64168,0.10107,-0.71080,0.19872,0.89737,0.37570,,,0.81426,0.56829,-0.11485,-0.02899,
5.28906,0.71044,0.20649,-0.64079,0.19579,0.90174,0.37619,,,0.81423,0.56834,-0.11481,-0.02901,
5.29688,1.05422,0.24163,-0.74580,0.19043,0.90077,0.38006,,,0.81419,0.56840,-0.11477,-0.02904,
5.30469,1.01984,0.20649,-0.64079,0.18848,0.89639,0.37619,,,0.81415,0.56846,-0.11474,-0.02906,
5.31250,1.39800,0.24163,-0.64079,0.18995,0.89931,0.37038,,,0.81410,0.56855,-0.11470,-0.02907,
5.32031,1.70741,0.31192,-0.60578,0.19189,0.89980,0.37619,,,0.81403,0.56865,-0.11466,-0.02908,
5.32813,1.87930,0.27678,-0.53577,0.18312,0.90174,0.38248,,,0.81396,0.56875,-0.11463,-0.02909,
5.33594,2.42935,0.27678,-0.74580,0.18800,0.91146,0.38490,,,0.81387,0.56890,-0.11459,-0.02910,
5.34375,2.94503,0.13621,-0.88582,0.18361,0.90466,0.38490,,,0.81375,0.56907,-0.11456,-0.02912,
5.35156,3.22005,0.06592,-0.99084,0.18458,0.90854,0.38539,,,0.81363,0.56925,-0.11452,-0.02915,
5.35938,4.01075,0.06592,-1.55092,0.18458,0.90028,0.39265,,,0.81347,0.56949,-0.11446,-0.02920,
5.36719,4.83583,-0.03950,-2.39105,0.18166,0.88425,0.39653,,,0.81328,0.56977,-0.11438,-0.02929,
5.37500,5.35150,0.10107,-2.67109,0.18361,0.87356,0.39798,,,0.81306,0.57009,-0.11428,-0.02940,
5.38281,6.58912,0.59306,-3.16116,0.17776,0.85946,0.40185,,,0.81280,0.57048,-0.11414,-0.02950,
5.39063,8.27366,0.80391,-3.68624,0.18751,0.85120,0.41832,,,0.81248,0.57097,-0.11397,-0.02961,
5.39844,8.89246,1.26076,-3.75625,0.18117,0.85169,0.41541,,,0.81214,0.57149,-0.11377,-0.02970,
5.40625,10.23322,1.29590,-3.93128,0.18166,0.85995,0.42316,,,0.81174,0.57209,-0.11357,-0.02978,
5.41406,11.09267,1.26076,-3.82626,0.18264,0.87307,0.41589,,,0.81131,0.57274,-0.11337,-0.02986,
5.42188,11.40208,1.22562,-3.58123,0.18653,0.88570,0.41928,,,0.81087,0.57340,-0.11319,-0.02992,
5.42969,11.47083,0.83905,-3.30118,0.18166,0.90757,0.41783,,,0.81042,0.57406,-0.11304,-0.02998,
5.43750,10.92078,0.13621,-3.19617,0.17533,0.92701,0.42461,,,0.80999,0.57469,-0.11293,-0.03007,
5.44531,10.37073,-0.03950,-3.33619,0.17289,0.93624,0.41444,,,0.80957,0.57529,-0.11282,-0.03018,
5.45313,9.44252,-0.98835,-3.40620,0.17143,0.94110,0.41347,,,0.80919,0.57583,-0.11276,-0.03033,
5.46094,7.99863,-1.44520,-4.03630,0.17435,0.94548,0.41202,,,0.80885,0.57630,-0.11270,-0.03055,
5.46875,7.34544,-1.65605,-4.42135,0.17874,0.94013,0.40766,,,0.80854,0.57674,-0.11263,-0.03080,
5.47656,6.48599,-1.86690,-5.22647,0.17533,0.93090,0.40766,,,0.80826,0.57713,-0.11254,-0.03111,
5.48438,6.00469,-2.11290,-6.24163,0.16948,0.91826,0.40718,,,0.80800,0.57750,-0.11242,-0.03149,
5.49219,5.76404,-2.14804,-6.76670,0.16753,0.91243,0.41444,,,0.80774,0.57787,-0.11229,-0.03191,
5.50000,5.76404,-2.28861,-7.57183,0.16802,0.90223,0.40621,,,0.80748,0.57824,-0.11213,-0.03237,
5.50781,5.83280,-1.93719,-8.02689,0.15973,0.90320,0.40766,,,0.80721,0.57862,-0.11193,-0.03284,
5.51563,5.59215,-1.76148,-8.23693,0.15340,0.89882,0.41154,,,0.80696,0.57898,-0.11172,-0.03332,
5.52344,5.38588,-1.41005,-7.99189,0.15681,0.90174,0.41735,,,0.80672,0.57934,-0.11149,-0.03378,
5.53125,5.17961,-1.05863,-7.95688,0.15096,0.90028,0.41735,,,0.80649,0.57968,-0.11125,-0.03422,
5.53906,4.56080,-0.18007,-7.64184,0.14755,0.90563,0.41008,,,0.80629,0.57999,-0.11096,-0.03461,
5.54688,4.07951,0.45249,-6.90673,0.14414,0.89639,0.40573,,,0.80612,0.58027,-0.11068,-0.03494,
5.55469,3.87324,0.87420,-6.59168,0.15242,0.90611,0.40330,,,0.80595,0.58053,-0.11038,-0.03524,
5.56250,3.35757,1.54190,-5.61153,0.15583,0.89931,0.40911,,,0.80582,0.58076,-0.11008,-0.03546,
5.57031,3.15130,2.66645,-4.45636,0.16655,0.89494,0.41299,,,0.80570,0.58097,-0.10976,-0.03558,
5.57813,3.18567,3.19359,-4.07130,0.16948,0.89882,0.40379,,,0.80559,0.58119,-0.10943,-0.03565,
5.58594,3.28881,4.10729,-3.51122,0.16948,0.89542,0.38781,,,0.80548,0.58140,-0.10908,-0.03566,
5.59375,4.56080,4.42357,-2.56607,0.18117,0.90709,0.37086,,,0.80533,0.58168,-0.10874,-0.03559,
5.60156,5.17961,4.84528,-1.83096,0.17630,0.91146,0.35973,,,0.80515,0.58199,-0.10842,-0.03546,
5.60938,5.38588,5.86440,0.19934,0.17094,0.92652,0.33745,,,0.80498,0.58230,-0.10812,-0.03517,
5.61719,4.14827,6.39154,1.63456,0.14804,0.90660,0.33794,,,0.80487,0.58253,-0.10784,-0.03480,
5.62500,3.73573,6.35640,2.15963,0.13098,0.90320,0.33019,,,0.80477,0.58274,-0.10759,-0.03440,
5.63281,4.66394,3.89643,3.87489,0.10808,0.92069,0.35295,,,0.80463,0.58297,-0.10754,-0.03400,
5.64063,5.17961,0.03078,6.50029,0.08176,0.96637,0.37474,,,0.80444,0.58321,-0.10781,-0.03360,
5.64844,4.76707,-2.18318,7.83048,0.08176,0.99164,0.38829,,,0.80425,0.58341,-0.10825,-0.03323,
5.65625,3.08254,-5.38113,9.89579,0.05399,1.03343,0.38248,,,0.80411,0.58349,-0.10894,-0.03287,
5.66406,0.98547,-9.17650,10.31586,0.05399,1.05481,0.39507,,,0.80402,0.58345,-0.10986,-0.03267,
5.67188,-0.69907,-10.86333,10.07082,0.06958,1.05141,0.39265,,,0.80399,0.58331,-0.11085,-0.03255,
5.67969,-4.10252,-13.18273,8.07552,0.09638,1.03489,0.40524,,,0.80407,0.58299,-0.11189,-0.03267,
5.68750,-7.09342,-14.44785,5.06507,0.12075,0.99990,0.40669,,,0.80426,0.58253,-0.11286,-0.03302,
5.69531,-8.39980,-14.65870,3.27980,0.13927,0.98046,0.41832,,,0.80448,0.58201,-0.11378,-0.03348,
5.70313,-9.67179,-14.37756,-0.39575,0.16119,0.94596,0.39895,,,0.80475,0.58145,-0.11453,-0.03415,
5.71094,-7.81537,-14.48299,-4.21132,0.17874,0.94159,0.39798,,,0.80494,0.58102,-0.11514,-0.03502,
5.71875,-7.33407,-14.72899,-5.92658,0.18361,0.93624,0.39265,,,0.80510,0.58063,-0.11570,-0.03598,
5.72656,-7.98726,-14.23700,-9.63714,0.19725,0.90514,0.36505,,,0.80528,0.58023,-0.11608,-0.03714,
5.73438,-8.57169,-13.74500,-12.50757,0.23478,0.83176,0.35198,,,0.80548,0.57983,-0.11631,-0.03844,
5.74219,-8.02164,-13.14758,-13.48771,0.25135,0.80406,0.34665,,,0.80566,0.57946,-0.11648,-0.03976,
5.75000,-3.55246,-11.14447,-15.06295,0.27863,0.75158,0.30307,,,0.80567,0.57935,-0.11649,-0.04106,
5.75781,2.46373,-8.75480,-15.02794,0.29715,0.75596,0.27983,,,0.80546,0.57958,-0.11638,-0.04221,
5.76563,5.66091,-6.96254,-14.32784,0.31372,0.76665,0.27402,,,0.80514,0.57998,-0.11622,-0.04322,
5.77344,12.88034,-2.21833,-11.38740,0.33711,0.78803,0.25417,,,0.80457,0.58077,-0.11593,-0.04383,
5.78125,23.02193,2.63131,-7.08175,0.35709,0.83857,0.24739,,,0.80366,0.58210,-0.11557,-0.04394,
5.78906,27.52548,5.05613,-5.12146,0.35563,0.88327,0.23141,,,0.80259,0.58366,-0.11517,-0.04380,
5.79688,31.92590,9.20292,-1.86597,0.36976,0.94256,0.22076,,,0.80139,0.58545,-0.11469,-0.04328,
5.80469,31.89152,12.92801,-0.08070,0.34150,0.97463,0.22608,,,0.80021,0.58723,-0.11408,-0.04252,
5.81250,31.10082,14.29856,0.23435,0.31859,0.99844,0.22027,,,0.79908,0.58897,-0.11339,-0.04170,
5.82031,28.52245,17.39108,-0.25573,0.26889,1.01399,0.22221,,,0.79806,0.59057,-0.11252,-0.04079,
5.82813,28.55683,21.18645,-1.30589,0.21772,1.05093,0.24400,,,0.79707,0.59219,-0.11139,-0.03979,
5.83594,29.10688,22.69757,-2.04100,0.19579,1.07279,0.23577,,,0.79606,0.59385,-0.11015,-0.03876,
5.84375,27.38797,24.10326,-4.14131,0.15681,1.14229,0.24061,,,0.79512,0.59543,-0.10875,-0.03781,
5.85156,20.09978,23.33013,-6.94173,0.12611,1.15589,0.24739,,,0.79445,0.59663,-0.10726,-0.03709,
5.85938,16.21503,22.06501,-8.09690,0.10223,1.13743,0.23673,,,0.79393,0.59762,-0.10577,-0.03651,
5.86719,8.47993,17.53165,-9.56712,0.07348,1.05141,0.22899,,,0.79369,0.59819,-0.10445,-0.03625,
5.87500,5.48902,15.14197,-10.23222,0.06325,1.00573,0.24981,,,0.79355,0.59860,-0.10323,-0.03615,
5.88281,4.69832,9.76520,-10.96734,0.06861,0.92750,0.25562,,,0.79340,0.59895,-0.10227,-0.03631,
5.89063,7.10480,4.56414,-10.58228,0.08664,0.88668,0.23770,,,0.79311,0.59942,-0.10161,-0.03665,
5.89844,6.69226,2.45560,-10.16221,0.10808,0.87696,0.24593,,,0.79283,0.59986,-0.10107,-0.03705,
5.90625,5.11086,0.17135,-9.28708,0.14219,0.84391,0.25368,,,0.79260,0.60020,-0.10070,-0.03751,
5.91406,4.90459,0.38220,-8.27193,0.18264,0.79969,0.24303,,,0.79238,0.60052,-0.10035,-0.03791,
5.92188,5.72966,0.38220,-8.06190,0.20067,0.78560,0.25029,,,0.79213,0.60089,-0.10002,-0.03829,
5.92969,7.44858,1.12019,-8.06190,0.24404,0.77734,0.23625,,,0.79181,0.60135,-0.09964,-0.03862,
5.93750,8.54868,1.78790,-7.99189,0.27279,0.76567,0.24109,,,0.79145,0.60187,-0.09924,-0.03892,
5.94531,9.95819,2.10418,-8.02689,0.29033,0.76956,0.23867,,,0.79103,0.60246,-0.09883,-0.03920,
5.95313,11.98651,3.93158,-7.74685,0.29764,0.79192,0.22947,,,0.79055,0.60317,-0.09833,-0.03938,
5.96094,13.56791,8.07837,-6.52167,0.33614,0.82059,0.20768,,,0.79002,0.60397,-0.09766,-0.03931,
5.96875,14.04920,10.46805,-5.47151,0.34004,0.83954,0.20623,,,0.78950,0.60479,-0.09691,-0.03908,
5.97656,13.73980,15.38797,-3.54622,0.35124,0.87064,0.19655,,,0.78902,0.60559,-0.09597,-0.03854,
5.98438,12.70845,20.83503,-1.62093,0.32688,0.88862,0.20381,,,0.78863,0.60634,-0.09482,-0.03769,
5.99219,12.88034,23.15442,-0.99084,0.31859,0.89980,0.19800,,,0.78824,0.60710,-0.09357,-0.03670,
6.00000,12.53656,27.44178,0.30436,0.30397,0.89931,0.20575,,,0.78790,0.60784,-0.09214,-0.03546,
6.00781,12.84596,31.02629,1.70457,0.28741,0.90125,0.18444,1020.955,27.5,0.78756,0.60859,-0.09057,-0.03401,
6.01563,12.74283,32.88884,1.98461,0.28010,0.89785,0.18153,,,0.78724,0.60934,-0.08892,-0.03246,
6.02344,13.77418,34.43510,1.56454,0.24550,0.86432,0.15297,,,0.78688,0.61014,-0.08716,-0.03086,
6.03125,16.62757,35.48937,0.12933,0.22698,0.85072,0.10890,,,0.78639,0.61111,-0.08530,-0.02928,
6.03906,17.89957,36.15707,-0.50076,0.20310,0.83760,0.10164,,,0.78586,0.61214,-0.08338,-0.02769,
6.04688,20.13415,37.31677,-1.76095,0.17776,0.82982,0.08275,,,0.78522,0.61329,-0.08134,-0.02611,
6.05469,23.57198,37.56276,-3.37120,0.18020,0.82010,0.07840,,,0.78443,0.61464,-0.07923,-0.02459,
6.06250,25.46278,37.10591,-4.14131,0.18653,0.83176,0.07017,,,0.78356,0.61608,-0.07712,-0.02312,
6.07031,28.41931,35.84079,-5.92658,0.19725,0.87841,0.07404,,,0.78254,0.61769,-0.07500,-0.02178,
6.07813,29.27877,33.76739,-6.87172,0.18653,0.91486,0.09486,,,0.78146,0.61933,-0.07295,-0.02058,
6.08594,28.65996,32.46713,-7.04675,0.16948,0.93867,0.11036,,,0.78040,0.62094,-0.07096,-0.01944,
6.09375,28.28180,30.32345,-6.80171,0.12318,0.96977,0.12585,,,0.77934,0.62251,-0.06910,-0.01838,
6.10156,30.51639,29.05833,-6.13661,0.11587,1.01011,0.14473,,,0.77817,0.62420,-0.06733,-0.01733,
6.10938,31.13520,28.70690,-5.40150,0.10320,1.03829,0.13650,,,0.77697,0.62590,-0.06562,-0.01625,
6.11719,31.44460,28.07434,-3.19617,0.09589,1.08494,0.14231,,,0.77574,0.62761,-0.06403,-0.01508,
6.12500,27.73175,27.61749,-1.02584,0.08322,1.07571,0.12149,,,0.77467,0.62911,-0.06255,-0.01383,
6.13281,26.11597,26.52808,0.09432,0.09346,1.09515,0.08421,,,0.77366,0.63051,-0.06118,-0.01258,
6.14063,18.00270,24.48983,2.50969,0.11685,1.13354,0.19945,,,0.77299,0.63147,-0.06001,-0.01132,
6.14844,7.13917,20.72960,4.18994,0.12416,1.10341,0.23044,,,0.77277,0.63184,-0.05910,-0.01018,
6.15625,3.94200,19.53476,5.20509,0.11929,1.10001,0.23335,,,0.77268,0.63204,-0.05830,-0.00904,
6.16406,-2.86490,19.56990,7.44543,0.05789,1.09855,0.22172,,,0.77289,0.63188,-0.05759,-0.00782,
6.17188,-6.47462,18.51563,9.68576,0.03255,1.07911,0.21688,,,0.77324,0.63151,-0.05703,-0.00654,
6.17969,-8.02164,17.74250,11.19099,0.02572,1.07182,0.21591,,,0.77366,0.63105,-0.05657,-0.00522,
6.18750,-11.70011,14.86083,14.34146,0.03596,1.05238,0.20236,,,0.77423,0.63038,-0.05640,-0.00387,
6.19531,-14.38162,13.27943,17.52694,0.07494,1.04121,0.21301,,,0.77490,0.62955,-0.05645,-0.00242,
6.20313,-16.89123,13.66600,19.13718,0.09297,1.02614,0.21591,,,0.77568,0.62859,-0.05654,-0.00089,
6.21094,-26.31087,13.27943,21.65756,0.18458,0.92652,0.45899,,,0.77686,0.62711,-0.05677,0.00072,
6.21875,-37.58694,12.11973,22.32266,0.16997,0.86918,0.67495,,,0.77851,0.62503,-0.05708,0.00228,
6.22656,-43.01870,6.25097,20.22234,0.07640,0.61892,0.96741,,,0.78036,0.62266,-0.05762,0.00345,
6.23438,-28.09854,-5.55685,12.73122,-0.19746,0.66606,0.97468,,,0.78153,0.62112,-0.05846,0.00378,
6.24219,-23.52623,-15.08041,9.23070,-0.42747,0.75450,0.94466,,,0.78246,0.61983,-0.05966,0.00354,
6.25000,-6.19959,-39.85574,11.54104,-0.69598,1.23316,0.63815,,,0.78255,0.61946,-0.06227,0.00244,
6.25781,-3.55246,-41.99942,24.91305,-0.56684,1.54416,0.32002,,,0.78252,0.61916,-0.06556,0.00198,
6.26563,-4.41192,-36.72807,30.58390,-0.43722,1.49411,0.21930,,,0.78253,0.61879,-0.06881,0.00204,
6.27344,8.17052,-37.32549,31.73907,-0.00205,1.40761,0.29581,,,0.78200,0.61908,-0.07214,0.00220,
6.28125,18.86216,-38.55547,30.58390,0.25329,1.48634,0.43575,,,0.78101,0.61994,-0.07549,0.00229,
6.28906,14.18672,-35.70894,28.20354,0.36391,1.45475,0.47013,,,0.78022,0.62055,-0.07858,0.00236,
6.29688,-3.41495,-28.85619,18.50709,0.42044,1.23947,0.53404,,,0.78020,0.62027,-0.08090,0.00211,
6.30469,-9.22488,-29.73475,5.20509,0.29910,1.14666,0.51903,,,0.78042,0.61976,-0.08270,0.00107,
6.31250,-10.18747,-30.89445,-1.16586,0.25232,1.16415,0.50354,,,0.78068,0.61922,-0.08429,-0.00035,
6.32031,-15.68799,-30.89445,-9.74215,0.17533,1.19817,0.53937,,,0.78116,0.61844,-0.08553,-0.00226,
6.32813,-20.32905,-31.66758,-14.50287,0.07835,1.14131,0.53646,,,0.78183,0.61743,-0.08660,-0.00449,
6.33594,-21.32602,-32.89756,-15.76305,0.05204,1.13937,0.52533,,,0.78253,0.61638,-0.08768,-0.00684,
6.34375,-23.93877,-34.68982,-17.37330,0.00964,1.07425,0.49240,,,0.78331,0.61518,-0.08879,-0.00937,
6.35156,-24.21380,-32.75699,-18.35344,0.02036,1.03100,0.47545,,,0.78412,0.61398,-0.08975,-0.01187,
6.35938,-24.11066,-31.10530,-18.28343,0.02377,1.00379,0.47836,,,0.78492,0.61277,-0.09063,-0.01430,
6.36719,-22.56364,-28.89134,-17.30329,0.06032,0.96783,0.49773,,,0.78566,0.61164,-0.09143,-0.01657,
6.37500,-22.15110,-27.62621,-15.09795,0.11295,0.92555,0.48756,,,0.78639,0.61051,-0.09225,-0.01867,
6.38281,-22.42613,-26.99365,-13.80276,0.13293,0.88619,0.48272,,,0.78714,0.60936,-0.09310,-0.02067,
6.39063,-22.73553,-27.59107,-11.17737,0.17191,0.83031,0.44010,,,0.78789,0.60817,-0.09408,-0.02256,
6.39844,-24.90136,-27.02879,-10.30224,0.17435,0.80358,0.42025,,,0.78873,0.60685,-0.09507,-0.02440,
6.40625,-26.27649,-26.64223,-10.23222,0.13927,0.74964,0.41008,,,0.78963,0.60546,-0.09603,-0.02622,
6.41406,-27.54849,-27.80193,-10.82731,0.12367,0.73992,0.38684,,,0.79056,0.60400,-0.09703,-0.02813,
6.42188,-29.88621,-28.15335,-12.96263,0.11490,0.72486,0.38006,,,0.79158,0.60241,-0.09796,-0.03018,
6.42969,-30.84880,-27.90735,-14.43285,0.09053,0.70882,0.37619,,,0.79262,0.60078,-0.09881,-0.03232,
6.43750,-32.56771,-29.98075,-16.67319,0.09492,0.72194,0.36505,,,0.79371,0.59907,-0.09967,-0.03466,
6.44531,-35.42111,-29.34819,-19.33359,0.11587,0.70153,0.35004,,,0.79491,0.59721,-0.10039,-0.03715,
6.45313,-35.97116,-29.48876,-20.27873,0.11490,0.69910,0.35876,,,0.79612,0.59532,-0.10107,-0.03969,
6.46094,-36.45246,-29.55904,-21.04885,0.16168,0.68452,0.33358,,,0.79733,0.59340,-0.10172,-0.04229,
6.46875,-35.55862,-29.76989,-20.48876,0.15535,0.63107,0.31421,,,0.79850,0.59152,-0.10241,-0.04485,
6.47656,-34.21787,-29.06705,-20.45376,0.16802,0.62572,0.29823,,,0.79961,0.58971,-0.10306,-0.04738,
6.48438,-31.91453,-29.94561,-19.89367,0.18410,0.63301,0.29726,,,0.80062,0.58801,-0.10379,-0.04989,
6.49219,-29.74870,-30.47274,-18.49346,0.19092,0.65682,0.30114,,,0.80153,0.58641,-0.10461,-0.05233,
6.50000,-29.26740,-30.57817,-17.58333,0.20018,0.67675,0.29048,,,0.80241,0.58482,-0.10547,-0.05472,
6.50781,-28.61421,-30.54302,-15.62303,0.17922,0.72437,0.30743,,,0.80327,0.58325,-0.10641,-0.05700,
6.51563,-28.75173,-30.22674,-12.78761,0.18848,0.76179,0.30840,,,0.80414,0.58165,-0.10745,-0.05911,
6.52344,-29.23302,-30.01589,-11.45741,0.19336,0.75741,0.31179,,,0.80503,0.58001,-0.10852,-0.06114,
6.53125,-30.29875,-30.43760,-8.93703,0.18995,0.76470,0.30549,,,0.80596,0.57828,-0.10971,-0.06306,
6.53906,-30.53940,-30.08618,-6.62668,0.19628,0.75887,0.29726,,,0.80691,0.57652,-0.11097,-0.06484,
6.54688,-30.50502,-29.34819,-5.50652,0.20359,0.73992,0.28806,,,0.80786,0.57475,-0.11224,-0.06652,
6.55469,-28.71735,-26.85308,-4.24633,0.20651,0.71854,0.29000,,,0.80876,0.57308,-0.11342,-0.06803,
6.56250,-25.00450,-25.62310,-3.58123,0.22113,0.72194,0.29484,,,0.80952,0.57161,-0.11457,-0.06942,
6.57031,-23.11369,-24.74454,-3.61623,0.21967,0.73700,0.29339,,,0.81021,0.57024,-0.11569,-0.07076,
6.57813,-19.84776,-23.54971,-4.03630,0.21918,0.78997,0.29775,,,0.81077,0.56906,-0.11674,-0.07206,
6.58594,-18.91954,-22.31973,-4.35134,0.23721,0.84051,0.30114,,,0.81130,0.56794,-0.11771,-0.07332,
6.59375,-17.71631,-19.89491,-4.28133,0.22503,0.88327,0.31518,,,0.81181,0.56689,-0.11856,-0.07446,
6.60156,-16.54745,-17.18895,-3.93128,0.22844,0.94839,0.32099,,,0.81229,0.56592,-0.11927,-0.07548,
6.60938,-16.89123,-15.43183,-3.54622,0.23137,0.96734,0.33164,,,0.81279,0.56493,-0.11990,-0.07641,
6.61719,-16.82247,-12.51502,-3.16116,0.22942,1.00573,0.33939,,,0.81332,0.56396,-0.12039,-0.07720,
6.62500,-17.30377,-9.73878,-2.91613,0.21626,1.01302,0.35053,,,0.81389,0.56297,-0.12073,-0.07788,
6.63281,-17.44128,-8.68451,-3.02114,0.21577,1.01837,0.35198,,,0.81447,0.56198,-0.12100,-0.07852,
6.64063,-18.43825,-7.80595,-3.96628,0.18605,1.01885,0.36505,,,0.81509,0.56095,-0.12118,-0.07920,
6.64844,-19.05706,-8.71965,-5.05145,0.16850,1.02323,0.38684,,,0.81572,0.55989,-0.12137,-0.07997,
6.65625,-19.36646,-9.42250,-5.36649,0.15096,1.02760,0.37667,,,0.81635,0.55880,-0.12158,-0.08079,
6.66406,-19.98527,-10.44163,-5.92658,0.13488,1.02517,0.37231,,,0.81699,0.55768,-0.12183,-0.08168,
6.67188,-20.50094,-11.60132,-6.66169,0.10320,1.02906,0.36311,,,0.81764,0.55653,-0.12211,-0.08266,
6.67969,-20.43219,-12.55016,-7.25678,0.10223,1.02080,0.36215,,,0.81827,0.55538,-0.12242,-0.08371,
6.68750,-20.32905,-14.97498,-8.55197,0.10515,1.01497,0.35730,,,0.81886,0.55423,-0.12281,-0.08493,
6.69531,-20.98224,-17.47009,-9.88217,0.11295,1.00282,0.34907,,,0.81945,0.55304,-0.12329,-0.08631,
6.70313,-21.63543,-18.91092,-10.44226,0.12318,0.99601,0.34520,,,0.82004,0.55181,-0.12383,-0.08779,
6.71094,-23.11369,-20.87889,-11.35239,0.14950,0.97706,0.32631,,,0.82067,0.55048,-0.12443,-0.08941,
6.71875,-24.52320,-22.21430,-11.91248,0.16850,0.98046,0.31276,,,0.82132,0.54907,-0.12508,-0.09111,
6.72656,-25.62330,-22.35487,-11.87747,0.18848,0.96200,0.30114,,,0.82202,0.54760,-0.12572,-0.09283,
6.73438,-26.10460,-22.31973,-11.56242,0.21041,0.93770,0.28903,,,0.82272,0.54609,-0.12638,-0.09454,
6.74219,-25.82957,-21.86288,-11.24738,0.21772,0.91486,0.32196,,,0.82342,0.54460,-0.12702,-0.09620,
6.75000,-25.58893,-21.44117,-11.10736,0.22065,0.91097,0.36747,,,0.82411,0.54312,-0.12764,-0.09785,
6.75781,-23.69812,-19.40291,-10.47726,0.24209,0.89737,0.36311,,,0.82475,0.54175,-0.12819,-0.09936,
6.76563,-22.35737,-15.46698,-9.60213,0.28400,0.88959,0.38539,,,0.82537,0.54047,-0.12855,-0.10066,
6.77344,-21.60105,-13.04216,-9.28708,0.31226,0.89008,0.40088,,,0.82599,0.53924,-0.12879,-0.10186,
6.78125,-19.26333,-5.38113,-9.11206,0.37756,0.87793,0.40863,,,0.82658,0.53820,-0.12863,-0.10274,
6.78906,-14.51913,3.86129,-9.63714,0.42580,0.87404,0.39991,,,0.82708,0.53749,-0.12796,-0.10326,
6.79688,-11.83762,8.74607,-10.44226,0.43116,0.86724,0.39701,,,0.82752,0.53698,-0.12700,-0.10363,
6.80469,-6.16521,17.91821,-13.41770,0.42434,0.87647,0.43333,,,0.82780,0.53687,-0.12545,-0.10379,
6.81250,-0.42404,26.31723,-15.34299,0.35758,0.85072,0.47255,,,0.82793,0.53716,-0.12341,-0.10369,
6.82031,3.11692,29.40975,-15.65804,0.32152,0.84780,0.49385,,,0.82796,0.53768,-0.12119,-0.10347,
6.82813,9.61441,31.72914,-14.22282,0.24988,0.81427,0.50935,,,0.82776,0.53856,-0.11895,-0.10303,
6.83594,17.83081,29.40975,-11.42240,0.18069,0.81281,0.53356,,,0.82726,0.53986,-0.11700,-0.10245,
6.84375,22.09371,27.47692,-9.95218,0.14657,0.81962,0.55971,,,0.82660,0.54138,-0.11523,-0.10183,
6.85156,28.52245,23.33013,-7.36179,0.07153,0.84974,0.61878,,,0.82568,0.54320,-0.11384,-0.10115,
6.85938,30.48201,19.49962,-5.50652,0.01062,0.87744,0.66914,,,0.82466,0.54509,-0.11275,-0.10051,
6.86719,29.07250,18.16421,-4.28133,-0.00888,0.87793,0.68318,,,0.82369,0.54688,-0.11177,-0.09985,
6.87500,26.76916,16.68823,-2.25103,-0.02983,0.90174,0.69286,,,0.82280,0.54851,-0.11093,-0.09915,
6.88281,24.67208,16.37195,-0.46576,0.01646,0.96686,0.69335,,,0.82200,0.55001,-0.11016,-0.09838,
6.89063,23.36571,16.82880,-0.11571,0.04863,0.99018,0.66623,,,0.82125,0.55143,-0.10937,-0.09758,
6.89844,20.78734,19.74561,-1.72595,0.12416,1.03100,0.65074,,,0.82060,0.55273,-0.10834,-0.09677,
6.90625,17.86519,23.04899,-5.36649,0.16217,1.04412,0.62556,,,0.82006,0.55392,-0.10696,-0.09607,
6.91406,16.90260,23.71669,-7.57183,0.16168,1.06551,0.62072,,,0.81954,0.55508,-0.10546,-0.09548,
6.92188,15.21806,24.73582,-11.84247,0.15827,1.09418,0.60619,,,0.81907,0.55617,-0.10373,-0.09509,
6.92969,14.39299,25.50895,-13.69774,0.16168,1.12042,0.59554,,,0.81861,0.55724,-0.10188,-0.09479,
6.93750,11.67710,25.61438,-16.35814,0.16753,1.11070,0.57956,,,0.81824,0.55816,-0.09991,-0.09465,
6.94531,11.09267,24.94668,-17.47831,0.14901,1.06988,0.53646,,,0.81787,0.55906,-0.09792,-0.09460,
6.95313,12.02089,23.99783,-17.09325,0.12465,1.06502,0.52726,,,0.81746,0.56000,-0.09601,-0.09456,
6.96094,13.01786,20.76474,-13.17267,0.07981,1.05627,0.52000,,,0.81701,0.56094,-0.09443,-0.09441,
6.96875,14.53050,17.84793,-6.38165,0.07397,1.04461,0.49676,,,0.81653,0.56191,-0.09329,-0.09399,
6.97656,15.38995,16.68823,-2.46106,0.07884,1.04850,0.49240,,,0.81603,0.56289,-0.09236,-0.09339,
6.98438,15.49309,14.47427,5.76518,0.09248,1.06988,0.46238,,,0.81556,0.56380,-0.09188,-0.09242,
6.99219,12.33029,13.20915,13.53634,0.11441,1.04558,0.44737,,,0.81526,0.56449,-0.09174,-0.09108,
7.00000,10.26759,12.64687,16.47678,0.12611,1.00768,0.42606,,,0.81504,0.56503,-0.09174,-0.08961,
7.00781,7.68923,12.96315,20.08232,0.17289,0.90563,0.39895,1020.952,27.5,0.81495,0.56541,-0.09184,-0.08795,
7.01563,8.10176,14.47427,20.85244,0.20554,0.78851,0.35730,,,0.81485,0.56582,-0.09188,-0.08618,
7.02344,9.51127,15.38797,20.57240,0.22649,0.76130,0.34229,,,0.81470,0.56630,-0.09188,-0.08438,
7.03125,14.87428,18.09393,19.62725,0.25817,0.70930,0.31227,,,0.81435,0.56711,-0.09172,-0.08250,
7.03906,22.43750,21.85415,18.08702,0.26645,0.70542,0.29436,,,0.81372,0.56836,-0.09133,-0.08051,
7.04688,26.15035,24.03298,17.94700,0.26596,0.74089,0.29048,,,0.81295,0.56983,-0.09084,-0.07842,
7.05469,31.34147,28.67176,19.66226,0.24111,0.77345,0.26530,,,0.81201,0.57160,-0.09018,-0.07602,
7.06250,34.09173,33.02941,21.58755,0.22844,0.81330,0.27160,,,0.81099,0.57352,-0.08937,-0.07333,
7.07031,34.16048,35.20823,22.46268,0.20895,0.81573,0.26482,,,0.80998,0.57544,-0.08847,-0.07050,
7.07813,33.50730,37.63305,24.38797,0.18361,0.79678,0.24593,,,0.80900,0.57732,-0.08751,-0.06747,
7.08594,32.88849,37.77362,26.17324,0.16071,0.83711,0.26530,,,0.80805,0.57915,-0.08661,-0.06435,
7.09375,31.54774,37.17620,27.15338,0.15437,0.85655,0.27450,,,0.80714,0.58089,-0.08577,-0.06120,
7.10156,26.90667,37.14106,28.72862,0.14755,0.85072,0.27208,,,0.80640,0.58235,-0.08498,-0.05799,
7.10938,23.57198,35.41908,29.49874,0.14121,0.80795,0.23770,,,0.80578,0.58361,-0.08429,-0.05482,
7.11719,22.43750,34.61081,29.25370,0.13634,0.79872,0.22657,,,0.80519,0.58480,-0.08364,-0.05171,
7.12500,20.37480,32.92398,28.58860,0.10905,0.78706,0.20817,,,0.80466,0.58587,-0.08305,-0.04871,
7.13281,18.41524,30.67487,27.67846,0.08907,0.78803,0.19461,,,0.80419,0.58682,-0.08253,-0.04586,
7.14063,17.41827,29.58546,27.25840,0.08615,0.78268,0.18783,,,0.80374,0.58772,-0.08205,-0.04308,
7.14844,15.32120,26.59836,26.24325,0.08469,0.76567,0.16459,,,0.80335,0.58848,-0.08169,-0.04049,
7.15625,12.43342,24.34926,25.43813,0.08128,0.74769,0.14812,,,0.80305,0.58909,-0.08141,-0.03805,
7.16406,11.26456,23.22470,24.98306,0.07007,0.73798,0.14038,,,0.80279,0.58963,-0.08117,-0.03569,
7.17188,9.30500,20.83503,23.61785,0.04960,0.72340,0.12391,,,0.80259,0.59005,-0.08100,-0.03351,
7.17969,7.31106,19.28876,21.23750,0.02767,0.69618,0.10697,,,0.80245,0.59038,-0.08082,-0.03153,
7.18750,6.03907,18.69135,19.45223,0.01549,0.68889,0.11132,,,0.80235,0.59064,-0.08059,-0.02968,
7.19531,5.45464,16.37195,15.32161,-0.00693,0.66460,0.09486,,,0.80225,0.59089,-0.08032,-0.02815,
7.20313,7.68923,13.42000,10.49088,0.00574,0.65488,0.08275,,,0.80203,0.59128,-0.08003,-0.02700,
7.21094,9.58003,11.90888,8.00551,0.01841,0.66168,0.08760,,,0.80172,0.59178,-0.07972,-0.02603,
7.21875,13.77418,8.67579,3.27980,0.05155,0.66606,0.05322,,,0.80122,0.59253,-0.07940,-0.02542,
7.22656,18.93092,5.30213,-0.92083,0.07250,0.68647,0.03627,,,0.80048,0.59358,-0.07910,-0.02516,
7.23438,21.47491,3.79101,-2.42605,0.09248,0.69375,0.02949,,,0.79963,0.59477,-0.07884,-0.02502,
7.24219,27.55986,1.47162,-4.17632,0.11782,0.73312,0.03675,,,0.79851,0.59630,-0.07863,-0.02504,
7.25000,32.75097,-1.44520,-4.10631,0.15388,0.79726,0.08082,,,0.79716,0.59810,-0.07860,-0.02515,
7.25781,34.71053,-2.99146,-3.37120,0.18069,0.84148,0.11229,,,0.79572,0.60000,-0.07869,-0.02526,
7.26563,37.46080,-6.08398,-0.81581,0.23673,0.93867,0.18347,,,0.79415,0.60202,-0.07905,-0.02536,
7.27344,37.59831,-8.75480,2.43968,0.31957,1.03683,0.24981,,,0.79256,0.60403,-0.07969,-0.02538,
7.28125,37.01388,-8.82508,4.22494,0.35417,1.08786,0.26385,,,0.79099,0.60599,-0.08040,-0.02531,
7.28906,33.71357,-5.87313,8.28555,0.41752,1.17047,0.29000,,,0.78958,0.60775,-0.08112,-0.02492,
7.29688,30.82579,-2.99146,10.66591,0.43701,1.20011,0.30017,,,0.78830,0.60934,-0.08178,-0.02430,
7.30469,23.84701,3.68558,15.39162,0.43896,1.23559,0.30065,,,0.78736,0.61054,-0.08226,-0.02319,
7.31250,16.49006,10.18691,19.94230,0.43116,1.24482,0.27015,,,0.78676,0.61133,-0.08257,-0.02160,
7.32031,13.05223,13.42000,22.18264,0.42629,1.23996,0.25852,,,0.78632,0.61193,-0.08280,-0.01978,
7.32813,6.52036,19.11305,26.59330,0.43262,1.26960,0.24497,,,0.78619,0.61215,-0.08289,-0.01751,
7.33594,-3.20868,26.35237,29.91880,0.40826,1.28564,0.22221,,,0.78651,0.61184,-0.08272,-0.01483,
7.34375,-7.81537,28.77719,30.72392,0.38828,1.28710,0.19848,,,0.78702,0.61127,-0.08246,-0.01202,
7.35156,-16.68496,34.68109,31.14398,0.29910,1.28807,0.16362,,,0.78793,0.61023,-0.08188,-0.00900,
7.35938,-23.21683,37.52762,29.63876,0.20749,1.26329,0.08905,,,0.78912,0.60884,-0.08108,-0.00598,
7.36719,-25.38266,37.91419,28.58860,0.16168,1.23267,0.05758,,,0.79039,0.60732,-0.08022,-0.00300,
7.37500,-28.44232,34.39996,26.03322,0.14511,1.15881,0.17088,,,0.79175,0.60565,-0.07944,-0.00033,
7.38281,-31.15820,26.98493,23.33781,0.12318,1.03732,0.26530,,,0.79318,0.60384,-0.07894,0.00187,
7.39063,-29.95497,23.18956,21.79758,0.07543,0.99018,0.27692,,,0.79453,0.60210,-0.07859,0.00384,
7.39844,-22.97618,15.70425,18.92715,-0.01180,0.96880,0.38248,,,0.79556,0.60075,-0.07852,0.00539,
7.40625,-15.79112,4.98585,17.38692,-0.12924,1.01497,0.53937,,,0.79622,0.59979,-0.07897,0.00645,
7.41406,-14.03783,-2.46432,16.89685,-0.22037,1.05773,0.60232,,,0.79678,0.59894,-0.07980,0.00719,
7.42188,-14.62226,-18.52436,15.98671,-0.34414,1.12430,0.67834,,,0.79726,0.59807,-0.08146,0.00722,
7.42969,-15.10356,-33.49498,14.93655,-0.37825,1.14374,0.69625,,,0.79768,0.59717,-0.08389,0.00658,
7.43750,-14.96605,-40.41801,13.67636,-0.35389,1.13111,0.70981,,,0.79805,0.59630,-0.08665,0.00559,
7.44531,-16.16928,-53.77209,9.65076,-0.24132,1.02760,0.66333,,,0.79839,0.59537,-0.08997,0.00384,
7.45313,-12.49081,-62.03053,6.15023,-0.10829,0.93721,0.55244,,,0.79850,0.59467,-0.09360,0.00157,
7.46094,-11.35633,-64.45535,5.34511,-0.04835,0.87987,0.47448,,,0.79855,0.59401,-0.09732,-0.00082,
7.46875,-3.13993,-66.52875,6.15023,0.10272,0.79775,0.38248,,,0.79822,0.59379,-0.10119,-0.00320,
7.47656,7.13917,-65.26362,6.99036,0.25817,0.79580,0.40960,,,0.79748,0.59411,-0.10503,-0.00541,
7.48438,11.53959,-63.29565,6.81533,0.32590,0.81427,0.44156,,,0.79655,0.59466,-0.10875,-0.00752,
7.49219,16.18065,-57.18089,4.32996,0.41264,0.86238,0.51274,,,0.79547,0.59547,-0.11204,-0.00948,
7.50000,16.66195,-50.92556,0.54939,0.44919,0.90125,0.57230,,,0.79440,0.59633,-0.11484,-0.01139,
7.50781,16.45568,-48.71160,-1.37590,0.44042,0.95131,0.59747,,,0.79335,0.59719,-0.11743,-0.01332,
7.51563,13.73980,-46.28678,-1.90097,0.40875,1.02517,0.61345,,,0.79241,0.59790,-0.11987,-0.01520,
7.52344,10.57700,-43.86196,1.70457,0.33224,1.05093,0.54566,,,0.79162,0.59841,-0.12232,-0.01680,
7.53125,11.12705,-44.63509,4.11993,0.30885,1.09126,0.55051,,,0.79080,0.59892,-0.12491,-0.01831,
7.53906,10.57700,-49.06302,10.63091,0.28253,1.22781,0.56358,,,0.78996,0.59933,-0.12800,-0.01965,
7.54688,5.42026,-52.22583,13.01126,0.32006,1.41490,0.57084,,,0.78929,0.59944,-0.13135,-0.02104,
7.55469,0.16039,-50.85528,10.77093,0.32980,1.47176,0.56116,,,0.78884,0.59927,-0.13453,-0.02253,
7.56250,-13.31589,-45.12708,2.61470,0.29715,1.42802,0.53114,,,0.78897,0.59846,-0.13704,-0.02436,
7.57031,-22.90742,-38.48519,-6.90673,0.27327,1.27009,0.48756,,,0.78953,0.59722,-0.13879,-0.02651,
7.57813,-25.52017,-35.25209,-11.45741,0.26450,1.20789,0.45705,,,0.79021,0.59589,-0.14017,-0.02881,
7.58594,-30.26437,-29.55904,-19.15856,0.21236,1.13597,0.42655,,,0.79112,0.59438,-0.14093,-0.03133,
7.59375,-31.77701,-26.29081,-24.19932,0.14804,1.00185,0.36796,,,0.79210,0.59284,-0.14130,-0.03400,
7.60156,-30.71129,-25.44739,-26.01959,0.12806,0.95082,0.35634,,,0.79303,0.59137,-0.14155,-0.03673,
7.60938,-27.78914,-25.48253,-28.75000,0.09346,0.85120,0.34084,,,0.79383,0.59008,-0.14169,-0.03958,
7.61719,-25.21077,-26.85308,-30.29023,0.07786,0.81135,0.32583,,,0.79450,0.58893,-0.14186,-0.04255,
7.62500,-24.62634,-27.87221,-30.46526,0.07933,0.78949,0.30114,,,0.79513,0.58781,-0.14207,-0.04555,
7.63281,-21.66981,-31.56215,-28.39995,0.05983,0.69618,0.26434,,,0.79560,0.58680,-0.14258,-0.04857,
7.64063,-17.85382,-33.63555,-27.10476,0.05058,0.65877,0.25513,,,0.79589,0.58599,-0.14326,-0.05156,
7.64844,-8.05602,-37.57149,-25.98459,0.06909,0.66508,0.25949,,,0.79575,0.58567,-0.14423,-0.05455,
7.65625,-0.63031,-41.26143,-24.65439,0.06276,0.67432,0.24642,,,0.79527,0.58572,-0.14548,-0.05754,
7.66406,2.60124,-43.51054,-24.12931,0.07884,0.67918,0.25417,,,0.79464,0.58592,-0.14688,-0.06056,
7.67188,7.34544,-45.05680,-24.75940,0.12465,0.71319,0.26579,,,0.79379,0.58638,-0.14837,-0.06363,
7.67969,9.58003,-46.25164,-26.78971,0.17143,0.78414,0.27838,,,0.79282,0.58696,-0.14984,-0.06683,
7.68750,8.54868,-45.30279,-27.87487,0.19287,0.80504,0.27644,,,0.79188,0.58750,-0.15121,-0.07006,
7.69531,5.52340,-42.06970,-29.24008,0.19969,0.81038,0.25756,,,0.79108,0.58790,-0.15234,-0.07326,
7.70313,3.22005,-39.89088,-29.73015,0.20603,0.79921,0.25320,,,0.79038,0.58817,-0.15331,-0.07643,
7.71094,1.29487,-37.36063,-29.41510,0.20505,0.77248,0.23722,,,0.78978,0.58835,-0.15415,-0.07950,
7.71875,-1.76480,-32.44071,-29.06505,0.21431,0.75984,0.23625,,,0.78935,0.58839,-0.15472,-0.08239,
7.72656,-6.47462,-27.52079,-28.46996,0.21139,0.72971,0.23141,,,0.78916,0.58818,-0.15502,-0.08509,
7.73438,-8.64045,-25.16625,-28.11991,0.20213,0.70639,0.22076,,,0.78907,0.58786,-0.15520,-0.08770,
7.74219,-10.56563,-21.93316,-27.69985,0.19384,0.68695,0.20720,,,0.78910,0.58746,-0.15521,-0.09018,
7.75000,-12.00952,-18.87578,-27.66484,0.18312,0.67480,0.18880,,,0.78921,0.58698,-0.15504,-0.09255,
7.75781,-12.18141,-17.75123,-27.59483,0.17825,0.68501,0.18008,,,0.78933,0.58651,-0.15481,-0.09488,
7.76563,-12.59395,-15.50212,-26.71970,0.18458,0.71805,0.17476,,,0.78949,0.58601,-0.15450,-0.09707,
7.77344,-12.86897,-13.56929,-24.09430,0.17728,0.74089,0.14619,,,0.78970,0.58548,-0.15418,-0.09904,
7.78125,-13.65967,-12.90159,-22.58908,0.18312,0.74478,0.12294,,,0.78996,0.58489,-0.15388,-0.10092,
7.78906,-14.75978,-11.39047,-18.70350,0.19336,0.72486,0.07791,,,0.79030,0.58422,-0.15365,-0.10253,
7.79688,-14.24410,-10.05506,-13.87277,0.23283,0.69230,0.05419,,,0.79066,0.58352,-0.15354,-0.10383,
7.80469,-13.96908,-9.63335,-11.49241,0.25719,0.66703,0.06532,,,0.79103,0.58282,-0.15350,-0.10498,
7.81250,-12.86897,-8.89536,-5.78656,0.26840,0.62038,0.06678,,,0.79141,0.58213,-0.15366,-0.10577,
7.82031,-10.22185,-7.80595,0.93445,0.25768,0.59656,0.10164,,,0.79174,0.58151,-0.15405,-0.10614,
7.82813,-8.05602,-7.38425,4.43498,0.24891,0.59268,0.11665,,,0.79201,0.58097,-0.15457,-0.10628,
7.83594,-3.72436,-6.99768,11.50604,0.21821,0.58782,0.17137,,,0.79217,0.58060,-0.15537,-0.10597,
7.84375,1.74179,-8.50880,18.19204,0.17143,0.59171,0.21301,,,0.79214,0.58044,-0.15657,-0.10531,
7.85156,5.55777,-10.01992,21.20249,0.15778,0.61017,0.24690,,,0.79197,0.58044,-0.15799,-0.10450,
7.85938,13.39602,-13.99100,24.73802,0.11831,0.67675,0.27935,,,0.79146,0.58079,-0.15981,-0.10357,
7.86719,19.96226,-18.91092,25.22809,0.10028,0.79435,0.29775,,,0.79064,0.58146,-0.16197,-0.10274,
7.87500,22.36874,-20.73832,24.42297,0.09151,0.86724,0.28564,,,0.78969,0.58225,-0.16422,-0.10200,
7.88281,26.18473,-22.49544,21.06247,0.09053,1.00330,0.29581,,,0.78854,0.58327,-0.16644,-0.10147,
7.89063,26.70040,-21.61688,15.88169,0.09395,1.15978,0.29532,,,0.78734,0.58437,-0.16842,-0.10117,
7.89844,25.56592,-21.61688,12.90625,0.11246,1.23510,0.27257,,,0.78616,0.58544,-0.17027,-0.10104,
7.90625,19.27470,-22.14401,5.73017,0.13780,1.38283,0.22366,,,0.78518,0.58626,-0.17182,-0.10140,
7.91406,8.41117,-23.76056,-1.76095,0.17922,1.48536,0.16217,,,0.78455,0.58656,-0.17308,-0.10234,
7.92188,0.91671,-24.46341,-5.26148,0.21285,1.49363,0.11762,,,0.78418,0.58650,-0.17418,-0.10359,
7.92969,-13.35027,-22.17916,-11.45741,0.24404,1.44600,0.04886,,,0.78437,0.58577,-0.17482,-0.10525,
7.93750,-21.05100,-17.99722,-16.56818,0.24111,1.34736,-0.00876,,,0.78487,0.58471,-0.17497,-0.10710,
7.94531,-22.49488,-15.39669,-18.80851,0.22990,1.29050,-0.02716,,,0.78544,0.58362,-0.17488,-0.10899,
7.95313,-22.15110,-9.87935,-22.30904,0.20115,1.21906,-0.04120,,,0.78604,0.58263,-0.17435,-0.11084,
7.96094,-21.77294,-5.62713,-22.76410,0.17240,1.18408,-0.00005,,,0.78666,0.58169,-0.17359,-0.11254,
7.96875,-21.84170,-4.95943,-22.48406,0.14609,1.18359,0.04838,,,0.78729,0.58075,-0.17279,-0.11421,
7.97656,-24.52320,-4.78372,-21.43391,0.12660,1.17339,0.17233,,,0.78804,0.57965,-0.17201,-0.11583,
7.98438,-24.21380,-5.02971,-19.47361,0.16802,1.16901,0.23625,,,0.78878,0.57853,-0.17132,-0.11736,
7.99219,-23.83564,-5.24056,-18.66849,0.20505,1.17241,0.31179,,,0.78951,0.57743,-0.17067,-0.11885,
8.00000,-20.70721,-5.69741,-19.61363,0.31421,1.15929,0.33116,,,0.79010,0.57649,-0.17004,-0.12037,
8.00781,-17.71631,-5.62713,-21.01384,0.36927,1.14763,0.33987,1020.932,27.6,0.79055,0.57573,-0.16937,-0.12193,
8.01563,-13.79718,-2.56975,-25.38950,0.41654,1.12090,0.39023,,,0.79085,0.57526,-0.16840,-0.12356,
8.02344,-11.73449,1.26076,-30.64029,0.43603,1.10730,0.44543,,,0.79107,0.57499,-0.16704,-0.12529,
8.03125,-13.04086,3.58015,-31.93548,0.43019,1.08737,0.48029,,,0.79135,0.57468,-0.16548,-0.12702,
8.03906,-14.65664,7.97294,-32.18052,0.40680,0.98775,0.52339,,,0.79173,0.57431,-0.16366,-0.12861,
8.04688,-8.84672,12.99829,-30.57028,0.43555,0.86870,0.56067,,,0.79195,0.57429,-0.16169,-0.12985,
8.05469,-3.93063,15.07169,-29.38010,0.47843,0.81087,0.56164,,,0.79201,0.57453,-0.15969,-0.13088,
8.06250,7.27669,19.21848,-28.71500,0.48184,0.74575,0.50160,,,0.79168,0.57540,-0.15759,-0.13160,
8.07031,18.79340,22.38129,-31.37540,0.38487,0.73117,0.49192,,,0.79090,0.57695,-0.15533,-0.13221,
8.07813,22.36874,24.06812,-33.12566,0.32395,0.72631,0.48707,,,0.78997,0.57872,-0.15293,-0.13281,
8.08594,26.87229,25.40353,-35.71605,0.23137,0.73263,0.49966,,,0.78885,0.58076,-0.15039,-0.13345,
8.09375,30.24136,23.68155,-35.68104,0.18312,0.77053,0.55486,,,0.78757,0.58297,-0.14798,-0.13412,
8.10156,30.92893,21.74873,-34.17582,0.16509,0.79775,0.58488,,,0.78624,0.58516,-0.14574,-0.13478,
8.10938,29.14126,19.35905,-28.99504,0.13829,0.83808,0.61636,,,0.78500,0.58719,-0.14381,-0.13527,
8.11719,24.98149,20.69446,-24.26933,0.14414,0.81962,0.56600,,,0.78398,0.58895,-0.14196,-0.13550,
8.12500,25.84094,20.34303,-22.83412,0.15535,0.83954,0.57859,,,0.78293,0.59073,-0.14019,-0.13565,
8.13281,29.62255,18.72649,-21.29388,0.22357,0.96540,0.56794,,,0.78172,0.59269,-0.13861,-0.13575,
8.14063,27.18170,18.51563,-20.41875,0.32054,1.08932,0.54615,,,0.78060,0.59450,-0.13705,-0.13583,
8.14844,24.74084,18.72649,-20.20872,0.35514,1.14471,0.54227,,,0.77959,0.59617,-0.13547,-0.13591,
8.15625,19.13718,21.25673,-20.34874,0.38194,1.25405,0.52097,,,0.77882,0.59757,-0.13369,-0.13595,
8.16406,12.43342,24.24383,-18.84352,0.38194,1.31334,0.49579,,,0.77835,0.59862,-0.13175,-0.13585,
8.17188,9.71754,26.03609,-16.67319,0.35660,1.32354,0.48707,,,0.77804,0.59953,-0.12978,-0.13558,
8.17969,2.87627,28.74204,-9.46211,0.30495,1.27981,0.47061,,,0.77809,0.60003,-0.12789,-0.13488,
8.18750,-1.86793,29.55032,-0.39575,0.27084,1.15638,0.41735,,,0.77841,0.60020,-0.12629,-0.13371,
8.19531,-1.97106,28.98804,4.04992,0.26402,1.09369,0.41589,,,0.77878,0.60032,-0.12490,-0.13233,
8.20313,-3.68998,28.49605,12.73122,0.26889,1.03052,0.41154,,,0.77929,0.60027,-0.12388,-0.13051,
8.21094,-6.64651,28.95290,21.44753,0.27669,0.96783,0.38781,,,0.77999,0.59999,-0.12316,-0.12824,
8.21875,-7.54034,29.55032,25.29811,0.28692,0.91826,0.36554,,,0.78077,0.59964,-0.12256,-0.12575,
8.22656,-6.99029,30.81544,31.24900,0.26840,0.84731,0.36069,,,0.78158,0.59926,-0.12214,-0.12289,
8.23438,-6.99029,33.48626,34.95955,0.25524,0.78511,0.34278,,,0.78243,0.59888,-0.12172,-0.11971,
8.24219,-6.23397,34.18910,36.21974,0.23721,0.71514,0.33551,,,0.78326,0.59852,-0.12133,-0.11643,
8.25000,-1.55853,35.62994,36.70982,0.22113,0.66217,0.30695,,,0.78391,0.59841,-0.12091,-0.11303,
8.25781,4.35453,36.71935,37.30491,0.21285,0.66800,0.31276,,,0.78432,0.59861,-0.12050,-0.10950,
8.26563,6.86415,36.82477,37.86499,0.20798,0.68549,0.30937,,,0.78462,0.59894,-0.12013,-0.10592,
8.27344,9.71754,36.82477,39.02016,0.21723,0.71854,0.31469,,,0.78480,0.59940,-0.11983,-0.10224,
8.28125,10.81765,37.35191,39.75527,0.18458,0.68598,0.30598,,,0.78493,0.59991,-0.11953,-0.09850,
8.28906,12.46780,37.84390,39.47523,0.16655,0.67772,0.28225,,,0.78499,0.60050,-0.11920,-0.09474,
8.29688,16.14628,37.52762,38.11003,0.16461,0.68695,0.26627,,,0.78488,0.60129,-0.11886,-0.09103,
8.30469,16.76509,38.01961,36.07972,0.15291,0.70882,0.26482,,,0.78472,0.60213,-0.11840,-0.08740,
8.31250,16.04314,38.26561,34.92455,0.15242,0.70104,0.26240,,,0.78457,0.60293,-0.11789,-0.08383,
8.32031,16.52444,38.72246,32.22915,0.12367,0.69521,0.23286,,,0.78438,0.60377,-0.11723,-0.08038,
8.32813,18.03708,38.61703,29.81378,0.11100,0.72291,0.22850,,,0.78411,0.60470,-0.11649,-0.07705,
8.33594,17.86519,37.84390,28.62360,0.10710,0.72777,0.21785,,,0.78382,0.60563,-0.11574,-0.07382,
8.34375,16.42130,36.96534,26.55829,0.11295,0.75984,0.19461,,,0.78356,0.60648,-0.11495,-0.07075,
8.35156,16.04314,36.85992,26.10323,0.12708,0.76713,0.18783,,,0.78331,0.60731,-0.11414,-0.06770,
8.35938,12.81159,36.68421,25.01806,0.14316,0.79337,0.16507,,,0.78317,0.60796,-0.11327,-0.06475,
8.36719,8.44555,37.35191,23.54784,0.12026,0.78608,0.10842,,,0.78321,0.60839,-0.11229,-0.06187,
8.37500,7.10480,37.52762,22.56770,0.11051,0.79046,0.08469,,,0.78330,0.60876,-0.11125,-0.05906,
8.38281,4.07951,37.77362,20.99246,0.08810,0.79289,0.05612,,,0.78349,0.60896,-0.11012,-0.05634,
8.39063,-0.83658,38.05476,20.25735,0.06958,0.77053,0.02562,,,0.78389,0.60891,-0.10893,-0.05368,
8.39844,-2.48674,37.73847,20.18734,0.06471,0.77151,0.01690,,,0.78434,0.60877,-0.10774,-0.05106,
8.40625,-5.85581,36.26250,19.31221,0.04960,0.75741,-0.01167,,,0.78491,0.60844,-0.10658,-0.04856,
8.41406,-9.67179,34.36481,17.42192,0.05594,0.71708,-0.03588,,,0.78562,0.60790,-0.10543,-0.04627,
8.42188,-11.01255,33.02941,16.09172,0.06958,0.70299,-0.03200,,,0.78636,0.60730,-0.10429,-0.04412,
8.42969,-12.18141,30.92087,13.01126,0.09346,0.67918,-0.00731,,,0.78712,0.60665,-0.10314,-0.04223,
8.43750,-8.46856,30.88573,9.26570,0.13780,0.66606,0.04450,,,0.78771,0.60622,-0.10184,-0.04051,
8.44531,-4.44630,32.15085,7.20039,0.18020,0.68161,0.08227,,,0.78813,0.60602,-0.10040,-0.03883,
8.45313,5.79842,37.31677,3.38482,0.26012,0.74235,0.14619,,,0.78816,0.60640,-0.09855,-0.03706,
8.46094,15.25244,44.45066,-0.43075,0.32639,0.82690,0.18783,,,0.78782,0.60733,-0.09618,-0.03515,
8.46875,17.65892,46.10234,-2.70610,0.33760,0.85266,0.24545,,,0.78738,0.60841,-0.09364,-0.03327,
8.47656,18.48400,47.08633,-7.46681,0.33126,0.87453,0.30985,,,0.78689,0.60955,-0.09084,-0.03159,
8.48438,19.89351,43.64238,-9.39210,0.28789,0.91778,0.31372,,,0.78631,0.61076,-0.08816,-0.03016,
8.49219,19.99664,40.19844,-8.37695,0.26158,0.96248,0.30307,,,0.78570,0.61197,-0.08569,-0.02881,
8.50000,19.75599,32.25628,-1.34089,0.21431,1.10681,0.28855,,,0.78506,0.61309,-0.08395,-0.02742,
8.50781,16.07752,25.01696,10.42087,0.19238,1.24288,0.23238,,,0.78455,0.61394,-0.08308,-0.02573,
8.51563,13.08661,22.55700,16.65181,0.17728,1.30411,0.20381,,,0.78415,0.61458,-0.08259,-0.02382,
8.52344,5.14523,19.56990,26.94335,0.14852,1.36825,0.10454,,,0.78409,0.61474,-0.08268,-0.02153,
8.53125,-1.28350,14.29856,33.73437,0.16704,1.42316,0.05322,,,0.78427,0.61450,-0.08333,-0.01913,
8.53906,-4.85884,12.43601,36.11473,0.21139,1.42656,0.04499,,,0.78459,0.61405,-0.08417,-0.01671,
8.54688,-11.59698,6.77810,37.47993,0.31859,1.36485,0.10987,,,0.78515,0.61322,-0.08537,-0.01449,
8.55469,-14.65664,1.68247,34.25945,0.36294,1.29536,0.19655,,,0.78580,0.61224,-0.08669,-0.01267,
8.56250,-14.82853,-0.74235,31.70407,0.36196,1.26329,0.23673,,,0.78644,0.61126,-0.08805,-0.01108,
8.57031,-14.65664,-5.66227,26.03322,0.31323,1.22441,0.30065,,,0.78704,0.61031,-0.08942,-0.01001,
8.57813,-13.86594,-9.66850,22.53269,0.27181,1.22101,0.33358,,,0.78757,0.60942,-0.09087,-0.00929,
8.58594,-13.38465,-8.96565,22.14763,0.25963,1.22392,0.32680,,,0.78808,0.60856,-0.09227,-0.00855,
8.59375,-12.14703,-4.64315,22.81273,0.19920,1.16707,0.30065,,,0.78857,0.60776,-0.09345,-0.00760,
8.60156,-7.05905,-3.37802,21.65756,0.12172,1.05190,0.37038,,,0.78885,0.60724,-0.09453,-0.00662,
8.60938,-3.99938,-5.73256,19.38222,0.10467,0.99893,0.42994,,,0.78899,0.60689,-0.09564,-0.00584,
8.61719,4.45767,-9.56307,16.37177,0.09736,1.01740,0.50208,,,0.78875,0.60702,-0.09683,-0.00533,
8.62500,6.79539,-10.01992,15.88169,0.02377,0.95374,0.50838,,,0.78841,0.60727,-0.09803,-0.00484,
8.63281,9.71754,-14.30728,16.02171,0.02962,0.93138,0.51564,,,0.78792,0.60768,-0.09946,-0.00451,
8.64063,17.86519,-20.38690,20.64241,0.07104,0.97366,0.51467,,,0.78704,0.60849,-0.10142,-0.00412,
8.64844,16.79946,-23.16314,27.92350,0.09102,0.96880,0.55341,,,0.78619,0.60919,-0.10382,-0.00347,
8.65625,16.00876,-24.39312,32.26415,0.08907,0.97852,0.54615,,,0.78536,0.60981,-0.10647,-0.00264,
8.66406,13.46477,-23.61999,40.07032,0.07640,0.95422,0.54227,,,0.78463,0.61023,-0.10940,-0.00138,
8.67188,11.50521,-22.91714,44.62100,0.07543,0.92604,0.57472,,,0.78399,0.61050,-0.11248,0.00014,
8.67969,10.92078,-22.21430,45.35611,0.07543,0.91146,0.60522,,,0.78336,0.61073,-0.11556,0.00172,
8.68750,10.61138,-20.98432,44.34096,0.09979,0.84683,0.57084,,,0.78274,0.61095,-0.11852,0.00330,
8.69531,15.25244,-23.09286,42.27565,0.13488,0.76130,0.53017,,,0.78191,0.61142,-0.12151,0.00472,
8.70313,21.16550,-26.11509,41.89059,0.14316,0.73312,0.54615,,,0.78079,0.61220,-0.12464,0.00604,
8.71094,33.61043,-33.84640,41.40052,0.22357,1.10973,0.58876,,,0.77908,0.61364,-0.12815,0.00711,
8.71875,32.26968,-37.50120,36.28975,0.38536,1.49071,0.65171,,,0.77738,0.61505,-0.13165,0.00775,
8.72656,13.25850,-31.94872,15.39162,0.44140,1.75895,0.63137,,,0.77653,0.61563,-0.13398,0.00735,
8.73438,-5.75267,-22.84686,1.38952,0.37658,1.64864,0.62459,,,0.77656,0.61532,-0.13525,0.00641,
8.74219,-14.27848,-17.57551,-4.28133,0.33955,1.54854,0.60280,,,0.77700,0.61461,-0.13600,0.00531,
8.75000,-27.61724,-8.19252,-16.11311,0.25086,1.27398,0.51371,,,0.77809,0.61330,-0.13577,0.00386,
8.75781,-30.84880,-3.20231,-26.36965,0.21675,1.11604,0.48949,,,0.77935,0.61190,-0.13485,0.00204,
8.76563,-32.18955,-2.00747,-29.87017,0.19531,1.02712,0.45802,,,0.78068,0.61046,-0.13371,0.00008,
8.77344,-29.54243,-2.07776,-32.88062,0.14365,0.89105,0.40427,,,0.78189,0.60918,-0.13245,-0.00203,
8.78125,-27.10157,-3.65916,-32.35554,0.08030,0.80212,0.39943,,,0.78297,0.60803,-0.13130,-0.00415,
8.78906,-26.62027,-4.22144,-32.35554,0.06714,0.75644,0.35537,,,0.78403,0.60689,-0.13017,-0.00629,
8.79688,-21.32602,-7.38425,-30.67529,0.05740,0.70299,0.33116,,,0.78483,0.60602,-0.12929,-0.00843,
8.80469,-14.10659,-11.84732,-28.11991,0.05350,0.69278,0.34133,,,0.78529,0.60550,-0.12875,-0.01055,
8.81250,-13.65967,-13.28815,-26.40465,0.02377,0.62378,0.31711,,,0.78572,0.60499,-0.12836,-0.01263,
8.82031,-6.99029,-19.08663,-23.39420,0.04229,0.62086,0.29871,,,0.78582,0.60480,-0.12841,-0.01473,
8.82813,-1.59290,-24.67426,-20.45376,0.06178,0.59171,0.25998,,,0.78565,0.60487,-0.12889,-0.01686,
8.83594,3.04816,-28.04792,-19.26358,0.07250,0.60434,0.26724,,,0.78525,0.60516,-0.12960,-0.01902,
8.84375,8.61744,-31.59729,-18.87852,0.10077,0.63155,0.26337,,,0.78459,0.60575,-0.13052,-0.02126,
8.85156,11.23019,-33.98697,-20.94383,0.12123,0.67432,0.24593,,,0.78379,0.60648,-0.13149,-0.02368,
8.85938,11.78024,-34.61953,-22.20402,0.13390,0.68404,0.24303,,,0.78295,0.60725,-0.13244,-0.02620,
8.86719,11.74586,-34.37354,-25.59953,0.16168,0.75353,0.24255,,,0.78211,0.60805,-0.13324,-0.02888,
8.87500,8.23928,-31.94872,-29.34509,0.14804,0.71562,0.21688,,,0.78142,0.60869,-0.13374,-0.03169,
8.88281,8.37679,-31.17559,-30.85032,0.13634,0.71125,0.21446,,,0.78071,0.60934,-0.13414,-0.03455,
8.89063,7.86112,-29.59418,-32.81061,0.14219,0.73506,0.22027,,,0.78004,0.60999,-0.13437,-0.03746,
8.89844,5.79842,-27.20451,-32.56558,0.14073,0.73700,0.20139,,,0.77946,0.61052,-0.13447,-0.04027,
8.90625,4.49205,-26.29081,-32.28553,0.13829,0.73506,0.20042,,,0.77894,0.61098,-0.13454,-0.04304,
8.91406,1.15736,-24.35798,-31.86547,0.14414,0.75061,0.18396,,,0.77857,0.61126,-0.13451,-0.04573,
8.92188,-1.73042,-22.88200,-31.37540,0.14463,0.79094,0.17524,,,0.77833,0.61139,-0.13441,-0.04837,
8.92969,-3.68998,-22.49544,-31.20037,0.14901,0.83274,0.16798,,,0.77818,0.61140,-0.13429,-0.05099,
8.93750,-9.77493,-21.05460,-30.08020,0.16997,0.86821,0.14861,,,0.77828,0.61108,-0.13412,-0.05356,
8.94531,-14.31286,-18.59464,-27.20977,0.17143,0.86043,0.10551,,,0.77861,0.61050,-0.13392,-0.05590,
8.95313,-16.03177,-17.04838,-25.52952,0.16850,0.85509,0.09631,,,0.77902,0.60982,-0.13370,-0.05811,
8.96094,-19.95089,-13.95586,-21.95898,0.17484,0.80941,0.07549,,,0.77963,0.60890,-0.13345,-0.06004,
8.96875,-23.42310,-12.19874,-17.54832,0.21821,0.73166,0.07743,,,0.78042,0.60777,-0.13328,-0.06169,
8.97656,-25.27952,-12.58531,-14.99294,0.23575,0.69230,0.08518,,,0.78129,0.60650,-0.13322,-0.06324,
8.98438,-28.06416,-14.69385,-8.79701,0.22990,0.61746,0.12440,,,0.78227,0.60502,-0.13352,-0.06457,
8.99219,-27.72038,-16.76724,-1.51592,0.18800,0.52173,0.17282,,,0.78326,0.60348,-0.13423,-0.06560,
9.00000,-25.27952,-17.71608,2.29966,0.16558,0.50715,0.18347,,,0.78414,0.60203,-0.13516,-0.06643,
9.00781,-17.33815,-22.03859,9.75577,0.10418,0.53193,0.23528,1020.849,27.6,0.78469,0.60091,-0.13666,-0.06698,
9.01563,-8.81234,-28.29392,16.86184,0.02377,0.59705,0.25610,,,0.78487,0.60015,-0.13882,-0.06731,
9.02344,-3.96500,-31.70272,20.08232,-0.00644,0.63544,0.24787,,,0.78482,0.59960,-0.14132,-0.06757,
9.03125,6.27972,-39.18803,25.71817,-0.01716,0.75110,0.22027,,,0.78430,0.59951,-0.14449,-0.06774,
9.03906,14.90866,-44.91623,28.79863,0.03644,0.86627,0.19412,,,0.78337,0.59981,-0.14814,-0.06789,
9.04688,19.68724,-46.63820,28.72862,0.08566,0.94353,0.19219,,,0.78223,0.60035,-0.15189,-0.06806,
9.05469,26.66602,-43.96739,25.61315,0.21236,1.08446,0.18347,,,0.78079,0.60130,-0.15541,-0.06822,
9.06250,29.00374,-40.03145,22.77773,0.29082,1.16221,0.19606,,,0.77928,0.60241,-0.15861,-0.06834,
9.07031,27.62861,-30.54302,15.04157,0.38779,1.32209,0.19316,,,0.77788,0.60357,-0.16098,-0.06850,
9.07813,18.86216,-22.53058,4.64501,0.44042,1.44114,0.15297,,,0.77687,0.60442,-0.16245,-0.06897,
9.08594,13.01786,-18.03236,-0.81581,0.43457,1.45864,0.10745,,,0.77613,0.60503,-0.16344,-0.06961,
9.09375,0.91671,-13.18273,-10.30224,0.36245,1.41296,-0.01021,,,0.77590,0.60513,-0.16372,-0.07069,
9.10156,-7.71223,-12.58531,-16.46316,0.23624,1.32306,-0.09979,,,0.77599,0.60485,-0.16367,-0.07216,
9.10938,-9.05299,-12.16360,-18.63349,0.17630,1.29099,-0.12255,,,0.77613,0.60452,-0.16350,-0.07375,
9.11719,-9.12174,-9.66850,-23.18417,0.10710,1.27446,-0.03297,,,0.77628,0.60425,-0.16301,-0.07548,
9.12500,-12.93773,-3.65916,-27.27978,0.09297,1.24288,0.12585,,,0.77663,0.60385,-0.16201,-0.07722,
9.13281,-13.69405,-1.12892,-29.20507,0.08371,1.23462,0.17427,,,0.77703,0.60344,-0.16079,-0.07896,
9.14063,-12.28454,-0.88292,-32.35554,0.16119,1.22927,0.24497,,,0.77735,0.60314,-0.15944,-0.08085,
9.14844,-15.92864,-3.72945,-34.10581,0.23185,1.18942,0.32631,,,0.77777,0.60264,-0.15815,-0.08298,
9.15625,-17.61317,-3.83487,-34.77091,0.29228,1.15298,0.33551,,,0.77825,0.60206,-0.15683,-0.08517,
9.16406,-15.24107,-3.83487,-35.61103,0.39169,1.08932,0.36311,,,0.77863,0.60160,-0.15548,-0.08738,
9.17188,-13.93470,-5.45142,-36.48616,0.45650,1.01594,0.38539,,,0.77892,0.60122,-0.15419,-0.08968,
9.17969,-13.52216,-6.15426,-36.76621,0.44919,0.96394,0.40911,,,0.77919,0.60084,-0.15293,-0.09203,
9.18750,-10.35936,-4.46743,-36.45116,0.37999,0.83274,0.48126,,,0.77933,0.60064,-0.15161,-0.09425,
9.19531,0.88233,0.87420,-36.55617,0.38974,0.76373,0.52097,,,0.77907,0.60106,-0.15007,-0.09615,
9.20313,7.17355,4.00186,-36.62618,0.43360,0.74624,0.51613,,,0.77858,0.60184,-0.14841,-0.09786,
9.21094,19.58410,11.66288,-37.53632,0.48038,0.75401,0.51467,,,0.77764,0.60333,-0.14638,-0.09917,
9.21875,29.82882,18.58592,-40.33674,0.46527,0.82836,0.50741,,,0.77633,0.60544,-0.14394,-0.10024,
9.22656,31.99465,21.29188,-42.05200,0.44042,0.87647,0.50886,,,0.77492,0.60768,-0.14130,-0.10127,
9.23438,31.96027,24.70068,-44.46736,0.37463,0.95811,0.56019,,,0.77353,0.60996,-0.13837,-0.10229,
9.24219,27.73175,25.61438,-43.87227,0.29033,1.01254,0.59844,,,0.77230,0.61201,-0.13539,-0.10327,
9.25000,24.84398,26.56322,-42.43706,0.25914,1.02274,0.59408,,,0.77121,0.61388,-0.13240,-0.10417,
9.25781,20.44356,26.03609,-36.73120,0.18507,1.03003,0.56794,,,0.77033,0.61547,-0.12963,-0.10482,
9.26563,20.03102,24.70068,-30.46526,0.16850,1.12673,0.58973,,,0.76949,0.61696,-0.12720,-0.10521,
9.27344,17.96832,24.63039,-27.31479,0.15827,1.16269,0.58682,,,0.76875,0.61831,-0.12489,-0.10545,
9.28125,14.63363,22.41643,-21.57393,0.22016,1.25503,0.58295,,,0.76817,0.61942,-0.12291,-0.10551,
9.28906,8.37679,20.83503,-16.39315,0.26743,1.31140,0.55293,,,0.76787,0.62014,-0.12119,-0.10542,
9.29688,5.21399,20.55389,-14.18782,0.28302,1.32889,0.53356,,,0.76772,0.62068,-0.11955,-0.10525,
9.30469,-1.79917,20.87017,-9.53212,0.31908,1.33715,0.50402,,,0.76790,0.62081,-0.11804,-0.10488,
9.31250,-7.36845,21.74873,-4.17632,0.32688,1.32257,0.48175,,,0.76835,0.62061,-0.11668,-0.10423,
9.32031,-9.87806,22.10015,-1.23588,0.31859,1.28418,0.46432,,,0.76894,0.62025,-0.11540,-0.10344,
9.32813,-12.90335,21.95958,5.24010,0.30592,1.21032,0.42752,,,0.76970,0.61969,-0.11438,-0.10233,
9.33594,-12.93773,21.67844,13.18629,0.30885,1.15541,0.39071,,,0.77050,0.61905,-0.11371,-0.10083,
9.34375,-12.93773,21.60816,17.35191,0.29813,1.10001,0.39265,,,0.77134,0.61839,-0.11322,-0.09910,
9.35156,-13.24713,21.88929,23.89790,0.28643,1.01642,0.33261,,,0.77222,0.61765,-0.11299,-0.09702,
9.35938,-13.21275,21.81901,28.09853,0.26889,0.89105,0.31760,,,0.77313,0.61688,-0.11294,-0.09472,
9.36719,-13.10962,22.02986,29.39372,0.25427,0.84294,0.29290,,,0.77404,0.61610,-0.11293,-0.09235,
9.37500,-9.25925,21.46759,30.61890,0.22747,0.76276,0.25320,,,0.77479,0.61551,-0.11302,-0.08990,
9.38281,-5.20262,20.87017,30.40887,0.21139,0.72340,0.24981,,,0.77535,0.61512,-0.11317,-0.08746,
9.39063,-3.44933,21.32702,30.54889,0.21382,0.70299,0.23964,,,0.77584,0.61483,-0.11330,-0.08497,
9.39844,2.18870,21.85415,31.59905,0.20359,0.67772,0.22560,,,0.77610,0.61483,-0.11348,-0.08237,
9.40625,6.34847,21.99472,31.84409,0.19238,0.67820,0.23577,,,0.77618,0.61504,-0.11369,-0.07971,
9.41406,7.58609,22.97871,31.31901,0.19531,0.67383,0.21059,,,0.77621,0.61532,-0.11383,-0.07703,
9.42188,10.16446,23.64641,30.19884,0.16997,0.68015,0.21446,,,0.77612,0.61574,-0.11390,-0.07436,
9.42969,11.29894,23.96269,29.84879,0.17143,0.69716,0.21495,,,0.77598,0.61623,-0.11394,-0.07168,
9.43750,11.50521,24.52497,29.49874,0.14316,0.70299,0.20526,,,0.77583,0.61672,-0.11394,-0.06900,
9.44531,10.54262,23.29499,30.19884,0.14219,0.69181,0.19316,,,0.77571,0.61715,-0.11403,-0.06634,
9.45313,9.33938,22.48671,30.44388,0.13829,0.67772,0.19461,,,0.77562,0.61751,-0.11416,-0.06371,
9.46094,8.17052,20.55389,30.26885,0.14950,0.64613,0.18153,,,0.77557,0.61779,-0.11438,-0.06118,
9.46875,7.72360,18.97248,28.83364,0.16022,0.61940,0.15732,,,0.77551,0.61805,-0.11463,-0.05880,
9.47656,7.62047,18.93734,27.39842,0.16412,0.60969,0.14861,,,0.77544,0.61832,-0.11481,-0.05649,
9.48438,6.79539,19.88618,23.75787,0.14268,0.61503,0.12391,,,0.77540,0.61856,-0.11479,-0.05434,
9.49219,7.00166,21.18645,21.13248,0.12416,0.63398,0.10697,,,0.77535,0.61885,-0.11459,-0.05228,
9.50000,6.62350,22.06501,20.01231,0.12318,0.64224,0.09438,,,0.77531,0.61912,-0.11429,-0.05024,
9.50781,5.07648,23.96269,17.98201,0.13049,0.64176,0.06823,,,0.77534,0.61933,-0.11380,-0.04824,
9.51563,3.73573,24.87639,15.25160,0.14121,0.65779,0.04789,,,0.77543,0.61949,-0.11314,-0.04635,
9.52344,1.63865,25.71981,13.78138,0.14804,0.64905,0.02852,,,0.77560,0.61955,-0.11237,-0.04452,
9.53125,-2.79614,26.80922,10.77093,0.12952,0.66022,0.00528,,,0.77595,0.61940,-0.11140,-0.04284,
9.53906,-7.84975,27.54721,8.67061,0.10369,0.66508,0.00576,,,0.77651,0.61900,-0.11028,-0.04128,
9.54688,-10.80628,28.46091,7.48043,0.09395,0.65002,0.01303,,,0.77720,0.61845,-0.10906,-0.03976,
9.55469,-15.03480,31.48314,4.46998,0.10856,0.62183,0.05322,,,0.77808,0.61770,-0.10754,-0.03831,
9.56250,-15.17232,33.90796,-0.22072,0.12075,0.61260,0.09195,,,0.77896,0.61699,-0.10569,-0.03700,
9.57031,-12.49081,34.15396,-3.12616,0.12854,0.61940,0.10697,,,0.77973,0.61643,-0.10372,-0.03582,
9.57813,-0.93972,35.34880,-8.58698,0.22308,0.71368,0.15393,,,0.77999,0.61653,-0.10148,-0.03480,
9.58594,9.40814,40.65529,-14.11781,0.29618,0.84148,0.22850,,,0.77984,0.61722,-0.09874,-0.03377,
9.59375,11.71148,43.81809,-17.40830,0.31811,0.88813,0.27596,,,0.77960,0.61805,-0.09571,-0.03278,
9.60156,13.91169,47.33232,-23.95428,0.30836,0.94353,0.37425,,,0.77926,0.61905,-0.09222,-0.03196,
9.60938,16.14628,47.36747,-29.55512,0.26889,0.98338,0.41977,,,0.77881,0.62019,-0.08849,-0.03143,
9.61719,16.62757,45.68064,-31.13036,0.24014,1.00914,0.41638,,,0.77831,0.62135,-0.08478,-0.03105,
9.62500,17.07449,35.13794,-27.80486,0.16071,1.12722,0.39314,,,0.77773,0.62249,-0.08178,-0.03094,
9.63281,17.21200,22.76785,-12.99764,0.15681,1.30994,0.33745,,,0.77710,0.62352,-0.08006,-0.03056,
9.64063,13.91169,20.34303,-3.37120,0.16655,1.36728,0.29339,,,0.77661,0.62432,-0.07886,-0.02980,
9.64844,4.42329,21.46759,14.86654,0.18605,1.37651,0.16265,,,0.77656,0.62451,-0.07837,-0.02808,
9.65625,-3.13993,23.15442,28.86864,0.24599,1.30216,0.01642,,,0.77687,0.62424,-0.07837,-0.02558,
9.66406,-4.10252,24.06812,34.57450,0.29667,1.27835,-0.03927,,,0.77723,0.62388,-0.07856,-0.02274,
9.67188,-6.68089,25.61438,42.90575,0.40290,1.22149,-0.11141,,,0.77771,0.62333,-0.07902,-0.01941,
9.67969,-7.84975,24.45468,47.03637,0.46576,1.14957,0.05467,,,0.77823,0.62269,-0.07971,-0.01592,
9.68750,-7.64348,22.13529,46.61630,0.45212,1.12042,0.10890,,,0.77872,0.62206,-0.08051,-0.01255,
9.69531,-2.65863,14.08770,42.76573,0.41411,1.14131,0.30114,,,0.77895,0.62169,-0.08158,-0.00969,
9.70313,-0.69907,8.39465,37.44493,0.25768,1.20886,0.33261,,,0.77904,0.62145,-0.08272,-0.00735,
9.71094,-0.97410,4.84528,35.65966,0.18069,1.25357,0.31954,,,0.77913,0.62119,-0.08397,-0.00525,
9.71875,-0.63031,-0.81263,35.13458,0.08322,1.37991,0.31130,,,0.77916,0.62096,-0.08550,-0.00343,
9.72656,-7.47159,-0.53150,34.71452,-0.02642,1.35805,0.32631,,,0.77948,0.62035,-0.08700,-0.00165,
9.73438,-11.08130,-1.58577,31.84409,-0.10195,1.26086,0.32728,,,0.77994,0.61957,-0.08842,-0.00009,
9.74219,-13.21275,-7.31396,20.22234,-0.17602,1.09029,0.35440,,,0.78046,0.61875,-0.08966,0.00059,
9.75000,-11.15006,-17.11866,9.44073,-0.08636,1.04169,0.47013,,,0.78082,0.61810,-0.09097,0.00030,
9.75781,-11.76887,-21.40603,5.34511,-0.09562,1.00330,0.50402,,,0.78119,0.61743,-0.09233,-0.00039,
