Gait Up - Physilog data export
Created on: YYYY-MM-DD hh:mm:ss
Total data points: 20693

Time [128 hz],Gyro [128 hz],,,Accel [128 hz],,,Baro [1 hz],,Event [128 hz],Quaternion [128 hz],,,,
Time,Gyro X,Gyro Y,Gyro Z,Accel X,Accel Y,Accel Z,Pressure,Temperature,Quat W,Quat X,Quat Y,Quat Z,
[s],[deg/s],[deg/s],[deg/s],[g],[g],[g],[mBar],[degree C],[],[],[],[],
0.00781,0.16724,-0.39323,0.27336,-0.13501,0.50765,0.82878,1023.166,25.7,0.95966,0.27052,0.07660,0.00136,
0.01563,0.23600,-0.14443,0.16820,-0.13840,0.51741,0.83993,,,0.95966,0.27054,0.07659,0.00136,
0.02344,0.20162,-0.17997,0.09809,-0.14812,0.51057,0.83072,,,0.95965,0.27055,0.07657,0.00137,
0.03125,0.20162,0.03329,0.20325,-0.14715,0.51009,0.83363,,,0.95965,0.27057,0.07657,0.00138,
0.03906,0.33913,-0.00225,0.20325,-0.13938,0.50423,0.82781,,,0.95964,0.27059,0.07657,0.00139,
0.04688,0.30475,-0.17997,0.23830,-0.13938,0.51057,0.82878,,,0.95964,0.27061,0.07655,0.00140,
0.05469,0.20162,0.06883,0.23830,-0.14277,0.50911,0.84138,,,0.95963,0.27063,0.07655,0.00142,
0.06250,0.13286,0.28209,0.06303,-0.14326,0.51009,0.83799,,,0.95963,0.27064,0.07657,0.00143,
0.07031,0.16724,0.06883,0.02798,-0.14083,0.51301,0.84865,,,0.95963,0.27065,0.07657,0.00143,
0.07813,0.23600,0.24655,0.23830,-0.15054,0.51545,0.82878,,,0.95962,0.27066,0.07659,0.00145,
0.08594,0.06411,0.17546,0.02798,-0.14277,0.50716,0.83314,,,0.95962,0.27067,0.07660,0.00145,
0.09375,0.09848,0.03329,0.13314,-0.13743,0.51350,0.83605,,,0.95962,0.27068,0.07660,0.00146,
0.10156,0.06411,0.06883,0.02798,-0.14812,0.50716,0.83556,,,0.95962,0.27068,0.07660,0.00146,
0.10938,0.20162,0.03329,0.13314,-0.13840,0.51253,0.83217,,,0.95961,0.27069,0.07660,0.00147,
0.11719,0.20162,0.06883,0.20325,-0.13743,0.51301,0.83023,,,0.95961,0.27071,0.07660,0.00149,
0.12500,0.20162,0.24655,0.13314,-0.13840,0.50911,0.82830,,,0.95960,0.27072,0.07661,0.00150,
0.13281,0.23600,0.21101,0.09809,-0.14666,0.50033,0.82733,,,0.95960,0.27074,0.07663,0.00151,
0.14063,0.30475,0.06883,0.02798,-0.14375,0.51155,0.82733,,,0.95959,0.27076,0.07663,0.00151,
0.14844,0.30475,0.10438,0.09809,-0.14520,0.51643,0.83120,,,0.95959,0.27078,0.07664,0.00151,
0.15625,0.16724,0.10438,-0.04213,-0.14132,0.51155,0.82490,,,0.95958,0.27079,0.07664,0.00151,
0.16406,0.06411,0.10438,0.06303,-0.14229,0.51204,0.82927,,,0.95958,0.27079,0.07665,0.00152,
0.17188,0.27038,-0.17997,0.09809,-0.13549,0.51448,0.83556,,,0.95958,0.27081,0.07663,0.00152,
0.17969,0.20162,-0.00225,0.16820,-0.14715,0.51887,0.83556,,,0.95957,0.27083,0.07663,0.00153,
0.18750,0.13286,0.03329,-0.04213,-0.14860,0.50179,0.83750,,,0.95957,0.27083,0.07663,0.00153,
0.19531,0.20162,0.38872,0.02798,-0.15734,0.51497,0.83896,,,0.95956,0.27085,0.07666,0.00154,
0.20313,0.20162,-0.00225,0.02798,-0.13792,0.51594,0.82975,,,0.95956,0.27086,0.07666,0.00154,
0.21094,0.20162,-0.25106,0.16820,-0.14326,0.51789,0.83944,,,0.95956,0.27087,0.07664,0.00154,
0.21875,-0.00465,-0.07334,0.16820,-0.13889,0.50862,0.82975,,,0.95956,0.27088,0.07663,0.00155,
0.22656,0.09848,0.31764,0.02798,-0.14617,0.50423,0.83556,,,0.95955,0.27088,0.07665,0.00156,
0.23438,0.16724,-0.00225,0.23830,-0.13840,0.50813,0.83314,,,0.95955,0.27089,0.07665,0.00157,
0.24219,0.23600,-0.10889,0.23830,-0.14666,0.51301,0.83605,,,0.95955,0.27091,0.07664,0.00159,
0.25000,-0.00465,-0.07334,0.20325,-0.13112,0.50911,0.82587,,,0.95955,0.27091,0.07663,0.00160,
0.25781,0.20162,0.03329,0.20325,-0.14860,0.50618,0.83799,,,0.95954,0.27093,0.07663,0.00161,
0.26563,0.09848,-0.17997,0.30841,-0.14520,0.51009,0.83314,,,0.95954,0.27093,0.07661,0.00163,
0.27344,-0.00465,-0.03780,0.20325,-0.13598,0.51106,0.83120,,,0.95954,0.27093,0.07660,0.00164,
0.28125,0.06411,-0.03780,0.06303,-0.13938,0.50716,0.82151,,,0.95954,0.27094,0.07660,0.00164,
0.28906,0.16724,0.13992,0.06303,-0.14860,0.50911,0.83799,,,0.95954,0.27095,0.07661,0.00165,
0.29688,0.09848,0.17546,0.06303,-0.14617,0.51155,0.83556,,,0.95954,0.27096,0.07662,0.00165,
0.30469,0.06411,0.21101,-0.00707,-0.14472,0.50765,0.83750,,,0.95953,0.27096,0.07663,0.00166,
0.31250,0.13286,0.03329,0.09809,-0.14180,0.51253,0.83896,,,0.95953,0.27097,0.07663,0.00166,
0.32031,0.06411,0.21101,0.02798,-0.14132,0.50911,0.83217,,,0.95953,0.27097,0.07664,0.00167,
0.32813,0.16724,0.06883,0.13314,-0.13840,0.50765,0.83023,,,0.95953,0.27099,0.07665,0.00168,
0.33594,-0.00465,0.21101,0.20325,-0.14472,0.50960,0.83169,,,0.95952,0.27099,0.07666,0.00170,
0.34375,0.09848,0.06883,0.16820,-0.14520,0.51253,0.83605,,,0.95952,0.27099,0.07666,0.00171,
0.35156,0.27038,0.28209,0.06303,-0.14617,0.51643,0.83556,,,0.95952,0.27101,0.07667,0.00172,
0.35938,0.13286,0.06883,0.02798,-0.13938,0.50618,0.83411,,,0.95951,0.27102,0.07668,0.00172,
0.36719,0.06411,0.06883,0.20325,-0.13403,0.51155,0.82394,,,0.95951,0.27103,0.07668,0.00173,
0.37500,0.13286,-0.03780,0.13314,-0.13889,0.50716,0.83072,,,0.95951,0.27104,0.07667,0.00174,
0.38281,0.16724,0.13992,0.13314,-0.14229,0.50862,0.83217,,,0.95951,0.27105,0.07668,0.00175,
0.39063,0.09848,0.13992,0.13314,-0.14326,0.50716,0.83605,,,0.95950,0.27105,0.07669,0.00176,
0.39844,0.02973,-0.00225,0.13314,-0.13258,0.50618,0.83023,,,0.95950,0.27106,0.07669,0.00177,
0.40625,0.20162,-0.00225,0.16820,-0.13938,0.51399,0.83217,,,0.95950,0.27107,0.07668,0.00178,
0.41406,-0.00465,-0.00225,0.23830,-0.13598,0.51155,0.82684,,,0.95950,0.27107,0.07668,0.00179,
0.42188,0.16724,0.17546,0.13314,-0.15200,0.51057,0.82830,,,0.95949,0.27108,0.07669,0.00181,
0.42969,0.13286,-0.00225,0.06303,-0.14083,0.51789,0.83702,,,0.95949,0.27109,0.07669,0.00181,
0.43750,0.27038,0.13992,0.13314,-0.14375,0.51692,0.83217,,,0.95949,0.27111,0.07669,0.00182,
0.44531,0.20162,-0.03780,0.13314,-0.14472,0.51301,0.82830,,,0.95948,0.27113,0.07669,0.00183,
0.45313,0.16724,0.10438,0.13314,-0.14666,0.51301,0.83363,,,0.95948,0.27114,0.07669,0.00184,
0.46094,0.23600,-0.14443,0.20325,-0.14472,0.50716,0.83605,,,0.95948,0.27115,0.07668,0.00185,
0.46875,0.20162,-0.17997,0.27336,-0.13646,0.51497,0.83363,,,0.95947,0.27117,0.07666,0.00186,
0.47656,0.09848,0.13992,0.23830,-0.14083,0.51204,0.82781,,,0.95947,0.27118,0.07667,0.00188,
0.48438,0.16724,-0.00225,0.27336,-0.13743,0.50667,0.82636,,,0.95947,0.27119,0.07666,0.00189,
0.49219,0.16724,-0.03780,0.20325,-0.14666,0.51106,0.83363,,,0.95946,0.27120,0.07666,0.00191,
0.50000,0.02973,-0.00225,0.27336,-0.15394,0.51984,0.83314,,,0.95946,0.27120,0.07665,0.00192,
0.50781,-0.00465,-0.03780,0.02798,-0.14715,0.51057,0.83460,,,0.95946,0.27120,0.07665,0.00192,
0.51563,0.02973,0.10438,0.06303,-0.13938,0.50472,0.82975,,,0.95946,0.27121,0.07665,0.00193,
0.52344,0.30475,0.03329,0.20325,-0.14180,0.51399,0.83120,,,0.95946,0.27123,0.07665,0.00194,
0.53125,0.09848,0.03329,0.20325,-0.13695,0.51204,0.83120,,,0.95945,0.27123,0.07665,0.00196,
0.53906,0.16724,0.13992,0.13314,-0.14763,0.50960,0.83799,,,0.95945,0.27125,0.07666,0.00197,
0.54688,0.09848,0.28209,0.02798,-0.15152,0.51155,0.83750,,,0.95945,0.27125,0.07667,0.00197,
0.55469,0.02973,0.06883,0.13314,-0.13743,0.51448,0.83702,,,0.95945,0.27125,0.07668,0.00198,
0.56250,-0.00465,0.06883,0.16820,-0.14083,0.50765,0.82297,,,0.95945,0.27126,0.07668,0.00199,
0.57031,-0.03903,0.06883,0.20325,-0.14569,0.51301,0.83314,,,0.95945,0.27125,0.07668,0.00201,
0.57813,0.13286,0.06883,0.16820,-0.14132,0.50667,0.82781,,,0.95944,0.27126,0.07668,0.00202,
0.58594,0.09848,-0.03780,0.20325,-0.14666,0.50325,0.83702,,,0.95944,0.27127,0.07667,0.00203,
0.59375,0.16724,-0.00225,0.20325,-0.14035,0.50911,0.83363,,,0.95944,0.27128,0.07667,0.00205,
0.60156,0.16724,0.03329,0.13314,-0.13889,0.51497,0.83411,,,0.95944,0.27129,0.07667,0.00205,
0.60938,0.20162,0.10438,0.20325,-0.14812,0.51301,0.83460,,,0.95943,0.27131,0.07667,0.00207,
0.61719,0.13286,0.13992,0.13314,-0.15249,0.51253,0.83847,,,0.95943,0.27132,0.07668,0.00208,
0.62500,0.16724,-0.17997,0.13314,-0.13355,0.50765,0.83896,,,0.95943,0.27133,0.07667,0.00208,
0.63281,0.16724,0.10438,0.06303,-0.13646,0.51448,0.83363,,,0.95942,0.27134,0.07667,0.00209,
0.64063,0.13286,-0.14443,0.02798,-0.14229,0.50716,0.83363,,,0.95942,0.27135,0.07666,0.00209,
0.64844,0.13286,0.06883,0.06303,-0.14132,0.50716,0.83411,,,0.95942,0.27136,0.07666,0.00209,
0.65625,0.13286,0.03329,0.02798,-0.14617,0.50862,0.83508,,,0.95942,0.27137,0.07667,0.00209,
0.66406,0.23600,0.06883,0.16820,-0.15006,0.51741,0.83508,,,0.95941,0.27138,0.07667,0.00210,
0.67188,0.13286,0.03329,0.02798,-0.13258,0.50813,0.83169,,,0.95941,0.27139,0.07667,0.00211,
0.67969,0.06411,-0.10889,0.23830,-0.13161,0.50277,0.82345,,,0.95941,0.27140,0.07666,0.00212,
0.68750,0.06411,-0.32215,0.20325,-0.13063,0.50569,0.83023,,,0.95941,0.27140,0.07663,0.00213,
0.69531,0.20162,0.28209,0.13314,-0.14715,0.51057,0.82975,,,0.95940,0.27142,0.07665,0.00214,
0.70313,0.09848,0.06883,0.16820,-0.13986,0.50521,0.83217,,,0.95940,0.27142,0.07665,0.00215,
0.71094,0.13286,-0.10889,0.27336,-0.14229,0.51399,0.84380,,,0.95940,0.27144,0.07664,0.00217,
0.71875,0.16724,-0.00225,0.27336,-0.14617,0.51692,0.83363,,,0.95940,0.27145,0.07663,0.00218,
0.72656,0.13286,0.03329,0.16820,-0.14229,0.51155,0.83314,,,0.95939,0.27146,0.07663,0.00219,
0.73438,0.13286,-0.00225,0.27336,-0.14472,0.51399,0.83023,,,0.95939,0.27147,0.07663,0.00221,
0.74219,0.16724,-0.00225,0.13314,-0.14569,0.51106,0.83702,,,0.95939,0.27148,0.07662,0.00222,
0.75000,0.13286,0.10438,0.20325,-0.14132,0.51594,0.83944,,,0.95938,0.27149,0.07663,0.00223,
0.75781,0.06411,0.06883,0.16820,-0.14083,0.51350,0.82878,,,0.95938,0.27149,0.07663,0.00225,
0.76563,0.02973,-0.17997,0.20325,-0.14180,0.51057,0.83120,,,0.95938,0.27150,0.07661,0.00226,
0.77344,0.23600,0.03329,0.20325,-0.14423,0.51057,0.83169,,,0.95938,0.27151,0.07661,0.00227,
0.78125,0.27038,-0.10889,0.23830,-0.14423,0.51399,0.84283,,,0.95937,0.27153,0.07660,0.00228,
0.78906,0.16724,-0.03780,0.16820,-0.13889,0.50960,0.83460,,,0.95937,0.27154,0.07659,0.00229,
0.79688,0.06411,-0.10889,0.16820,-0.13646,0.51057,0.82539,,,0.95937,0.27155,0.07658,0.00230,
0.80469,0.27038,0.03329,0.27336,-0.15006,0.50960,0.82684,,,0.95936,0.27157,0.07658,0.00232,
0.81250,0.20162,-0.25106,0.20325,-0.14812,0.50911,0.83702,,,0.95936,0.27158,0.07656,0.00232,
0.82031,0.30475,0.03329,0.13314,-0.15103,0.51643,0.84138,,,0.95936,0.27160,0.07656,0.00233,
0.82813,0.20162,-0.07334,0.13314,-0.14423,0.51155,0.83266,,,0.95935,0.27162,0.07655,0.00234,
0.83594,0.16724,0.13992,0.09809,-0.14763,0.51057,0.83702,,,0.95935,0.27163,0.07656,0.00235,
0.84375,0.13286,-0.10889,0.13314,-0.13695,0.51009,0.82975,,,0.95935,0.27164,0.07655,0.00235,
0.85156,0.09848,0.21101,0.16820,-0.14957,0.50813,0.83266,,,0.95934,0.27165,0.07656,0.00237,
0.85938,0.16724,0.17546,0.02798,-0.14909,0.50813,0.83411,,,0.95934,0.27166,0.07657,0.00237,
0.86719,0.13286,-0.03780,0.06303,-0.13598,0.50765,0.82975,,,0.95934,0.27167,0.07657,0.00237,
0.87500,-0.00465,0.21101,-0.00707,-0.14326,0.50813,0.83605,,,0.95934,0.27166,0.07658,0.00238,
0.88281,0.06411,-0.00225,0.02798,-0.14132,0.50960,0.83266,,,0.95934,0.27167,0.07658,0.00238,
0.89063,0.27038,0.10438,0.16820,-0.14083,0.50960,0.83120,,,0.95933,0.27169,0.07659,0.00239,
0.89844,0.06411,0.13992,0.02798,-0.14472,0.50960,0.83314,,,0.95933,0.27169,0.07660,0.00239,
0.90625,0.20162,0.13992,0.09809,-0.14375,0.51301,0.83799,,,0.95932,0.27171,0.07660,0.00240,
0.91406,0.27038,0.06883,0.20325,-0.14860,0.51545,0.83605,,,0.95932,0.27172,0.07660,0.00241,
0.92188,0.16724,0.03329,0.16820,-0.14180,0.50960,0.84089,,,0.95932,0.27174,0.07660,0.00242,
0.92969,-0.00465,0.10438,0.09809,-0.14860,0.51204,0.82975,,,0.95931,0.27174,0.07661,0.00243,
0.93750,-0.00465,0.10438,0.06303,-0.14472,0.50667,0.83411,,,0.95931,0.27174,0.07661,0.00244,
0.94531,0.06411,-0.00225,0.06303,-0.13403,0.51448,0.83072,,,0.95931,0.27174,0.07661,0.00244,
0.95313,0.09848,0.13992,0.13314,-0.13889,0.51399,0.83653,,,0.95931,0.27175,0.07662,0.00245,
0.96094,-0.00465,0.13992,-0.00707,-0.14472,0.50325,0.82927,,,0.95931,0.27175,0.07663,0.00246,
0.96875,0.20162,0.10438,0.02798,-0.14569,0.50667,0.83460,,,0.95931,0.27176,0.07663,0.00246,
0.97656,0.13286,0.21101,0.09809,-0.14666,0.51301,0.82878,,,0.95930,0.27177,0.07665,0.00247,
0.98438,0.20162,0.13992,0.06303,-0.14423,0.50618,0.83605,,,0.95930,0.27178,0.07665,0.00247,
0.99219,0.02973,0.06883,0.13314,-0.13209,0.50569,0.83460,,,0.95930,0.27179,0.07666,0.00248,
1.00000,0.16724,0.21101,0.13314,-0.15006,0.51350,0.83750,,,0.95929,0.27180,0.07667,0.00250,
1.00781,0.27038,0.10438,0.09809,-0.15054,0.51204,0.83799,1023.171,25.7,0.95929,0.27182,0.07667,0.00250,
1.01563,0.06411,0.06883,0.23830,-0.14326,0.51350,0.83072,,,0.95929,0.27182,0.07667,0.00252,
1.02344,0.16724,-0.03780,0.09809,-0.14423,0.51399,0.83460,,,0.95928,0.27183,0.07667,0.00252,
1.03125,0.13286,-0.00225,0.13314,-0.14617,0.50667,0.84235,,,0.95928,0.27184,0.07667,0.00253,
1.03906,0.13286,-0.10889,0.23830,-0.14423,0.51009,0.83314,,,0.95928,0.27185,0.07665,0.00254,
1.04688,0.20162,-0.07334,0.16820,-0.14423,0.50618,0.83460,,,0.95927,0.27187,0.07665,0.00255,
1.05469,-0.00465,-0.00225,0.16820,-0.14180,0.50911,0.82830,,,0.95927,0.27187,0.07664,0.00256,
1.06250,0.09848,0.03329,0.27336,-0.14957,0.50228,0.84089,,,0.95927,0.27187,0.07664,0.00258,
1.07031,0.09848,-0.07334,0.27336,-0.14812,0.51448,0.83799,,,0.95927,0.27188,0.07663,0.00260,
1.07813,0.09848,-0.07334,0.27336,-0.14180,0.51106,0.82830,,,0.95927,0.27189,0.07662,0.00261,
1.08594,0.06411,-0.00225,0.23830,-0.14035,0.51155,0.82830,,,0.95927,0.27190,0.07662,0.00263,
1.09375,0.13286,-0.03780,0.16820,-0.14715,0.50911,0.83120,,,0.95927,0.27191,0.07661,0.00264,
1.10156,0.13286,0.06883,0.20325,-0.14326,0.51155,0.83702,,,0.95926,0.27192,0.07661,0.00265,
1.10938,0.13286,0.03329,0.13314,-0.13938,0.51350,0.83120,,,0.95926,0.27192,0.07661,0.00266,
1.11719,0.20162,-0.10889,0.20325,-0.14180,0.51594,0.83750,,,0.95926,0.27194,0.07660,0.00267,
1.12500,0.13286,0.03329,0.16820,-0.15492,0.51984,0.83411,,,0.95925,0.27195,0.07660,0.00268,
1.13281,0.20162,0.17546,0.09809,-0.15152,0.51106,0.83653,,,0.95925,0.27196,0.07661,0.00269,
1.14063,0.16724,-0.07334,0.13314,-0.13549,0.50911,0.82927,,,0.95925,0.27197,0.07660,0.00270,
1.14844,0.09848,0.06883,0.13314,-0.14472,0.51204,0.83653,,,0.95925,0.27198,0.07660,0.00271,
1.15625,0.06411,0.13992,0.13314,-0.14035,0.50667,0.82781,,,0.95924,0.27199,0.07661,0.00272,
1.16406,0.09848,0.24655,0.16820,-0.14423,0.50862,0.83120,,,0.95924,0.27199,0.07662,0.00273,
1.17188,0.02973,0.21101,0.09809,-0.14229,0.51253,0.84089,,,0.95924,0.27200,0.07664,0.00274,
1.17969,0.06411,0.03329,0.06303,-0.13889,0.51789,0.83411,,,0.95924,0.27200,0.07664,0.00275,
1.18750,0.02973,-0.00225,-0.00707,-0.13695,0.50911,0.83217,,,0.95924,0.27200,0.07664,0.00275,
1.19531,0.16724,-0.10889,0.09809,-0.13695,0.50960,0.82830,,,0.95923,0.27201,0.07663,0.00275,
1.20313,-0.10778,0.38872,0.06303,-0.14277,0.51399,0.82830,,,0.95923,0.27201,0.07665,0.00276,
1.21094,0.09848,0.10438,0.13314,-0.13938,0.51594,0.83702,,,0.95923,0.27201,0.07666,0.00277,
1.21875,0.23600,0.06883,0.09809,-0.14909,0.51545,0.83363,,,0.95923,0.27203,0.07666,0.00278,
1.22656,0.23600,0.10438,0.02798,-0.14520,0.51009,0.83605,,,0.95922,0.27205,0.07667,0.00278,
1.23438,0.23600,0.10438,0.06303,-0.14180,0.50765,0.83411,,,0.95922,0.27206,0.07667,0.00279,
1.24219,0.09848,-0.00225,0.09809,-0.13840,0.51301,0.83169,,,0.95921,0.27207,0.07667,0.00279,
1.25000,0.06411,0.13992,0.06303,-0.14180,0.50911,0.82587,,,0.95921,0.27207,0.07668,0.00280,
1.25781,0.27038,0.31764,-0.00707,-0.14666,0.51399,0.83363,,,0.95921,0.27209,0.07670,0.00280,
1.26563,0.20162,0.06883,0.06303,-0.14083,0.51204,0.83169,,,0.95920,0.27210,0.07670,0.00281,
1.27344,0.06411,0.13992,0.13314,-0.14229,0.50960,0.83556,,,0.95920,0.27211,0.07671,0.00282,
1.28125,-0.00465,0.17546,0.09809,-0.13646,0.50716,0.82684,,,0.95920,0.27211,0.07672,0.00283,
1.28906,0.09848,-0.00225,0.09809,-0.14715,0.50277,0.83508,,,0.95920,0.27212,0.07672,0.00283,
1.29688,0.16724,0.03329,0.02798,-0.14715,0.50813,0.83702,,,0.95919,0.27213,0.07672,0.00284,
1.30469,0.09848,0.13992,0.06303,-0.14180,0.51838,0.83072,,,0.95919,0.27213,0.07673,0.00284,
1.31250,0.23600,-0.00225,0.09809,-0.14569,0.51594,0.83750,,,0.95919,0.27215,0.07672,0.00285,
1.32031,0.16724,0.21101,-0.00707,-0.14812,0.50325,0.83217,,,0.95918,0.27216,0.07674,0.00285,
1.32813,0.37351,0.42427,0.02798,-0.14035,0.51106,0.83702,,,0.95917,0.27218,0.07676,0.00286,
1.33594,0.27038,0.45981,-0.25245,-0.12918,0.51301,0.82781,,,0.95917,0.27220,0.07680,0.00285,
1.34375,0.71729,0.70861,-0.56793,-0.13889,0.51643,0.84526,,,0.95915,0.27224,0.07686,0.00282,
1.35156,0.06411,0.92187,-0.00707,-0.17385,0.50521,0.83120,,,0.95914,0.27225,0.07692,0.00284,
1.35938,0.30475,-0.00225,0.09809,-0.15297,0.50618,0.82684,,,0.95914,0.27227,0.07691,0.00284,
1.36719,0.23600,-0.28660,0.27336,-0.13355,0.51253,0.83169,,,0.95914,0.27229,0.07689,0.00285,
1.37500,-0.00465,-0.00225,0.13314,-0.14569,0.51009,0.83072,,,0.95914,0.27229,0.07689,0.00286,
1.38281,0.06411,-0.07334,0.13314,-0.14277,0.50911,0.82975,,,0.95913,0.27229,0.07688,0.00287,
1.39063,0.16724,0.03329,0.06303,-0.14715,0.50521,0.83993,,,0.95913,0.27230,0.07688,0.00287,
1.39844,0.16724,-0.03780,0.09809,-0.13792,0.51106,0.83217,,,0.95913,0.27231,0.07688,0.00288,
1.40625,0.16724,0.03329,0.16820,-0.13792,0.51106,0.83314,,,0.95912,0.27233,0.07688,0.00289,
1.41406,0.23600,0.13992,-0.00707,-0.14812,0.50277,0.83023,,,0.95912,0.27234,0.07689,0.00289,
1.42188,0.02973,0.17546,-0.04213,-0.14472,0.51155,0.83217,,,0.95912,0.27234,0.07690,0.00289,
1.42969,0.13286,-0.00225,0.13314,-0.14375,0.51204,0.83750,,,0.95912,0.27235,0.07690,0.00290,
1.43750,0.06411,0.13992,0.09809,-0.14860,0.52033,0.84041,,,0.95911,0.27236,0.07690,0.00291,
1.44531,0.02973,0.13992,-0.00707,-0.14180,0.50862,0.82684,,,0.95911,0.27236,0.07691,0.00291,
1.45313,0.16724,0.24655,0.02798,-0.14277,0.50911,0.83460,,,0.95911,0.27237,0.07693,0.00291,
1.46094,0.30475,-0.07334,0.13314,-0.13986,0.51594,0.83605,,,0.95910,0.27239,0.07692,0.00292,
1.46875,0.23600,0.17546,0.16820,-0.15103,0.51789,0.83750,,,0.95910,0.27241,0.07693,0.00293,
1.47656,0.09848,0.17546,0.13314,-0.14617,0.50228,0.82684,,,0.95909,0.27241,0.07694,0.00294,
1.48438,0.23600,0.13992,0.23830,-0.14083,0.50813,0.83169,,,0.95909,0.27243,0.07694,0.00296,
1.49219,0.20162,-0.03780,0.23830,-0.14277,0.51399,0.83120,,,0.95909,0.27244,0.07694,0.00297,
1.50000,0.09848,-0.00225,0.23830,-0.13938,0.51253,0.83508,,,0.95908,0.27245,0.07693,0.00299,
1.50781,0.20162,-0.00225,0.16820,-0.14132,0.51497,0.82975,,,0.95908,0.27247,0.07693,0.00300,
1.51563,0.20162,0.17546,0.09809,-0.14569,0.51253,0.82830,,,0.95908,0.27248,0.07694,0.00301,
1.52344,0.06411,0.03329,0.20325,-0.13986,0.50911,0.83120,,,0.95907,0.27249,0.07694,0.00302,
1.53125,0.06411,0.06883,0.13314,-0.14229,0.51204,0.83556,,,0.95907,0.27249,0.07694,0.00303,
1.53906,-0.00465,0.06883,0.16820,-0.14326,0.51106,0.83411,,,0.95907,0.27249,0.07694,0.00304,
1.54688,0.09848,0.13992,0.02798,-0.14520,0.51204,0.83363,,,0.95907,0.27250,0.07695,0.00305,
1.55469,0.13286,-0.14443,0.20325,-0.13646,0.51253,0.83460,,,0.95907,0.27251,0.07694,0.00306,
1.56250,0.02973,0.31764,0.09809,-0.14520,0.51204,0.82975,,,0.95907,0.27251,0.07695,0.00307,
1.57031,0.13286,0.13992,0.23830,-0.14326,0.50423,0.83266,,,0.95906,0.27252,0.07696,0.00309,
1.57813,0.06411,0.03329,0.20325,-0.15297,0.51204,0.83799,,,0.95906,0.27252,0.07696,0.00310,
1.58594,0.16724,0.06883,0.09809,-0.15006,0.50667,0.83799,,,0.95906,0.27254,0.07696,0.00311,
1.59375,0.13286,-0.07334,0.06303,-0.14035,0.50569,0.83314,,,0.95906,0.27255,0.07695,0.00311,
1.60156,0.13286,-0.10889,0.20325,-0.13938,0.50960,0.83363,,,0.95905,0.27256,0.07694,0.00312,
1.60938,0.13286,0.13992,0.16820,-0.14909,0.50862,0.83072,,,0.95905,0.27256,0.07695,0.00313,
1.61719,0.20162,0.13992,0.09809,-0.14812,0.50521,0.83847,,,0.95905,0.27258,0.07696,0.00314,
1.62500,0.16724,-0.07334,0.13314,-0.14083,0.51497,0.83605,,,0.95904,0.27259,0.07695,0.00315,
1.63281,0.20162,-0.03780,0.13314,-0.14472,0.51692,0.83120,,,0.95904,0.27260,0.07695,0.00315,
1.64063,0.16724,0.13992,0.09809,-0.14326,0.51057,0.82830,,,0.95904,0.27262,0.07695,0.00316,
1.64844,0.06411,0.10438,0.06303,-0.13938,0.50765,0.82684,,,0.95903,0.27262,0.07696,0.00317,
1.65625,0.06411,0.06883,0.06303,-0.13938,0.50862,0.83023,,,0.95903,0.27262,0.07696,0.00317,
1.66406,0.06411,0.03329,0.09809,-0.14520,0.51057,0.83556,,,0.95903,0.27263,0.07696,0.00318,
1.67188,0.13286,0.21101,0.02798,-0.14472,0.51057,0.82975,,,0.95903,0.27264,0.07698,0.00318,
1.67969,0.20162,-0.03780,0.06303,-0.14666,0.50082,0.82733,,,0.95902,0.27265,0.07697,0.00319,
1.68750,0.09848,-0.10889,0.27336,-0.13501,0.50472,0.83120,,,0.95902,0.27266,0.07696,0.00320,
1.69531,0.16724,0.03329,0.16820,-0.14520,0.50472,0.83896,,,0.95902,0.27267,0.07696,0.00321,
1.70313,0.06411,0.03329,0.16820,-0.13889,0.51009,0.82636,,,0.95902,0.27268,0.07696,0.00322,
1.71094,0.16724,0.13992,0.09809,-0.15006,0.51350,0.83266,,,0.95901,0.27269,0.07696,0.00323,
1.71875,0.27038,-0.10889,0.16820,-0.14132,0.50862,0.83508,,,0.95901,0.27271,0.07695,0.00324,
1.72656,0.20162,-0.07334,0.20325,-0.14132,0.51204,0.84089,,,0.95901,0.27272,0.07695,0.00325,
1.73438,0.09848,-0.03780,0.13314,-0.14326,0.50618,0.83169,,,0.95900,0.27273,0.07694,0.00326,
1.74219,0.16724,0.03329,0.13314,-0.14909,0.51350,0.83508,,,0.95900,0.27274,0.07694,0.00327,
1.75000,0.20162,-0.07334,0.27336,-0.15249,0.50667,0.83944,,,0.95900,0.27275,0.07693,0.00328,
1.75781,0.13286,0.10438,0.13314,-0.14132,0.51009,0.83556,,,0.95899,0.27276,0.07694,0.00329,
1.76563,0.09848,0.03329,0.09809,-0.14375,0.51253,0.82878,,,0.95899,0.27277,0.07694,0.00330,
1.77344,0.13286,-0.03780,0.16820,-0.13549,0.50911,0.82733,,,0.95899,0.27278,0.07693,0.00331,
1.78125,0.20162,-0.00225,0.27336,-0.14957,0.50911,0.83605,,,0.95899,0.27279,0.07693,0.00332,
1.78906,0.16724,0.03329,0.16820,-0.14375,0.51106,0.83556,,,0.95898,0.27281,0.07692,0.00334,
1.79688,0.06411,0.17546,0.13314,-0.14326,0.50862,0.83169,,,0.95898,0.27281,0.07693,0.00335,
1.80469,0.09848,0.06883,0.09809,-0.14472,0.51057,0.83363,,,0.95898,0.27282,0.07694,0.00335,
1.81250,0.13286,-0.25106,0.20325,-0.13889,0.50569,0.82975,,,0.95898,0.27283,0.07692,0.00336,
1.82031,0.20162,-0.10889,0.30841,-0.13938,0.51497,0.83896,,,0.95897,0.27284,0.07690,0.00338,
1.82813,0.02973,0.10438,0.23830,-0.14569,0.51301,0.83847,,,0.95897,0.27285,0.07691,0.00340,
1.83594,0.27038,0.06883,0.20325,-0.14957,0.51497,0.83605,,,0.95897,0.27286,0.07691,0.00341,
1.84375,0.20162,-0.00225,0.16820,-0.15103,0.50813,0.83169,,,0.95896,0.27288,0.07690,0.00342,
1.85156,0.09848,-0.17997,0.20325,-0.13501,0.50716,0.82733,,,0.95896,0.27289,0.07689,0.00343,
1.85938,0.16724,-0.03780,0.09809,-0.14083,0.51838,0.83605,,,0.95896,0.27290,0.07688,0.00343,
1.86719,0.06411,0.28209,-0.00707,-0.14715,0.51106,0.83556,,,0.95896,0.27290,0.07690,0.00344,
1.87500,0.09848,0.17546,0.02798,-0.14763,0.51009,0.83363,,,0.95895,0.27291,0.07691,0.00344,
1.88281,0.06411,0.13992,0.13314,-0.14229,0.50765,0.82975,,,0.95895,0.27291,0.07692,0.00345,
1.89063,0.16724,-0.07334,0.20325,-0.14812,0.50521,0.83702,,,0.95895,0.27292,0.07691,0.00346,
1.89844,0.13286,-0.14443,0.27336,-0.13549,0.51545,0.83411,,,0.95895,0.27294,0.07690,0.00348,
1.90625,0.16724,0.03329,-0.00707,-0.14180,0.51057,0.83460,,,0.95894,0.27295,0.07690,0.00348,
1.91406,0.09848,-0.03780,0.13314,-0.14375,0.50716,0.83702,,,0.95894,0.27295,0.07689,0.00349,
1.92188,0.13286,0.28209,0.13314,-0.15006,0.51057,0.83072,,,0.95894,0.27296,0.07691,0.00350,
1.92969,0.16724,0.10438,0.16820,-0.14083,0.51009,0.83266,,,0.95894,0.27297,0.07691,0.00351,
1.93750,0.09848,0.06883,0.23830,-0.14520,0.50765,0.84138,,,0.95893,0.27298,0.07691,0.00353,
1.94531,-0.03903,-0.00225,0.09809,-0.14083,0.51155,0.83653,,,0.95893,0.27298,0.07691,0.00353,
1.95313,0.09848,-0.00225,0.13314,-0.14472,0.50862,0.83314,,,0.95893,0.27299,0.07691,0.00354,
1.96094,-0.03903,0.24655,0.06303,-0.13889,0.50716,0.82442,,,0.95893,0.27298,0.07692,0.00355,
1.96875,0.13286,0.06883,0.13314,-0.13889,0.50960,0.82975,,,0.95893,0.27299,0.07693,0.00356,
1.97656,0.06411,-0.03780,0.23830,-0.13792,0.51253,0.83120,,,0.95893,0.27300,0.07692,0.00358,
1.98438,0.06411,0.10438,0.20325,-0.14375,0.51399,0.83653,,,0.95893,0.27300,0.07692,0.00359,
1.99219,0.06411,0.03329,0.16820,-0.14375,0.51350,0.83702,,,0.95892,0.27301,0.07692,0.00360,
2.00000,0.20162,-0.00225,0.16820,-0.14860,0.50228,0.83993,,,0.95892,0.27302,0.07692,0.00361,
2.00781,-0.00465,-0.00225,0.20325,-0.14666,0.50716,0.83217,1023.179,25.7,0.95892,0.27302,0.07691,0.00362,
2.01563,0.06411,-0.10889,0.27336,-0.14132,0.51399,0.84235,,,0.95892,0.27303,0.07690,0.00364,
2.02344,0.09848,0.13992,0.20325,-0.15297,0.51643,0.83508,,,0.95892,0.27304,0.07691,0.00366,
2.03125,0.09848,0.10438,0.20325,-0.15540,0.50862,0.83556,,,0.95891,0.27305,0.07691,0.00367,
2.03906,0.16724,0.03329,0.30841,-0.14472,0.51301,0.83799,,,0.95891,0.27306,0.07691,0.00369,
2.04688,0.23600,-0.17997,0.30841,-0.13840,0.50813,0.83023,,,0.95891,0.27307,0.07689,0.00371,
2.05469,0.06411,-0.21552,0.23830,-0.14326,0.51301,0.83023,,,0.95891,0.27308,0.07687,0.00372,
2.06250,0.13286,-0.10889,0.27336,-0.14472,0.50521,0.83896,,,0.95891,0.27309,0.07686,0.00373,
2.07031,0.16724,-0.03780,0.23830,-0.14277,0.51643,0.83605,,,0.95890,0.27310,0.07685,0.00375,
2.07813,0.16724,0.17546,0.30841,-0.14763,0.50911,0.83702,,,0.95890,0.27312,0.07686,0.00377,
2.08594,0.06411,0.13992,0.13314,-0.13743,0.50569,0.83169,,,0.95890,0.27312,0.07686,0.00378,
2.09375,0.23600,-0.10889,0.30841,-0.14812,0.50667,0.83508,,,0.95889,0.27314,0.07685,0.00380,
2.10156,0.13286,-0.07334,0.13314,-0.13986,0.51448,0.83266,,,0.95889,0.27315,0.07684,0.00380,
2.10938,0.06411,-0.03780,0.06303,-0.14326,0.51301,0.83653,,,0.95889,0.27315,0.07684,0.00381,
2.11719,0.13286,-0.10889,0.23830,-0.14229,0.51253,0.83363,,,0.95889,0.27316,0.07683,0.00382,
2.12500,0.20162,-0.00225,0.13314,-0.15394,0.51204,0.84041,,,0.95888,0.27317,0.07683,0.00383,
2.13281,0.16724,0.03329,0.13314,-0.14763,0.51155,0.83169,,,0.95888,0.27319,0.07683,0.00384,
2.14063,0.30475,-0.10889,0.13314,-0.14666,0.51594,0.83411,,,0.95888,0.27321,0.07682,0.00384,
2.14844,0.27038,-0.07334,0.20325,-0.15103,0.51692,0.84429,,,0.95887,0.27323,0.07681,0.00385,
2.15625,0.13286,-0.17997,0.09809,-0.13695,0.51009,0.83169,,,0.95887,0.27324,0.07679,0.00385,
2.16406,0.20162,-0.14443,0.09809,-0.13598,0.50716,0.82684,,,0.95887,0.27325,0.07678,0.00386,
2.17188,0.13286,-0.21552,0.27336,-0.13792,0.50911,0.82733,,,0.95886,0.27326,0.07676,0.00387,
2.17969,0.13286,0.03329,0.27336,-0.13743,0.51106,0.83508,,,0.95886,0.27327,0.07676,0.00389,
2.18750,0.09848,-0.07334,0.09809,-0.13889,0.51497,0.83508,,,0.95886,0.27328,0.07675,0.00389,
2.19531,0.09848,0.10438,0.20325,-0.15103,0.50911,0.83702,,,0.95886,0.27328,0.07676,0.00391,
2.20313,0.09848,-0.00225,0.09809,-0.13646,0.50277,0.83023,,,0.95886,0.27329,0.07676,0.00391,
2.21094,0.23600,-0.14443,0.16820,-0.14520,0.51448,0.82975,,,0.95885,0.27331,0.07674,0.00392,
2.21875,0.27038,-0.14443,0.06303,-0.14132,0.51643,0.83314,,,0.95885,0.27332,0.07673,0.00392,
2.22656,0.30475,0.10438,0.02798,-0.14715,0.50472,0.83993,,,0.95884,0.27334,0.07674,0.00392,
2.23438,0.27038,0.13992,0.13314,-0.15249,0.50716,0.83023,,,0.95884,0.27336,0.07675,0.00393,
2.24219,0.20162,0.17546,0.20325,-0.14035,0.51057,0.83023,,,0.95883,0.27338,0.07675,0.00395,
2.25000,0.09848,-0.07334,0.20325,-0.14375,0.50521,0.83023,,,0.95883,0.27339,0.07675,0.00396,
2.25781,0.33913,-0.07334,0.16820,-0.14812,0.50423,0.83993,,,0.95882,0.27341,0.07674,0.00397,
2.26563,0.09848,-0.10889,0.09809,-0.14423,0.50911,0.83605,,,0.95882,0.27342,0.07673,0.00397,
2.27344,0.16724,-0.03780,0.20325,-0.14132,0.51155,0.83023,,,0.95882,0.27343,0.07672,0.00398,
2.28125,-0.00465,0.03329,0.16820,-0.13938,0.51301,0.82442,,,0.95882,0.27343,0.07672,0.00399,
2.28906,0.09848,0.21101,0.06303,-0.15346,0.51692,0.83508,,,0.95882,0.27343,0.07673,0.00400,
2.29688,0.09848,-0.21552,0.09809,-0.14277,0.51545,0.84235,,,0.95882,0.27344,0.07672,0.00400,
2.30469,0.09848,0.06883,0.13314,-0.15346,0.51350,0.84138,,,0.95881,0.27345,0.07672,0.00401,
2.31250,0.06411,-0.17997,0.13314,-0.13938,0.51204,0.83314,,,0.95881,0.27345,0.07671,0.00402,
2.32031,0.09848,0.03329,0.16820,-0.14326,0.50667,0.83072,,,0.95881,0.27346,0.07670,0.00403,
2.32813,0.16724,-0.03780,0.20325,-0.13452,0.51301,0.83508,,,0.95881,0.27347,0.07670,0.00404,
2.33594,0.13286,-0.14443,0.20325,-0.14472,0.51497,0.83023,,,0.95881,0.27348,0.07669,0.00405,
2.34375,0.13286,-0.07334,0.13314,-0.14957,0.51253,0.83556,,,0.95880,0.27349,0.07668,0.00406,
2.35156,0.23600,0.06883,0.16820,-0.15006,0.51301,0.83605,,,0.95880,0.27351,0.07668,0.00407,
2.35938,0.23600,-0.10889,0.09809,-0.14083,0.50618,0.83023,,,0.95880,0.27352,0.07667,0.00407,
2.36719,0.09848,-0.03780,0.27336,-0.14035,0.51057,0.82684,,,0.95879,0.27353,0.07666,0.00409,
2.37500,0.09848,-0.07334,0.37852,-0.14666,0.50618,0.83411,,,0.95879,0.27354,0.07665,0.00411,
2.38281,0.16724,-0.03780,0.20325,-0.14909,0.50374,0.83993,,,0.95879,0.27355,0.07665,0.00412,
2.39063,0.20162,-0.03780,0.23830,-0.14860,0.50667,0.83169,,,0.95879,0.27357,0.07664,0.00414,
2.39844,0.20162,-0.00225,0.34346,-0.14375,0.50813,0.82733,,,0.95878,0.27358,0.07663,0.00416,
2.40625,0.20162,-0.07334,0.34346,-0.14423,0.52180,0.82975,,,0.95878,0.27360,0.07662,0.00418,
2.41406,0.06411,-0.14443,0.23830,-0.14035,0.51204,0.83702,,,0.95878,0.27360,0.07661,0.00419,
2.42188,0.16724,0.06883,0.16820,-0.14860,0.51301,0.83556,,,0.95877,0.27361,0.07661,0.00420,
2.42969,0.20162,-0.07334,0.23830,-0.14277,0.50960,0.83605,,,0.95877,0.27363,0.07660,0.00421,
2.43750,0.09848,-0.00225,0.20325,-0.14763,0.51741,0.84089,,,0.95877,0.27364,0.07660,0.00423,
2.44531,-0.00465,-0.03780,0.16820,-0.14763,0.51057,0.83072,,,0.95877,0.27364,0.07659,0.00424,
2.45313,0.13286,0.06883,0.06303,-0.14423,0.51009,0.83605,,,0.95877,0.27365,0.07659,0.00424,
2.46094,0.13286,0.10438,0.16820,-0.15200,0.51838,0.83799,,,0.95876,0.27366,0.07660,0.00425,
2.46875,0.06411,-0.03780,0.16820,-0.14277,0.50521,0.83944,,,0.95876,0.27366,0.07659,0.00426,
2.47656,0.06411,0.10438,0.16820,-0.14472,0.51155,0.82830,,,0.95876,0.27367,0.07659,0.00428,
2.48438,0.13286,-0.03780,0.13314,-0.13646,0.50813,0.82394,,,0.95876,0.27367,0.07659,0.00428,
2.49219,0.13286,0.10438,0.16820,-0.14957,0.50716,0.83072,,,0.95876,0.27368,0.07659,0.00430,
2.50000,0.20162,-0.10889,0.27336,-0.13695,0.51009,0.83314,,,0.95875,0.27370,0.07658,0.00431,
2.50781,0.20162,0.03329,0.13314,-0.14569,0.51350,0.83847,,,0.95875,0.27371,0.07658,0.00432,
2.51563,0.20162,0.10438,0.16820,-0.14763,0.50862,0.83266,,,0.95874,0.27373,0.07658,0.00433,
2.52344,0.23600,0.10438,0.23830,-0.14909,0.51643,0.83460,,,0.95874,0.27374,0.07659,0.00435,
2.53125,0.06411,-0.00225,0.16820,-0.14375,0.50618,0.83896,,,0.95874,0.27375,0.07658,0.00436,
2.53906,0.13286,0.03329,0.20325,-0.14909,0.51545,0.83460,,,0.95873,0.27376,0.07658,0.00437,
2.54688,0.20162,0.17546,0.16820,-0.15831,0.51399,0.84041,,,0.95873,0.27377,0.07659,0.00438,
2.55469,0.27038,-0.00225,0.23830,-0.14666,0.51253,0.83460,,,0.95872,0.27379,0.07659,0.00440,
2.56250,0.02973,-0.21552,0.23830,-0.13549,0.50569,0.81861,,,0.95873,0.27379,0.07657,0.00441,
2.57031,0.13286,-0.32215,0.20325,-0.14083,0.50960,0.83460,,,0.95872,0.27380,0.07654,0.00442,
2.57813,0.13286,-0.00225,0.16820,-0.13646,0.50667,0.82200,,,0.95872,0.27381,0.07654,0.00443,
2.58594,0.13286,-0.03780,0.13314,-0.14423,0.50911,0.83508,,,0.95872,0.27382,0.07653,0.00443,
2.59375,0.16724,-0.14443,0.27336,-0.13695,0.50911,0.83072,,,0.95872,0.27384,0.07652,0.00445,
2.60156,0.13286,-0.00225,0.16820,-0.14569,0.51594,0.83314,,,0.95871,0.27385,0.07652,0.00446,
2.60938,0.23600,-0.21552,0.23830,-0.14860,0.50277,0.83896,,,0.95871,0.27386,0.07650,0.00447,
2.61719,0.23600,-0.03780,0.13314,-0.15492,0.51057,0.83508,,,0.95871,0.27388,0.07649,0.00448,
2.62500,0.23600,-0.25106,0.37852,-0.13549,0.51692,0.83605,,,0.95870,0.27390,0.07647,0.00449,
2.63281,0.27038,-0.17997,0.30841,-0.14617,0.51204,0.83847,,,0.95870,0.27391,0.07645,0.00451,
2.64063,0.23600,0.10438,0.23830,-0.14666,0.50472,0.82733,,,0.95869,0.27393,0.07646,0.00453,
2.64844,0.23600,-0.00225,0.13314,-0.14277,0.50960,0.83072,,,0.95869,0.27395,0.07645,0.00453,
2.65625,0.09848,-0.28660,0.16820,-0.14472,0.50472,0.83799,,,0.95869,0.27395,0.07643,0.00454,
2.66406,0.13286,-0.17997,0.37852,-0.14326,0.51301,0.83605,,,0.95869,0.27397,0.07641,0.00456,
2.67188,-0.00465,-0.14443,0.16820,-0.14277,0.51545,0.82684,,,0.95869,0.27397,0.07640,0.00457,
2.67969,0.27038,-0.21552,0.23830,-0.13501,0.50472,0.82781,,,0.95869,0.27399,0.07638,0.00458,
2.68750,0.20162,-0.21552,0.30841,-0.14666,0.50325,0.83993,,,0.95868,0.27400,0.07636,0.00459,
2.69531,0.27038,-0.21552,0.23830,-0.13792,0.51545,0.83605,,,0.95868,0.27402,0.07634,0.00460,
2.70313,0.09848,-0.00225,0.16820,-0.14715,0.50472,0.83799,,,0.95868,0.27403,0.07634,0.00461,
2.71094,0.27038,-0.21552,0.20325,-0.13792,0.50521,0.84089,,,0.95867,0.27405,0.07632,0.00462,
2.71875,0.33913,-0.07334,0.23830,-0.14812,0.51643,0.83411,,,0.95867,0.27407,0.07631,0.00463,
2.72656,0.33913,-0.32215,0.16820,-0.12966,0.51643,0.83653,,,0.95866,0.27409,0.07629,0.00464,
2.73438,0.16724,-0.00225,0.23830,-0.14715,0.51009,0.82830,,,0.95866,0.27410,0.07628,0.00465,
2.74219,0.27038,-0.07334,0.20325,-0.14617,0.51594,0.83556,,,0.95865,0.27412,0.07628,0.00466,
2.75000,0.20162,-0.21552,0.27336,-0.14035,0.51594,0.83702,,,0.95865,0.27414,0.07626,0.00467,
2.75781,0.16724,0.06883,0.34346,-0.14666,0.50960,0.82975,,,0.95865,0.27415,0.07625,0.00470,
2.76563,0.13286,-0.03780,0.16820,-0.14375,0.50130,0.83411,,,0.95865,0.27416,0.07625,0.00471,
2.77344,0.20162,-0.00225,0.16820,-0.14909,0.50618,0.83605,,,0.95864,0.27417,0.07625,0.00472,
2.78125,0.09848,0.06883,0.23830,-0.15540,0.51594,0.83750,,,0.95864,0.27418,0.07625,0.00473,
2.78906,0.16724,0.03329,0.37852,-0.14035,0.51741,0.83363,,,0.95864,0.27419,0.07624,0.00476,
2.79688,0.02973,-0.17997,0.37852,-0.14083,0.50569,0.83072,,,0.95864,0.27420,0.07622,0.00478,
2.80469,0.09848,-0.03780,0.37852,-0.14909,0.51057,0.83072,,,0.95863,0.27421,0.07621,0.00480,
2.81250,0.16724,-0.14443,0.30841,-0.14569,0.51399,0.84186,,,0.95863,0.27422,0.07620,0.00482,
2.82031,0.13286,-0.10889,0.30841,-0.14035,0.51301,0.83653,,,0.95863,0.27423,0.07618,0.00484,
2.82813,0.13286,-0.07334,0.23830,-0.14715,0.50813,0.83508,,,0.95863,0.27424,0.07618,0.00485,
2.83594,0.23600,-0.10889,0.20325,-0.14666,0.50765,0.83556,,,0.95862,0.27426,0.07616,0.00486,
2.84375,0.16724,-0.21552,0.27336,-0.13938,0.50862,0.83460,,,0.95862,0.27427,0.07615,0.00487,
2.85156,0.09848,-0.03780,0.34346,-0.14520,0.50862,0.83896,,,0.95862,0.27428,0.07614,0.00489,
2.85938,-0.00465,-0.07334,0.16820,-0.14375,0.51155,0.83460,,,0.95862,0.27428,0.07613,0.00490,
2.86719,0.09848,-0.32215,0.16820,-0.14180,0.51399,0.83460,,,0.95862,0.27428,0.07610,0.00491,
2.87500,0.06411,-0.25106,0.23830,-0.14035,0.51057,0.83266,,,0.95862,0.27429,0.07608,0.00492,
2.88281,0.06411,-0.25106,0.20325,-0.13501,0.50667,0.82830,,,0.95862,0.27430,0.07606,0.00493,
2.89063,0.09848,0.03329,0.23830,-0.13889,0.51155,0.82878,,,0.95862,0.27430,0.07606,0.00494,
2.89844,0.06411,-0.03780,0.02798,-0.14715,0.51106,0.83508,,,0.95862,0.27431,0.07606,0.00494,
2.90625,0.16724,-0.07334,0.34346,-0.14909,0.51155,0.83653,,,0.95861,0.27432,0.07605,0.00496,
2.91406,0.20162,-0.32215,0.37852,-0.14035,0.51741,0.83556,,,0.95861,0.27434,0.07602,0.00498,
2.92188,0.16724,-0.14443,0.23830,-0.14229,0.51204,0.83556,,,0.95861,0.27435,0.07601,0.00499,
2.92969,0.16724,-0.07334,0.30841,-0.15006,0.49838,0.82830,,,0.95861,0.27436,0.07599,0.00501,
2.93750,0.16724,-0.00225,0.27336,-0.14326,0.50667,0.82636,,,0.95860,0.27437,0.07599,0.00503,
2.94531,0.16724,-0.28660,0.34346,-0.13695,0.50813,0.82878,,,0.95860,0.27439,0.07596,0.00504,
2.95313,0.27038,-0.17997,0.16820,-0.14472,0.51155,0.83702,,,0.95860,0.27440,0.07595,0.00505,
2.96094,0.13286,-0.17997,0.13314,-0.13598,0.50813,0.82248,,,0.95860,0.27441,0.07594,0.00506,
2.96875,0.13286,-0.10889,0.23830,-0.13986,0.51204,0.83023,,,0.95859,0.27442,0.07592,0.00507,
2.97656,0.13286,-0.28660,0.34346,-0.14617,0.51057,0.83169,,,0.95859,0.27443,0.07590,0.00508,
2.98438,0.16724,-0.17997,0.23830,-0.14035,0.51057,0.83556,,,0.95859,0.27445,0.07588,0.00510,
2.99219,0.06411,-0.00225,0.16820,-0.14035,0.51155,0.82684,,,0.95859,0.27445,0.07588,0.00511,
3.00000,0.27038,0.03329,0.16820,-0.15540,0.51936,0.83750,,,0.95858,0.27447,0.07588,0.00512,
3.00781,0.23600,0.10438,0.27336,-0.15249,0.51643,0.83799,1023.139,25.7,0.95858,0.27449,0.07588,0.00514,
3.01563,0.13286,-0.07334,0.13314,-0.13889,0.51594,0.83944,,,0.95858,0.27450,0.07587,0.00514,
3.02344,0.09848,-0.14443,0.20325,-0.14715,0.51009,0.83508,,,0.95858,0.27450,0.07586,0.00515,
3.03125,0.16724,0.10438,0.13314,-0.14375,0.51497,0.83314,,,0.95857,0.27451,0.07586,0.00516,
3.03906,0.23600,-0.28660,0.27336,-0.13695,0.51057,0.82878,,,0.95857,0.27453,0.07584,0.00517,
3.04688,0.13286,0.10438,0.13314,-0.14229,0.50569,0.83314,,,0.95857,0.27454,0.07584,0.00518,
3.05469,0.16724,-0.17997,0.13314,-0.14569,0.50472,0.83314,,,0.95856,0.27455,0.07583,0.00519,
3.06250,0.20162,0.03329,0.16820,-0.14277,0.51253,0.83847,,,0.95856,0.27457,0.07583,0.00520,
3.07031,0.23600,-0.25106,0.30841,-0.14083,0.51545,0.83556,,,0.95856,0.27458,0.07581,0.00521,
3.07813,0.09848,-0.07334,0.13314,-0.14035,0.51253,0.83508,,,0.95855,0.27459,0.07580,0.00522,
3.08594,0.06411,-0.03780,0.20325,-0.13938,0.50813,0.83072,,,0.95855,0.27460,0.07579,0.00523,
3.09375,0.09848,0.06883,0.16820,-0.15103,0.51497,0.83750,,,0.95855,0.27460,0.07580,0.00524,
3.10156,0.16724,0.03329,0.16820,-0.14617,0.51253,0.83702,,,0.95855,0.27462,0.07579,0.00525,
3.10938,0.09848,0.03329,0.16820,-0.13840,0.50765,0.82927,,,0.95855,0.27462,0.07579,0.00527,
3.11719,0.20162,-0.10889,0.20325,-0.14472,0.51106,0.83653,,,0.95854,0.27464,0.07578,0.00528,
3.12500,0.09848,0.13992,0.16820,-0.16074,0.51497,0.84089,,,0.95854,0.27464,0.07579,0.00529,
3.13281,0.06411,0.10438,0.16820,-0.14909,0.51057,0.83993,,,0.95854,0.27465,0.07579,0.00530,
3.14063,0.02973,-0.14443,0.09809,-0.13501,0.50716,0.83120,,,0.95854,0.27465,0.07578,0.00530,
3.14844,0.06411,-0.10889,0.20325,-0.14375,0.51106,0.83556,,,0.95854,0.27466,0.07577,0.00532,
3.15625,0.02973,0.21101,0.16820,-0.14326,0.50813,0.82830,,,0.95854,0.27466,0.07578,0.00533,
3.16406,0.20162,0.21101,0.13314,-0.13986,0.50960,0.82927,,,0.95853,0.27467,0.07579,0.00534,
3.17188,0.09848,-0.00225,0.09809,-0.14860,0.50911,0.83750,,,0.95853,0.27468,0.07579,0.00535,
3.17969,0.09848,-0.00225,0.16820,-0.13986,0.50960,0.83653,,,0.95853,0.27469,0.07579,0.00536,
3.18750,0.09848,-0.00225,0.16820,-0.14035,0.51253,0.82733,,,0.95853,0.27469,0.07578,0.00537,
3.19531,0.16724,-0.07334,0.30841,-0.13695,0.50765,0.83169,,,0.95852,0.27471,0.07577,0.00539,
3.20313,0.23600,0.03329,0.23830,-0.13938,0.51155,0.83896,,,0.95852,0.27472,0.07577,0.00540,
3.21094,0.13286,0.06883,0.23830,-0.14035,0.51106,0.83508,,,0.95851,0.27473,0.07577,0.00542,
3.21875,0.02973,0.03329,-0.04213,-0.14569,0.51204,0.83169,,,0.95851,0.27474,0.07577,0.00542,
3.22656,0.16724,0.17546,0.02798,-0.14909,0.50082,0.83896,,,0.95851,0.27475,0.07579,0.00542,
3.23438,0.13286,-0.14443,0.16820,-0.14035,0.51057,0.83460,,,0.95851,0.27476,0.07577,0.00543,
3.24219,0.02973,0.17546,0.09809,-0.14569,0.51106,0.83363,,,0.95851,0.27476,0.07578,0.00544,
3.25000,-0.03903,0.21101,0.02798,-0.14569,0.50862,0.83072,,,0.95851,0.27476,0.07580,0.00544,
3.25781,0.09848,0.24655,0.02798,-0.14569,0.50911,0.83169,,,0.95850,0.27476,0.07581,0.00545,
3.26563,0.20162,-0.00225,0.06303,-0.14132,0.50813,0.83266,,,0.95850,0.27478,0.07581,0.00545,
3.27344,-0.00465,-0.03780,0.13314,-0.13938,0.50911,0.83266,,,0.95850,0.27478,0.07581,0.00546,
3.28125,0.23600,0.10438,0.16820,-0.15006,0.50765,0.83460,,,0.95849,0.27479,0.07581,0.00547,
3.28906,0.13286,0.03329,0.09809,-0.13403,0.50618,0.82878,,,0.95849,0.27480,0.07581,0.00548,
3.29688,0.16724,-0.14443,0.09809,-0.14180,0.50667,0.83508,,,0.95849,0.27481,0.07580,0.00548,
3.30469,0.06411,-0.07334,0.16820,-0.14472,0.51106,0.83944,,,0.95849,0.27482,0.07579,0.00549,
3.31250,0.09848,-0.03780,0.27336,-0.15492,0.52082,0.83508,,,0.95849,0.27483,0.07578,0.00551,
3.32031,0.06411,0.06883,0.23830,-0.15103,0.51399,0.84235,,,0.95849,0.27483,0.07578,0.00552,
3.32813,-0.00465,0.17546,0.20325,-0.14715,0.50862,0.84332,,,0.95848,0.27483,0.07579,0.00554,
3.33594,0.13286,-0.28660,0.20325,-0.13452,0.51448,0.83556,,,0.95848,0.27484,0.07577,0.00555,
3.34375,0.09848,-0.10889,0.27336,-0.14812,0.50911,0.83799,,,0.95848,0.27485,0.07576,0.00556,
3.35156,0.23600,-0.00225,0.13314,-0.15006,0.50911,0.83799,,,0.95848,0.27487,0.07575,0.00557,
3.35938,0.20162,-0.17997,0.23830,-0.14569,0.51204,0.83799,,,0.95847,0.27488,0.07574,0.00558,
3.36719,0.09848,-0.00225,0.27336,-0.14617,0.51057,0.82927,,,0.95847,0.27489,0.07573,0.00560,
3.37500,0.02973,-0.17997,0.20325,-0.14326,0.50813,0.83653,,,0.95847,0.27489,0.07572,0.00561,
3.38281,0.13286,0.03329,0.13314,-0.14035,0.50813,0.83217,,,0.95847,0.27490,0.07572,0.00562,
3.39063,0.09848,-0.17997,0.16820,-0.12966,0.50862,0.83314,,,0.95847,0.27491,0.07570,0.00562,
3.39844,0.06411,-0.14443,0.20325,-0.14666,0.50472,0.83460,,,0.95847,0.27491,0.07569,0.00563,
3.40625,0.20162,-0.07334,0.20325,-0.13792,0.51009,0.82878,,,0.95847,0.27493,0.07568,0.00565,
3.41406,0.20162,-0.03780,0.16820,-0.14617,0.50813,0.83217,,,0.95846,0.27494,0.07567,0.00565,
3.42188,0.23600,-0.14443,0.30841,-0.13403,0.51106,0.83847,,,0.95846,0.27496,0.07566,0.00567,
3.42969,0.16724,-0.10889,0.20325,-0.14277,0.51545,0.83993,,,0.95846,0.27497,0.07565,0.00568,
3.43750,0.13286,0.17546,0.06303,-0.15686,0.52082,0.83896,,,0.95845,0.27498,0.07566,0.00569,
3.44531,-0.10778,-0.00225,0.02798,-0.13161,0.50667,0.82345,,,0.95845,0.27497,0.07566,0.00569,
3.45313,0.13286,0.10438,0.13314,-0.13501,0.51497,0.83411,,,0.95845,0.27498,0.07566,0.00570,
3.46094,0.27038,-0.00225,0.09809,-0.13986,0.51399,0.84235,,,0.95845,0.27500,0.07566,0.00570,
3.46875,-0.00465,0.13992,0.20325,-0.14472,0.51009,0.83799,,,0.95845,0.27500,0.07567,0.00572,
3.47656,0.16724,0.21101,0.02798,-0.14326,0.51009,0.83217,,,0.95844,0.27501,0.07568,0.00573,
3.48438,0.09848,0.10438,0.13314,-0.15152,0.51253,0.83750,,,0.95844,0.27502,0.07568,0.00574,
3.49219,0.20162,-0.14443,0.23830,-0.13112,0.50813,0.83750,,,0.95844,0.27503,0.07567,0.00575,
3.50000,0.20162,-0.10889,0.06303,-0.13938,0.52033,0.83847,,,0.95843,0.27505,0.07566,0.00575,
3.50781,0.09848,0.13992,0.09809,-0.14035,0.50569,0.83169,,,0.95843,0.27505,0.07567,0.00576,
3.51563,0.16724,0.24655,0.06303,-0.14472,0.51253,0.83169,,,0.95843,0.27506,0.07568,0.00577,
3.52344,0.06411,-0.03780,0.16820,-0.14180,0.51399,0.83363,,,0.95842,0.27507,0.07568,0.00578,
3.53125,0.13286,-0.00225,0.16820,-0.14180,0.51497,0.83508,,,0.95842,0.27508,0.07567,0.00579,
3.53906,-0.07341,0.21101,0.06303,-0.14375,0.50374,0.83653,,,0.95842,0.27507,0.07569,0.00579,
3.54688,0.20162,0.10438,0.13314,-0.14763,0.51155,0.83217,,,0.95842,0.27509,0.07569,0.00580,
3.55469,0.13286,0.03329,0.09809,-0.15200,0.51350,0.83944,,,0.95841,0.27510,0.07569,0.00581,
3.56250,0.02973,-0.10889,0.02798,-0.14375,0.50813,0.83023,,,0.95841,0.27510,0.07568,0.00581,
3.57031,0.02973,0.10438,0.06303,-0.14229,0.51350,0.82587,,,0.95841,0.27510,0.07569,0.00582,
3.57813,0.20162,0.03329,-0.04213,-0.15297,0.50911,0.83847,,,0.95841,0.27511,0.07569,0.00581,
3.58594,0.13286,0.06883,-0.00707,-0.14715,0.50667,0.84186,,,0.95841,0.27512,0.07570,0.00581,
3.59375,-0.07341,-0.03780,0.09809,-0.14763,0.50472,0.83653,,,0.95841,0.27512,0.07569,0.00582,
3.60156,0.13286,-0.03780,0.13314,-0.13938,0.51204,0.83314,,,0.95841,0.27513,0.07569,0.00583,
3.60938,0.06411,-0.14443,0.13314,-0.14277,0.51155,0.83120,,,0.95841,0.27513,0.07568,0.00583,
3.61719,0.09848,-0.10889,0.16820,-0.14035,0.51155,0.83023,,,0.95840,0.27514,0.07567,0.00584,
3.62500,0.13286,0.24655,0.09809,-0.14812,0.50423,0.83896,,,0.95840,0.27515,0.07568,0.00585,
3.63281,0.20162,0.17546,0.09809,-0.14763,0.51155,0.83508,,,0.95840,0.27516,0.07569,0.00586,
3.64063,0.20162,0.13992,0.13314,-0.14472,0.51692,0.82636,,,0.95839,0.27518,0.07570,0.00587,
3.64844,0.27038,-0.03780,0.20325,-0.14035,0.51301,0.83023,,,0.95839,0.27520,0.07569,0.00588,
3.65625,0.20162,-0.35769,0.23830,-0.13986,0.50911,0.83508,,,0.95838,0.27521,0.07566,0.00589,
3.66406,0.16724,-0.03780,0.20325,-0.14375,0.51106,0.84429,,,0.95838,0.27522,0.07566,0.00590,
3.67188,0.23600,0.06883,0.16820,-0.14277,0.50765,0.83653,,,0.95838,0.27524,0.07566,0.00591,
3.67969,0.16724,-0.00225,0.13314,-0.13549,0.50374,0.83169,,,0.95837,0.27525,0.07566,0.00592,
3.68750,0.23600,-0.00225,0.13314,-0.14180,0.50862,0.83411,,,0.95837,0.27527,0.07565,0.00593,
3.69531,0.20162,-0.25106,0.20325,-0.13889,0.51057,0.84041,,,0.95837,0.27528,0.07563,0.00593,
3.70313,0.06411,0.06883,0.20325,-0.15297,0.51545,0.83993,,,0.95836,0.27529,0.07563,0.00595,
3.71094,0.13286,-0.17997,0.13314,-0.13792,0.50667,0.83217,,,0.95836,0.27529,0.07562,0.00595,
3.71875,0.16724,-0.21552,0.37852,-0.13695,0.51448,0.84041,,,0.95836,0.27531,0.07560,0.00597,
3.72656,0.27038,0.03329,0.20325,-0.15006,0.51643,0.83508,,,0.95836,0.27533,0.07560,0.00598,
3.73438,0.16724,-0.25106,0.23830,-0.14326,0.50716,0.83750,,,0.95835,0.27534,0.07558,0.00599,
3.74219,0.23600,-0.00225,0.27336,-0.14326,0.51497,0.83556,,,0.95835,0.27536,0.07557,0.00601,
3.75000,0.16724,-0.10889,0.16820,-0.14035,0.51204,0.83702,,,0.95835,0.27537,0.07556,0.00602,
3.75781,0.16724,-0.00225,0.16820,-0.14229,0.50862,0.82927,,,0.95834,0.27538,0.07556,0.00603,
3.76563,0.02973,0.21101,0.16820,-0.14277,0.51057,0.82830,,,0.95834,0.27538,0.07557,0.00604,
3.77344,0.20162,-0.10889,0.20325,-0.14423,0.50618,0.83411,,,0.95834,0.27540,0.07556,0.00605,
3.78125,0.20162,-0.14443,0.16820,-0.14472,0.50911,0.84041,,,0.95833,0.27541,0.07554,0.00606,
3.78906,0.09848,0.03329,0.16820,-0.13598,0.50765,0.82927,,,0.95833,0.27542,0.07554,0.00607,
3.79688,0.16724,-0.10889,0.13314,-0.14520,0.51204,0.83217,,,0.95833,0.27543,0.07553,0.00608,
3.80469,0.09848,-0.00225,0.09809,-0.14569,0.50960,0.83363,,,0.95833,0.27544,0.07553,0.00608,
3.81250,0.16724,0.03329,0.06303,-0.13792,0.50765,0.83702,,,0.95832,0.27545,0.07553,0.00609,
3.82031,0.06411,-0.07334,0.23830,-0.14277,0.51009,0.83799,,,0.95832,0.27545,0.07552,0.00610,
3.82813,0.06411,-0.10889,0.13314,-0.14326,0.51497,0.84283,,,0.95832,0.27546,0.07551,0.00611,
3.83594,0.13286,-0.00225,0.09809,-0.14957,0.50960,0.83314,,,0.95832,0.27547,0.07551,0.00611,
3.84375,0.20162,0.28209,0.09809,-0.16074,0.51594,0.84041,,,0.95832,0.27548,0.07553,0.00612,
3.85156,0.06411,-0.10889,-0.04213,-0.12918,0.51155,0.82733,,,0.95831,0.27548,0.07552,0.00612,
3.85938,0.02973,-0.10889,0.20325,-0.13840,0.51692,0.83411,,,0.95831,0.27549,0.07551,0.00613,
3.86719,0.09848,0.28209,0.16820,-0.14715,0.51301,0.83460,,,0.95831,0.27549,0.07553,0.00615,
3.87500,0.20162,0.24655,0.09809,-0.14812,0.50911,0.83363,,,0.95831,0.27551,0.07554,0.00616,
3.88281,0.13286,0.10438,0.02798,-0.14132,0.50521,0.82539,,,0.95830,0.27552,0.07555,0.00616,
3.89063,0.20162,-0.03780,0.20325,-0.15540,0.51984,0.83799,,,0.95830,0.27553,0.07554,0.00617,
3.89844,0.13286,-0.14443,0.13314,-0.14180,0.51155,0.83460,,,0.95830,0.27554,0.07553,0.00618,
3.90625,0.20162,-0.00225,0.16820,-0.14520,0.50960,0.83847,,,0.95829,0.27555,0.07553,0.00619,
3.91406,0.23600,-0.00225,0.27336,-0.14569,0.50813,0.83460,,,0.95829,0.27557,0.07552,0.00620,
3.92188,0.20162,-0.07334,0.09809,-0.14083,0.51350,0.83799,,,0.95829,0.27559,0.07552,0.00621,
3.92969,0.16724,-0.03780,0.13314,-0.13792,0.51009,0.83266,,,0.95828,0.27560,0.07551,0.00621,
3.93750,0.20162,0.03329,-0.07718,-0.14666,0.50911,0.82830,,,0.95828,0.27561,0.07551,0.00621,
3.94531,0.23600,-0.03780,0.06303,-0.14860,0.50179,0.83944,,,0.95827,0.27563,0.07551,0.00621,
3.95313,0.13286,0.03329,0.13314,-0.13889,0.51545,0.83847,,,0.95827,0.27563,0.07551,0.00622,
3.96094,0.06411,0.10438,0.09809,-0.14763,0.50813,0.83266,,,0.95827,0.27564,0.07552,0.00623,
3.96875,0.09848,0.03329,0.16820,-0.14229,0.50228,0.83023,,,0.95827,0.27565,0.07551,0.00624,
3.97656,0.13286,-0.10889,0.16820,-0.14666,0.50716,0.83023,,,0.95827,0.27566,0.07550,0.00625,
3.98438,0.13286,-0.07334,0.09809,-0.15006,0.51155,0.84186,,,0.95826,0.27567,0.07550,0.00625,
3.99219,0.06411,-0.00225,0.16820,-0.14326,0.50862,0.82927,,,0.95826,0.27567,0.07549,0.00626,
4.00000,0.13286,-0.07334,0.09809,-0.14035,0.50374,0.83314,,,0.95826,0.27568,0.07549,0.00627,
4.00781,0.16724,-0.00225,0.20325,-0.14666,0.51009,0.83363,1023.181,25.8,0.95826,0.27569,0.07548,0.00628,
4.01563,0.13286,-0.10889,0.23830,-0.14472,0.51057,0.83508,,,0.95826,0.27570,0.07547,0.00629,
4.02344,0.16724,-0.07334,0.30841,-0.14277,0.51106,0.83411,,,0.95825,0.27571,0.07546,0.00631,
4.03125,0.37351,0.13992,0.13314,-0.14909,0.51155,0.84138,,,0.95824,0.27574,0.07547,0.00632,
4.03906,0.09848,0.13992,0.30841,-0.14083,0.51009,0.83508,,,0.95824,0.27575,0.07547,0.00634,
4.04688,0.23600,-0.07334,0.13314,-0.13695,0.51106,0.83460,,,0.95824,0.27576,0.07546,0.00635,
4.05469,0.06411,0.24655,0.16820,-0.14569,0.51106,0.84041,,,0.95824,0.27577,0.07548,0.00636,
4.06250,0.13286,0.03329,0.09809,-0.15200,0.51448,0.83799,,,0.95823,0.27578,0.07548,0.00637,
4.07031,0.20162,-0.03780,0.09809,-0.15054,0.51009,0.83702,,,0.95823,0.27579,0.07547,0.00637,
4.07813,0.06411,-0.14443,0.23830,-0.13646,0.51204,0.83072,,,0.95823,0.27580,0.07546,0.00639,
4.08594,0.20162,0.13992,0.20325,-0.15103,0.50813,0.82830,,,0.95822,0.27581,0.07547,0.00640,
4.09375,0.23600,-0.07334,0.16820,-0.14083,0.51106,0.83363,,,0.95822,0.27583,0.07546,0.00641,
4.10156,0.27038,-0.03780,0.16820,-0.14715,0.50960,0.83605,,,0.95821,0.27585,0.07545,0.00642,
4.10938,0.16724,-0.17997,0.13314,-0.14666,0.50960,0.83799,,,0.95821,0.27586,0.07544,0.00642,
4.11719,0.23600,-0.21552,0.27336,-0.13695,0.51497,0.82830,,,0.95821,0.27587,0.07542,0.00644,
4.12500,0.13286,0.13992,0.20325,-0.14957,0.51057,0.83120,,,0.95821,0.27588,0.07542,0.00645,
4.13281,0.13286,-0.00225,0.09809,-0.14326,0.51009,0.83750,,,0.95820,0.27589,0.07542,0.00646,
4.14063,0.09848,-0.10889,0.23830,-0.13792,0.51594,0.83799,,,0.95820,0.27590,0.07541,0.00647,
4.14844,0.06411,-0.00225,0.13314,-0.13986,0.51545,0.83363,,,0.95820,0.27591,0.07541,0.00648,
4.15625,0.13286,0.10438,0.20325,-0.13695,0.50618,0.82927,,,0.95820,0.27591,0.07541,0.00649,
4.16406,0.16724,0.10438,0.06303,-0.14035,0.50423,0.82587,,,0.95819,0.27593,0.07542,0.00650,
4.17188,0.16724,-0.00225,0.23830,-0.14957,0.50716,0.83363,,,0.95819,0.27594,0.07541,0.00651,
4.17969,0.06411,0.03329,0.23830,-0.14569,0.51448,0.83653,,,0.95819,0.27594,0.07541,0.00653,
4.18750,0.09848,0.03329,0.20325,-0.13938,0.50667,0.83120,,,0.95819,0.27595,0.07541,0.00654,
4.19531,0.20162,-0.07334,0.09809,-0.14229,0.50569,0.83460,,,0.95818,0.27596,0.07540,0.00655,
4.20313,0.20162,-0.14443,0.16820,-0.13792,0.51253,0.83556,,,0.95818,0.27598,0.07539,0.00655,
4.21094,0.13286,-0.00225,0.23830,-0.14569,0.51399,0.83169,,,0.95818,0.27599,0.07538,0.00657,
4.21875,0.16724,-0.00225,0.13314,-0.13986,0.50911,0.83508,,,0.95817,0.27600,0.07538,0.00657,
4.22656,0.16724,0.13992,0.13314,-0.14326,0.51350,0.83460,,,0.95817,0.27601,0.07539,0.00659,
4.23438,0.13286,0.03329,0.27336,-0.13840,0.51155,0.83072,,,0.95817,0.27602,0.07539,0.00660,
4.24219,0.16724,0.10438,0.30841,-0.15200,0.51789,0.83944,,,0.95816,0.27603,0.07539,0.00662,
4.25000,0.06411,-0.03780,0.13314,-0.13889,0.50667,0.82733,,,0.95816,0.27604,0.07538,0.00663,
4.25781,0.23600,-0.07334,-0.04213,-0.14035,0.51106,0.83847,,,0.95816,0.27605,0.07538,0.00663,
4.26563,0.06411,-0.21552,0.16820,-0.14277,0.51301,0.83896,,,0.95816,0.27606,0.07536,0.00663,
4.27344,0.09848,-0.03780,0.23830,-0.13695,0.51741,0.83363,,,0.95816,0.27607,0.07535,0.00665,
4.28125,0.06411,0.21101,0.09809,-0.14375,0.50374,0.81861,,,0.95815,0.27607,0.07537,0.00666,
4.28906,0.16724,0.10438,0.13314,-0.14132,0.51009,0.83896,,,0.95815,0.27608,0.07537,0.00667,
4.29688,0.09848,-0.07334,0.06303,-0.14909,0.50277,0.84138,,,0.95815,0.27609,0.07536,0.00667,
4.30469,0.09848,0.03329,0.16820,-0.13501,0.51448,0.83460,,,0.95815,0.27610,0.07536,0.00668,
4.31250,0.30475,-0.00225,0.27336,-0.14472,0.51106,0.83217,,,0.95814,0.27612,0.07536,0.00670,
4.32031,0.23600,-0.07334,0.20325,-0.14763,0.51204,0.83508,,,0.95814,0.27613,0.07535,0.00671,
4.32813,0.30475,-0.17997,0.13314,-0.14617,0.50569,0.83750,,,0.95813,0.27616,0.07534,0.00671,
4.33594,0.27038,-0.17997,0.16820,-0.14909,0.50618,0.83460,,,0.95813,0.27617,0.07532,0.00672,
4.34375,0.13286,0.03329,0.16820,-0.15394,0.52033,0.83653,,,0.95813,0.27618,0.07532,0.00673,
4.35156,0.16724,0.13992,0.06303,-0.15200,0.51204,0.84089,,,0.95812,0.27619,0.07533,0.00673,
4.35938,0.13286,-0.21552,0.16820,-0.13355,0.50618,0.83508,,,0.95812,0.27620,0.07531,0.00674,
4.36719,0.23600,-0.25106,0.13314,-0.14083,0.50765,0.83314,,,0.95812,0.27622,0.07529,0.00674,
4.37500,0.09848,-0.00225,0.23830,-0.14666,0.50667,0.83944,,,0.95811,0.27623,0.07529,0.00676,
4.38281,0.06411,0.03329,0.16820,-0.14326,0.51106,0.83556,,,0.95811,0.27623,0.07529,0.00677,
4.39063,0.16724,-0.07334,0.16820,-0.14083,0.51350,0.84380,,,0.95811,0.27625,0.07528,0.00678,
4.39844,0.13286,0.10438,0.06303,-0.14763,0.50716,0.83072,,,0.95811,0.27625,0.07528,0.00678,
4.40625,0.13286,-0.00225,0.13314,-0.14569,0.50862,0.83217,,,0.95810,0.27626,0.07528,0.00679,
4.41406,0.13286,-0.14443,0.20325,-0.13938,0.51155,0.82975,,,0.95810,0.27627,0.07527,0.00680,
4.42188,0.13286,0.03329,0.02798,-0.14909,0.51106,0.83799,,,0.95810,0.27628,0.07527,0.00680,
4.42969,0.20162,-0.10889,0.13314,-0.14375,0.51448,0.83993,,,0.95810,0.27630,0.07526,0.00681,
4.43750,0.27038,0.21101,0.27336,-0.15103,0.51838,0.83605,,,0.95809,0.27631,0.07527,0.00683,
4.44531,0.20162,-0.03780,0.16820,-0.13646,0.50911,0.82297,,,0.95809,0.27633,0.07526,0.00684,
4.45313,0.16724,0.03329,0.13314,-0.15006,0.50228,0.83993,,,0.95808,0.27634,0.07526,0.00685,
4.46094,0.27038,-0.03780,0.23830,-0.13938,0.51936,0.83702,,,0.95808,0.27636,0.07526,0.00686,
4.46875,0.13286,0.17546,0.13314,-0.13840,0.51643,0.83120,,,0.95808,0.27637,0.07527,0.00687,
4.47656,0.16724,0.24655,0.06303,-0.13209,0.50569,0.82684,,,0.95807,0.27638,0.07528,0.00688,
4.48438,0.23600,0.21101,-0.04213,-0.13986,0.51057,0.82878,,,0.95807,0.27639,0.07530,0.00688,
4.49219,0.20162,0.17546,0.06303,-0.15200,0.51009,0.83944,,,0.95806,0.27641,0.07531,0.00689,
4.50000,0.13286,0.10438,0.13314,-0.14957,0.51643,0.83508,,,0.95806,0.27642,0.07531,0.00690,
4.50781,0.20162,0.10438,0.16820,-0.14569,0.50911,0.83460,,,0.95805,0.27643,0.07531,0.00691,
4.51563,0.20162,-0.14443,0.02798,-0.14229,0.50960,0.83217,,,0.95805,0.27644,0.07530,0.00691,
4.52344,0.06411,0.03329,0.13314,-0.14666,0.50277,0.83653,,,0.95805,0.27645,0.07530,0.00692,
4.53125,0.16724,-0.03780,0.09809,-0.14035,0.51253,0.83799,,,0.95805,0.27646,0.07530,0.00692,
4.53906,0.16724,0.06883,0.20325,-0.14423,0.50911,0.83799,,,0.95804,0.27647,0.07530,0.00693,
4.54688,0.16724,0.10438,0.13314,-0.14277,0.51253,0.83556,,,0.95804,0.27648,0.07530,0.00694,
4.55469,0.27038,-0.00225,0.13314,-0.14375,0.51106,0.83750,,,0.95803,0.27650,0.07530,0.00695,
4.56250,-0.00465,0.10438,-0.04213,-0.14083,0.50667,0.82684,,,0.95803,0.27650,0.07531,0.00695,
4.57031,0.13286,-0.00225,0.13314,-0.13063,0.50521,0.83169,,,0.95803,0.27651,0.07531,0.00696,
4.57813,0.13286,0.21101,0.20325,-0.15006,0.50813,0.83702,,,0.95803,0.27652,0.07532,0.00697,
4.58594,0.16724,0.21101,-0.04213,-0.13938,0.50813,0.83363,,,0.95802,0.27653,0.07533,0.00698,
4.59375,0.09848,0.10438,0.13314,-0.14083,0.51155,0.83072,,,0.95802,0.27654,0.07534,0.00699,
4.60156,0.20162,0.13992,0.13314,-0.15152,0.51838,0.84477,,,0.95802,0.27655,0.07534,0.00700,
4.60938,0.23600,-0.14443,0.16820,-0.14569,0.51301,0.83896,,,0.95801,0.27657,0.07533,0.00700,
4.61719,0.20162,-0.00225,0.13314,-0.14812,0.51057,0.83702,,,0.95801,0.27658,0.07533,0.00701,
4.62500,0.16724,-0.21552,0.20325,-0.13598,0.51350,0.83266,,,0.95801,0.27659,0.07531,0.00702,
4.63281,0.16724,0.13992,0.09809,-0.14569,0.51350,0.84041,,,0.95800,0.27661,0.07532,0.00703,
4.64063,0.13286,0.13992,0.02798,-0.13306,0.51057,0.82975,,,0.95800,0.27661,0.07533,0.00703,
4.64844,0.27038,0.31764,0.06303,-0.15346,0.50813,0.82927,,,0.95799,0.27663,0.07535,0.00704,
4.65625,-0.00465,0.13992,0.06303,-0.14423,0.51106,0.83266,,,0.95799,0.27663,0.07535,0.00705,
4.66406,0.02973,0.13992,0.27336,-0.14715,0.51399,0.83605,,,0.95799,0.27664,0.07536,0.00707,
4.67188,0.06411,-0.00225,0.16820,-0.14083,0.50716,0.83556,,,0.95799,0.27664,0.07535,0.00708,
4.67969,0.16724,-0.03780,0.13314,-0.14326,0.50716,0.82781,,,0.95799,0.27665,0.07535,0.00708,
4.68750,0.09848,-0.10889,0.09809,-0.13840,0.50911,0.83460,,,0.95798,0.27666,0.07534,0.00709,
4.69531,0.20162,-0.10889,0.23830,-0.14520,0.51057,0.83750,,,0.95798,0.27667,0.07533,0.00710,
4.70313,0.02973,-0.00225,0.16820,-0.14909,0.51350,0.83847,,,0.95798,0.27668,0.07533,0.00711,
4.71094,0.23600,-0.10889,0.23830,-0.14569,0.51009,0.84041,,,0.95798,0.27669,0.07531,0.00712,
4.71875,0.13286,-0.10889,0.16820,-0.14569,0.51057,0.83460,,,0.95797,0.27670,0.07530,0.00713,
4.72656,0.13286,-0.14443,0.02798,-0.14423,0.51497,0.83653,,,0.95797,0.27671,0.07529,0.00713,
4.73438,-0.03903,-0.03780,0.20325,-0.13986,0.50667,0.83266,,,0.95797,0.27671,0.07529,0.00714,
4.74219,0.16724,-0.10889,0.20325,-0.13986,0.51009,0.83750,,,0.95797,0.27672,0.07528,0.00715,
4.75000,0.16724,-0.03780,0.23830,-0.14326,0.51887,0.83460,,,0.95797,0.27673,0.07527,0.00717,
4.75781,0.02973,-0.14443,0.20325,-0.13986,0.51253,0.82636,,,0.95797,0.27674,0.07526,0.00718,
4.76563,0.02973,-0.10889,0.16820,-0.14229,0.51057,0.82927,,,0.95797,0.27674,0.07525,0.00719,
4.77344,0.20162,-0.03780,0.09809,-0.14472,0.50813,0.83847,,,0.95796,0.27675,0.07524,0.00719,
4.78125,0.09848,-0.10889,0.16820,-0.14083,0.50862,0.83217,,,0.95796,0.27676,0.07523,0.00720,
4.78906,0.23600,-0.07334,0.16820,-0.14860,0.51497,0.83944,,,0.95796,0.27678,0.07522,0.00721,
4.79688,0.13286,0.06883,0.16820,-0.14423,0.51204,0.82781,,,0.95796,0.27679,0.07523,0.00722,
4.80469,0.16724,-0.14443,0.23830,-0.14860,0.50374,0.83799,,,0.95795,0.27680,0.07521,0.00723,
4.81250,0.27038,-0.03780,0.13314,-0.14375,0.51204,0.83702,,,0.95795,0.27682,0.07521,0.00724,
4.82031,0.16724,-0.07334,0.23830,-0.15249,0.51399,0.84089,,,0.95794,0.27683,0.07520,0.00725,
4.82813,0.20162,-0.17997,0.23830,-0.13695,0.51692,0.83411,,,0.95794,0.27684,0.07518,0.00726,
4.83594,0.20162,-0.10889,0.23830,-0.14715,0.50911,0.83605,,,0.95794,0.27686,0.07517,0.00727,
4.84375,0.20162,-0.10889,0.13314,-0.14860,0.50765,0.83508,,,0.95793,0.27687,0.07516,0.00728,
4.85156,0.20162,-0.10889,0.20325,-0.14229,0.50911,0.83363,,,0.95793,0.27689,0.07515,0.00729,
4.85938,0.20162,-0.10889,0.20325,-0.14035,0.50960,0.84089,,,0.95793,0.27690,0.07514,0.00730,
4.86719,0.02973,-0.10889,0.13314,-0.13598,0.51301,0.83217,,,0.95793,0.27690,0.07513,0.00731,
4.87500,0.09848,-0.07334,0.20325,-0.14229,0.51057,0.82830,,,0.95793,0.27691,0.07512,0.00732,
4.88281,0.02973,-0.14443,0.16820,-0.13549,0.50521,0.82684,,,0.95793,0.27691,0.07511,0.00733,
4.89063,0.27038,-0.03780,0.20325,-0.14520,0.51106,0.83993,,,0.95792,0.27693,0.07510,0.00734,
4.89844,0.09848,0.17546,0.13314,-0.14277,0.50960,0.83314,,,0.95792,0.27694,0.07511,0.00735,
4.90625,0.16724,-0.10889,0.23830,-0.14229,0.50618,0.83314,,,0.95792,0.27695,0.07510,0.00736,
4.91406,0.23600,-0.14443,0.16820,-0.14666,0.50911,0.83702,,,0.95791,0.27697,0.07509,0.00737,
4.92188,0.27038,-0.17997,0.23830,-0.14083,0.51350,0.83217,,,0.95791,0.27699,0.07507,0.00738,
4.92969,0.23600,-0.10889,0.23830,-0.14763,0.51106,0.84235,,,0.95790,0.27700,0.07506,0.00739,
4.93750,0.16724,0.03329,0.20325,-0.14229,0.50716,0.83363,,,0.95790,0.27702,0.07506,0.00741,
4.94531,0.16724,-0.17997,0.27336,-0.13840,0.51594,0.83993,,,0.95790,0.27703,0.07504,0.00742,
4.95313,0.06411,-0.07334,0.23830,-0.14277,0.51009,0.83363,,,0.95790,0.27703,0.07503,0.00743,
4.96094,0.13286,-0.07334,0.16820,-0.14520,0.50862,0.83460,,,0.95790,0.27704,0.07502,0.00744,
4.96875,0.09848,0.13992,0.02798,-0.14277,0.50667,0.83314,,,0.95789,0.27705,0.07503,0.00745,
4.97656,0.13286,-0.03780,0.13314,-0.13792,0.51448,0.83314,,,0.95789,0.27706,0.07503,0.00745,
4.98438,0.13286,0.06883,0.20325,-0.14666,0.50862,0.83460,,,0.95789,0.27707,0.07503,0.00747,
4.99219,-0.00465,0.17546,0.13314,-0.14326,0.50130,0.82490,,,0.95789,0.27707,0.07504,0.00748,
5.00000,0.02973,-0.03780,0.06303,-0.13306,0.50472,0.82830,,,0.95789,0.27707,0.07503,0.00748,
5.00781,0.16724,0.06883,0.13314,-0.15054,0.51448,0.84089,1023.184,25.8,0.95788,0.27708,0.07504,0.00749,
5.01563,0.16724,0.03329,0.13314,-0.14860,0.51009,0.83896,,,0.95788,0.27709,0.07504,0.00750,
5.02344,-0.00465,-0.10889,0.09809,-0.13258,0.51155,0.83653,,,0.95788,0.27709,0.07503,0.00750,
5.03125,0.13286,0.10438,0.09809,-0.14812,0.50667,0.83266,,,0.95788,0.27710,0.07503,0.00751,
5.03906,0.06411,-0.00225,0.27336,-0.14715,0.51057,0.83605,,,0.95788,0.27711,0.07503,0.00753,
5.04688,0.06411,-0.07334,0.23830,-0.13889,0.51155,0.82878,,,0.95787,0.27711,0.07502,0.00754,
5.05469,-0.21092,-0.07334,0.27336,-0.14180,0.50716,0.82927,,,0.95788,0.27710,0.07501,0.00756,
5.06250,-0.10778,0.17546,0.09809,-0.15297,0.50569,0.83799,,,0.95788,0.27710,0.07502,0.00757,
5.07031,-0.10778,-0.07334,-0.00707,-0.14277,0.50862,0.83896,,,0.95788,0.27709,0.07501,0.00757,
5.07813,-0.14216,-0.07334,0.06303,-0.13646,0.50813,0.82878,,,0.95789,0.27708,0.07501,0.00757,
5.08594,-0.10778,0.13992,-0.11223,-0.13792,0.51155,0.83169,,,0.95789,0.27707,0.07502,0.00757,
5.09375,-0.10778,0.38872,-0.07718,-0.13986,0.50667,0.83023,,,0.95789,0.27706,0.07504,0.00757,
5.10156,0.09848,0.24655,-0.11223,-0.13840,0.50472,0.84235,,,0.95788,0.27707,0.07506,0.00757,
5.10938,0.06411,0.17546,0.02798,-0.13549,0.51448,0.83653,,,0.95788,0.27707,0.07507,0.00757,
5.11719,-0.00465,0.21101,0.02798,-0.15200,0.51545,0.83896,,,0.95788,0.27707,0.07509,0.00758,
5.12500,0.09848,0.31764,-0.04213,-0.15346,0.51009,0.83363,,,0.95788,0.27708,0.07511,0.00758,
5.13281,0.23600,0.21101,-0.11223,-0.14957,0.50911,0.83411,,,0.95787,0.27709,0.07512,0.00758,
5.14063,0.02973,0.03329,-0.00707,-0.14326,0.50862,0.83605,,,0.95787,0.27710,0.07513,0.00758,
5.14844,0.13286,0.03329,0.16820,-0.14957,0.51009,0.83799,,,0.95787,0.27711,0.07513,0.00759,
5.15625,0.06411,0.21101,0.20325,-0.14617,0.50765,0.83411,,,0.95787,0.27711,0.07514,0.00761,
5.16406,0.16724,0.03329,0.06303,-0.13598,0.50862,0.82490,,,0.95786,0.27712,0.07514,0.00761,
5.17188,0.13286,0.10438,0.13314,-0.14375,0.50911,0.83508,,,0.95786,0.27713,0.07514,0.00762,
5.17969,0.20162,-0.03780,0.16820,-0.13840,0.51448,0.83847,,,0.95786,0.27715,0.07514,0.00763,
5.18750,0.02973,0.17546,0.20325,-0.14909,0.50277,0.82394,,,0.95785,0.27715,0.07514,0.00764,
5.19531,0.13286,-0.14443,0.20325,-0.13403,0.50667,0.82927,,,0.95785,0.27716,0.07513,0.00765,
5.20313,0.27038,0.03329,0.27336,-0.15103,0.51009,0.83702,,,0.95785,0.27718,0.07513,0.00767,
5.21094,0.13286,-0.03780,0.23830,-0.14180,0.51057,0.83702,,,0.95784,0.27719,0.07512,0.00769,
5.21875,0.09848,0.13992,0.13314,-0.14326,0.50862,0.83411,,,0.95784,0.27719,0.07513,0.00770,
5.22656,0.20162,-0.00225,0.16820,-0.15152,0.50960,0.83702,,,0.95784,0.27721,0.07512,0.00771,
5.23438,0.33913,-0.10889,0.13314,-0.14763,0.50862,0.84332,,,0.95783,0.27723,0.07511,0.00771,
5.24219,0.27038,0.10438,0.16820,-0.15054,0.51204,0.84089,,,0.95783,0.27725,0.07512,0.00772,
5.25000,0.16724,0.10438,0.13314,-0.13695,0.50911,0.82636,,,0.95782,0.27726,0.07512,0.00773,
5.25781,0.40789,0.24655,0.02798,-0.14860,0.51448,0.83508,,,0.95781,0.27729,0.07514,0.00774,
5.26563,0.30475,-0.07334,0.20325,-0.13161,0.51497,0.83556,,,0.95781,0.27731,0.07513,0.00775,
5.27344,0.33913,0.13992,0.27336,-0.14180,0.51057,0.83460,,,0.95780,0.27733,0.07513,0.00777,
5.28125,0.37351,-0.00225,0.16820,-0.14569,0.50813,0.83023,,,0.95779,0.27736,0.07513,0.00778,
5.28906,0.47665,-0.00225,0.27336,-0.14715,0.50911,0.82345,,,0.95778,0.27739,0.07513,0.00779,
5.29688,0.44227,-0.21552,0.48368,-0.15637,0.51545,0.83702,,,0.95778,0.27742,0.07510,0.00782,
5.30469,0.23600,-0.28660,0.48368,-0.15783,0.55449,0.85882,,,0.95777,0.27744,0.07508,0.00784,
5.31250,-0.48595,-0.67758,0.37852,-0.10830,0.44373,0.76724,,,0.95779,0.27741,0.07502,0.00786,
5.32031,0.95794,-1.17519,0.97443,-0.16900,0.52277,0.85640,,,0.95777,0.27748,0.07493,0.00789,
5.32813,0.61416,-0.53541,1.18475,-0.17822,0.52619,0.84719,,,0.95776,0.27752,0.07487,0.00796,
5.33594,0.61416,-1.10410,1.18475,-0.13209,0.51545,0.83750,,,0.95776,0.27757,0.07478,0.00801,
5.34375,0.75167,-0.89084,1.28991,-0.16074,0.56132,0.87384,,,0.95775,0.27763,0.07470,0.00807,
5.35156,1.16421,-0.92638,1.88582,-0.16074,0.50911,0.84671,,,0.95773,0.27771,0.07460,0.00817,
5.35938,0.68292,-1.38845,1.85076,-0.16317,0.52082,0.83799,,,0.95772,0.27777,0.07447,0.00826,
5.36719,1.09545,-1.67280,1.64044,-0.14326,0.56522,0.86997,,,0.95771,0.27785,0.07434,0.00833,
5.37500,0.44227,-0.35769,0.86927,-0.13938,0.51155,0.85543,,,0.95770,0.27788,0.07430,0.00838,
5.38281,0.54540,-0.53541,1.32496,-0.21173,0.54083,0.85640,,,0.95769,0.27792,0.07424,0.00845,
5.39063,0.20162,-2.17040,1.71055,-0.15297,0.51204,0.85010,,,0.95770,0.27795,0.07406,0.00852,
5.39844,-0.72659,-2.38366,1.50023,-0.09421,0.47935,0.78711,,,0.95772,0.27791,0.07388,0.00858,
5.40625,-0.00465,-1.60171,1.46517,-0.12286,0.52814,0.83847,,,0.95773,0.27792,0.07375,0.00865,
5.41406,-0.31405,-1.35290,1.11464,-0.11412,0.50569,0.80455,,,0.95774,0.27790,0.07364,0.00869,
5.42188,-0.24530,-1.13964,0.79916,-0.13161,0.50862,0.83702,,,0.95775,0.27789,0.07355,0.00873,
5.42969,-0.38281,-0.25106,0.65894,-0.12918,0.51887,0.84138,,,0.95776,0.27787,0.07352,0.00877,
5.43750,-0.62346,-0.00225,0.13314,-0.13889,0.52180,0.83556,,,0.95777,0.27783,0.07351,0.00878,
5.44531,-0.79535,0.13992,-0.11223,-0.13306,0.51204,0.82927,,,0.95779,0.27778,0.07352,0.00878,
5.45313,-0.89848,-0.10889,-0.00707,-0.14812,0.50472,0.82054,,,0.95781,0.27772,0.07352,0.00878,
5.46094,-2.47988,-1.21073,0.62389,-0.13549,0.46227,0.79680,,,0.95786,0.27756,0.07342,0.00881,
5.46875,-1.58605,-1.70834,0.90432,-0.18017,0.51789,0.85010,,,0.95790,0.27746,0.07329,0.00884,
5.47656,-2.47988,-2.02823,0.44862,-0.10441,0.47983,0.81376,,,0.95795,0.27730,0.07315,0.00885,
5.48438,-2.13610,-1.03301,-0.18234,-0.11461,0.50618,0.82103,,,0.95800,0.27716,0.07309,0.00883,
5.49219,-1.79232,-0.57095,-0.70814,-0.10781,0.51838,0.84089,,,0.95804,0.27704,0.07306,0.00878,
5.50000,-2.34237,1.06405,-1.40921,-0.12821,0.51253,0.83653,,,0.95807,0.27688,0.07316,0.00872,
5.50781,-1.96421,1.13513,-2.18039,-0.14375,0.51692,0.83750,,,0.95811,0.27674,0.07327,0.00861,
5.51563,-2.10172,1.24176,-2.18039,-0.15734,0.50911,0.83314,,,0.95814,0.27659,0.07339,0.00850,
5.52344,-2.27361,0.63753,-1.72469,-0.16463,0.49594,0.82151,,,0.95818,0.27644,0.07346,0.00841,
5.53125,-1.89545,-0.78421,-0.74320,-0.15831,0.52082,0.84283,,,0.95822,0.27631,0.07343,0.00836,
5.53906,-2.06735,-1.42399,-0.46277,-0.12578,0.51692,0.84816,,,0.95827,0.27617,0.07334,0.00831,
5.54688,-2.58302,-0.57095,-0.35761,-0.15200,0.51155,0.84574,,,0.95832,0.27600,0.07331,0.00829,
5.55469,-1.79232,-0.99747,-0.14729,-0.14180,0.51497,0.85059,,,0.95836,0.27589,0.07325,0.00827,
5.56250,-1.89545,-0.74867,-0.21739,-0.12821,0.52033,0.84719,,,0.95840,0.27576,0.07320,0.00825,
5.57031,-2.10172,-0.07334,-0.46277,-0.14472,0.51204,0.82975,,,0.95844,0.27562,0.07320,0.00823,
5.57813,-1.65481,-0.49986,-0.42771,-0.14375,0.51643,0.85446,,,0.95847,0.27551,0.07318,0.00820,
5.58594,-1.31102,-0.32215,-0.00707,-0.14909,0.50130,0.83847,,,0.95850,0.27543,0.07316,0.00820,
5.59375,-0.72659,0.13992,-0.11223,-0.15394,0.49057,0.82587,,,0.95851,0.27538,0.07317,0.00820,
5.60156,-0.03903,-0.14443,0.13314,-0.14666,0.50521,0.84429,,,0.95851,0.27538,0.07315,0.00820,
5.60938,-0.00465,-0.35769,0.41357,-0.14472,0.48862,0.84138,,,0.95852,0.27538,0.07312,0.00823,
5.61719,-0.17654,-1.70834,1.00948,-0.15540,0.49154,0.83217,,,0.95853,0.27537,0.07299,0.00826,
5.62500,0.09848,-2.45475,1.04453,-0.15831,0.50716,0.83120,,,0.95854,0.27539,0.07281,0.00828,
5.63281,0.27038,-3.62768,1.53528,-0.14715,0.48618,0.82054,,,0.95855,0.27541,0.07255,0.00831,
5.64063,0.99232,-4.05420,2.20130,-0.17337,0.49203,0.83023,,,0.95855,0.27549,0.07224,0.00838,
5.64844,1.09545,-5.40485,2.51678,-0.15929,0.49496,0.84235,,,0.95855,0.27558,0.07184,0.00843,
5.65625,1.37048,-6.86213,3.39312,-0.12918,0.50179,0.84283,,,0.95856,0.27569,0.07133,0.00852,
5.66406,1.50799,-6.75550,3.63849,-0.12966,0.50862,0.85446,,,0.95856,0.27581,0.07082,0.00862,
5.67188,0.95794,-6.86213,3.53333,-0.11801,0.50325,0.83169,,,0.95857,0.27589,0.07031,0.00872,
5.67969,1.23297,-6.04464,3.14774,-0.12918,0.51301,0.84089,,,0.95858,0.27599,0.06985,0.00881,
5.68750,1.57675,-5.47594,2.83226,-0.13403,0.50618,0.83896,,,0.95857,0.27611,0.06944,0.00888,
5.69531,1.30172,-5.44040,2.93742,-0.12384,0.50667,0.83169,,,0.95857,0.27621,0.06903,0.00896,
5.70313,1.02670,-5.65366,2.90237,-0.11364,0.49496,0.83072,,,0.95858,0.27630,0.06861,0.00904,
5.71094,0.71729,-5.33377,2.79721,-0.11170,0.50911,0.83605,,,0.95859,0.27636,0.06821,0.00912,
5.71875,0.40789,-4.87170,2.51678,-0.10830,0.51009,0.83799,,,0.95860,0.27640,0.06784,0.00919,
5.72656,-0.14216,-3.94757,1.95592,-0.09956,0.51009,0.83750,,,0.95862,0.27640,0.06755,0.00925,
5.73438,-0.48595,-3.59214,1.71055,-0.10295,0.50813,0.83072,,,0.95864,0.27638,0.06728,0.00929,
5.74219,-0.62346,-2.77464,1.36001,-0.12821,0.51155,0.83847,,,0.95867,0.27635,0.06707,0.00933,
5.75000,-0.79535,-3.13008,1.36001,-0.14083,0.51155,0.83702,,,0.95870,0.27631,0.06684,0.00937,
5.75781,-0.69222,-3.34334,1.53528,-0.15540,0.51399,0.82975,,,0.95872,0.27627,0.06659,0.00941,
5.76563,-1.17351,-4.26746,2.06108,-0.14132,0.50472,0.83072,,,0.95876,0.27620,0.06628,0.00947,
5.77344,-1.13913,-5.08496,2.41162,-0.11655,0.50716,0.83750,,,0.95881,0.27614,0.06590,0.00953,
5.78125,-1.37978,-5.26268,2.41162,-0.10538,0.51838,0.84816,,,0.95886,0.27607,0.06551,0.00960,
5.78906,-1.75794,-4.55181,1.78066,-0.09761,0.51106,0.84380,,,0.95891,0.27596,0.06518,0.00964,
5.79688,-1.75794,-2.88127,1.00948,-0.08790,0.51448,0.85737,,,0.95895,0.27586,0.06497,0.00966,
5.80469,-1.75794,-1.74388,0.34346,-0.08596,0.50911,0.85059,,,0.95899,0.27574,0.06484,0.00965,
5.81250,-1.07038,0.63753,-1.02362,-0.10733,0.50765,0.84283,,,0.95901,0.27567,0.06490,0.00960,
5.82031,-0.38281,1.88155,-1.93501,-0.11558,0.50716,0.84186,,,0.95901,0.27563,0.06506,0.00951,
5.82813,-0.17654,2.34361,-1.93501,-0.13403,0.50667,0.84332,,,0.95901,0.27561,0.06525,0.00943,
5.83594,0.33913,1.98818,-1.86491,-0.15054,0.50374,0.84380,,,0.95899,0.27562,0.06542,0.00935,
5.84375,0.47665,1.24176,-0.95352,-0.17045,0.51155,0.83799,,,0.95898,0.27565,0.06552,0.00930,
5.85156,0.57978,-0.03780,-0.25245,-0.15977,0.49545,0.82006,,,0.95897,0.27569,0.06552,0.00928,
5.85938,0.68292,-2.70355,1.32496,-0.15540,0.52131,0.83799,,,0.95897,0.27574,0.06532,0.00932,
5.86719,0.61416,-3.62768,2.09614,-0.15103,0.51789,0.83750,,,0.95897,0.27579,0.06504,0.00938,
5.87500,0.68292,-5.04942,3.18280,-0.14520,0.49789,0.82442,,,0.95898,0.27585,0.06465,0.00949,
5.88281,1.57675,-5.90246,4.54988,-0.14617,0.49252,0.85107,,,0.95897,0.27598,0.06418,0.00967,
5.89063,2.33307,-6.32898,5.49633,-0.16171,0.48325,0.82975,,,0.95895,0.27616,0.06367,0.00990,
5.89844,4.60204,-7.71518,8.16039,-0.20202,0.49252,0.83460,,,0.95889,0.27650,0.06301,0.01027,
5.90625,6.59598,-11.34060,11.98123,-0.24475,0.47788,0.82733,,,0.95881,0.27699,0.06205,0.01081,
5.91406,7.38668,-13.57984,14.71540,-0.28554,0.47349,0.82587,,,0.95871,0.27755,0.06089,0.01149,
5.92188,10.82450,-21.82591,21.23535,-0.33362,0.50325,0.87287,,,0.95858,0.27836,0.05907,0.01242,
5.92969,11.44331,-29.82318,27.05423,-0.24961,0.47739,0.86415,,,0.95845,0.27924,0.05662,0.01357,
5.93750,11.40893,-32.66666,30.52453,-0.29186,0.43250,0.86076,,,0.95833,0.28013,0.05391,0.01490,
5.94531,17.08134,-47.09728,40.61994,-0.44871,0.39444,0.95525,,,0.95813,0.28144,0.05008,0.01659,
5.95313,25.74466,-75.31876,62.03762,-0.70463,0.25148,0.86561,,,0.95780,0.28341,0.04400,0.01911,
5.96094,34.85490,-88.32765,71.18659,-0.69443,0.24416,0.99207,,,0.95727,0.28601,0.03690,0.02195,
5.96875,55.82564,-123.94215,96.00447,-0.63130,0.24269,1.13453,,,0.95628,0.29006,0.02702,0.02565,
5.97656,83.46576,-163.53752,103.64613,0.34186,0.71990,1.24016,,,0.95465,0.29595,0.01445,0.02902,
5.98438,90.58206,-139.15473,102.20894,0.31321,0.92044,1.45918,,,0.95268,0.30219,0.00351,0.03277,
5.99219,87.28174,-112.56826,101.99862,-0.56477,1.05951,1.33950,,,0.95061,0.30811,-0.00570,0.03705,
6.00000,82.22814,-139.19028,100.28099,-1.14459,0.99803,1.52799,,,0.94850,0.31373,-0.01662,0.04066,
6.00781,75.79941,-158.95242,100.00057,-1.05864,1.06341,1.64573,1023.140,25.8,0.94633,0.31893,-0.02882,0.04380,
6.01563,40.66483,-169.68653,95.16318,-0.88527,0.37200,1.71115,,,0.94474,0.32184,-0.04171,0.04633,
6.02344,26.91352,-172.38783,86.43486,-0.82166,0.08460,1.18638,,,0.94330,0.32384,-0.05462,0.04819,
6.03125,5.97717,-73.96811,42.23240,-0.62110,0.42567,1.44610,,,0.94274,0.32431,-0.06029,0.04929,
6.03906,-7.32722,-2.09932,11.24510,-1.10040,0.06362,0.99159,,,0.94286,0.32379,-0.06069,0.04994,
6.04688,-4.88636,16.84533,0.90432,-1.29950,0.04898,0.94604,,,0.94303,0.32342,-0.05964,0.05034,
6.05469,5.59901,24.27390,-6.59713,-1.25191,-0.07593,0.81812,,,0.94303,0.32372,-0.05792,0.05048,
6.06250,12.50904,31.02715,-15.25535,-0.90664,0.01678,0.92908,,,0.94293,0.32448,-0.05554,0.05023,
6.07031,10.61823,44.10713,-22.26605,-0.79398,0.02312,0.96494,,,0.94293,0.32509,-0.05217,0.04981,
6.07813,0.47665,73.78588,-38.28550,-0.80660,-0.02470,0.97754,,,0.94330,0.32500,-0.04658,0.04899,
6.08594,-10.38688,92.90824,-54.26989,-0.77553,-0.07788,0.97172,,,0.94398,0.32418,-0.03943,0.04752,
6.09375,-16.16243,98.41747,-61.91156,-0.72308,-0.08959,0.96349,,,0.94477,0.32298,-0.03178,0.04567,
6.10156,-28.50422,107.48104,-76.84435,-0.60508,-0.06519,0.99401,,,0.94583,0.32096,-0.02325,0.04302,
6.10938,-44.07757,116.18918,-91.63692,-0.47056,-0.05495,0.98481,,,0.94720,0.31790,-0.01388,0.03958,
6.11719,-51.36576,119.74352,-98.33214,-0.41666,-0.04909,0.97754,,,0.94863,0.31433,-0.00415,0.03578,
6.12500,-64.70453,124.07982,-109.09357,-0.32051,-0.04226,0.94798,,,0.95025,0.30985,0.00605,0.03136,
6.13281,-75.32741,124.39971,-115.64857,-0.21270,-0.03933,0.91988,,,0.95196,0.30463,0.01639,0.02652,
6.14063,-79.62469,123.68884,-118.06726,-0.15152,-0.02470,0.92085,,,0.95361,0.29908,0.02673,0.02152,
6.14844,-86.56910,120.34776,-122.06336,-0.08207,0.00214,0.89807,,,0.95525,0.29303,0.03691,0.01619,
6.15625,-89.00996,117.61091,-123.74593,-0.05051,0.00897,0.88596,,,0.95679,0.28677,0.04694,0.01070,
6.16406,-91.24454,110.46669,-127.67192,-0.01312,0.07094,0.90098,,,0.95823,0.28030,0.05657,0.00483,
6.17188,-93.20410,100.65670,-130.82674,0.02476,0.12315,0.96785,,,0.95959,0.27365,0.06561,-0.00144,
6.17969,-94.16669,95.60954,-131.91340,0.06070,0.15145,1.00080,,,0.96083,0.26689,0.07433,-0.00786,
6.18750,-96.77944,89.17618,-133.77123,0.15539,0.21830,1.10061,,,0.96198,0.25989,0.08265,-0.01451,
6.19531,-101.48926,86.93694,-134.78778,0.21803,0.31149,1.16990,,,0.96308,0.25254,0.09083,-0.02124,
6.20313,-103.96450,86.61705,-135.20843,0.23891,0.37737,1.22950,,,0.96406,0.24498,0.09899,-0.02798,
6.21094,-111.01204,83.80912,-133.77123,0.27194,0.48910,1.28087,,,0.96501,0.23692,0.10693,-0.03462,
6.21875,-118.67839,77.73120,-129.10912,0.32390,0.59450,1.32157,,,0.96597,0.22834,0.11440,-0.04099,
6.22656,-123.42259,73.67925,-124.90270,0.34575,0.62670,1.30267,,,0.96689,0.21942,0.12153,-0.04710,
6.23438,-129.78257,64.86448,-113.79074,0.40257,0.66818,1.21254,,,0.96785,0.21012,0.12791,-0.05255,
6.24219,-131.94840,56.26297,-99.45386,0.37877,0.71648,1.09674,,,0.96882,0.20073,0.13351,-0.05715,
6.25000,-131.19208,51.71342,-91.46166,0.33118,0.75210,1.03568,,,0.96973,0.19142,0.13868,-0.06128,
6.25781,-126.86042,38.13583,-73.61942,0.19667,0.87263,1.00758,,,0.97066,0.18249,0.14268,-0.06445,
6.26563,-122.39124,23.27868,-57.00407,0.09517,1.02340,1.00806,,,0.97167,0.17393,0.14546,-0.06674,
6.27344,-120.70671,16.98750,-49.88820,0.09906,1.07610,0.98384,,,0.97266,0.16551,0.14772,-0.06864,
6.28125,-117.71580,11.79816,-39.68764,0.07575,1.14392,0.93005,,,0.97365,0.15736,0.14949,-0.06995,
6.28906,-113.48727,16.63206,-35.72659,0.06701,1.23224,0.81667,,,0.97450,0.14954,0.15151,-0.07099,
6.29688,-110.08383,20.96836,-35.48122,0.03204,1.27518,0.74059,,,0.97520,0.14196,0.15380,-0.07199,
6.30469,-100.07975,27.97041,-37.02357,-0.02817,1.30006,0.54096,,,0.97566,0.13505,0.15650,-0.07313,
6.31250,-92.44778,29.74759,-38.07517,-0.03351,1.28884,0.44017,,,0.97598,0.12865,0.15929,-0.07440,
6.32031,-72.61153,30.67171,-39.40721,-0.01894,1.22492,0.26670,,,0.97607,0.12354,0.16204,-0.07596,
6.32813,-46.75908,30.45845,-39.26699,0.04079,1.16734,0.13442,,,0.97591,0.12016,0.16463,-0.07780,
6.33594,-32.45772,30.35182,-38.81130,0.08595,1.15905,0.10196,,,0.97562,0.11772,0.16714,-0.07977,
6.34375,-4.74885,30.95606,-36.70809,0.15393,1.17417,0.04478,,,0.97510,0.11716,0.16952,-0.08190,
6.35156,21.68803,30.95606,-32.53672,0.18404,1.23224,0.04478,,,0.97439,0.11840,0.17171,-0.08407,
6.35938,33.89231,30.35182,-29.87266,0.18404,1.26444,0.05592,,,0.97358,0.12048,0.17377,-0.08620,
6.36719,54.62240,26.47759,-23.17744,0.17530,1.28591,0.06561,,,0.97267,0.12399,0.17540,-0.08817,
6.37500,72.70536,18.26706,-14.72954,0.16559,1.31616,0.11068,,,0.97174,0.12875,0.17629,-0.08986,
6.38281,79.64977,12.26022,-10.10248,0.16219,1.34593,0.15574,,,0.97081,0.13398,0.17670,-0.09138,
6.39063,89.41319,-0.78421,-0.53287,0.14179,1.37179,0.24151,,,0.96998,0.13989,0.17609,-0.09249,
6.39844,94.01988,-14.07745,8.61609,0.15296,1.36837,0.31710,,,0.96929,0.14612,0.17448,-0.09318,
6.40625,95.22312,-19.12461,12.47197,0.15053,1.36642,0.38009,,,0.96863,0.15244,0.17249,-0.09368,
6.41406,93.09167,-23.60308,17.44957,0.15490,1.42205,0.52448,,,0.96803,0.15864,0.17015,-0.09387,
6.42188,83.77516,-24.66939,18.85171,0.11120,1.32592,0.56131,,,0.96751,0.16423,0.16777,-0.09386,
6.42969,79.71853,-23.88743,18.67644,0.08546,1.26786,0.56276,,,0.96699,0.16955,0.16547,-0.09380,
6.43750,74.49303,-23.53200,17.87021,0.00145,1.13465,0.51964,,,0.96650,0.17451,0.16324,-0.09373,
6.44531,74.08049,-24.84710,17.94032,-0.03060,1.06243,0.50898,,,0.96599,0.17944,0.16091,-0.09367,
6.45313,78.30902,-29.92981,18.18569,-0.09179,0.96094,0.48330,,,0.96546,0.18460,0.15821,-0.09370,
6.46094,85.42532,-33.41307,17.51968,-0.14472,0.96192,0.56034,,,0.96484,0.19020,0.15524,-0.09388,
6.46875,87.72866,-34.05285,16.01238,-0.16851,0.98144,0.61509,,,0.96414,0.19592,0.15223,-0.09420,
6.47656,87.24736,-31.24492,12.26165,-1.14168,0.57157,0.69941,,,0.96336,0.20158,0.14945,-0.09471,
6.48438,113.58111,-135.45822,30.59463,-0.40452,0.37395,1.01824,,,0.96330,0.20846,0.13939,-0.09571,
6.49219,124.58215,-160.62296,54.11553,-0.45696,-1.76176,1.26294,,,0.96332,0.21608,0.12725,-0.09562,
6.50000,150.29709,-115.69608,58.28690,-1.19072,0.26904,3.11150,,,0.96240,0.22567,0.11780,-0.09479,
6.50781,97.18268,-142.38918,63.08923,0.00971,-0.31746,0.67857,,,0.96238,0.23162,0.10685,-0.09362,
6.51563,122.10692,-139.08365,64.52642,0.68276,-0.18328,0.13975,,,0.96179,0.23919,0.09592,-0.09246,
6.52344,175.25570,-86.58602,59.33851,0.51523,1.15953,0.79002,,,0.95978,0.25050,0.08816,-0.09112,
6.53125,162.02007,-68.88540,32.41742,0.37440,2.07832,1.86669,,,0.95756,0.26085,0.08208,-0.09114,
6.53906,133.72677,-55.09455,15.90722,0.25931,2.18079,2.04597,,,0.95554,0.26932,0.07736,-0.09182,
6.54688,71.43337,-41.44588,0.09809,0.28116,1.49377,1.50618,,,0.95443,0.27371,0.07421,-0.09295,
6.55469,53.04100,-33.87513,12.01628,0.28796,0.79992,1.11612,,,0.95368,0.27701,0.07144,-0.09307,
6.56250,51.76900,-28.18818,19.83321,0.18695,0.59548,1.05894,,,0.95296,0.28029,0.06890,-0.09256,
6.57031,50.90955,-20.93733,30.13894,-0.06508,0.56132,0.98868,,,0.95226,0.28360,0.06665,-0.09124,
6.57813,44.51519,-21.89700,33.22365,-0.31274,0.72136,0.84283,,,0.95170,0.28650,0.06430,-0.08971,
6.58594,40.35542,-23.78080,31.78645,-0.48270,0.84579,0.88450,,,0.95120,0.28911,0.06189,-0.08829,
6.59375,22.89127,-30.53405,20.53428,-0.35547,0.82334,0.82878,,,0.95100,0.29050,0.05937,-0.08765,
6.60156,16.35940,-32.98655,17.51968,-0.10441,0.72185,0.80019,,,0.95091,0.29144,0.05679,-0.08724,
6.60938,9.41499,-31.20938,21.51578,0.12285,0.67696,1.01630,,,0.95097,0.29194,0.05428,-0.08650,
6.61719,-3.27058,-22.32352,22.11169,-0.07528,0.49496,0.88741,,,0.95124,0.29168,0.05241,-0.08550,
6.62500,-5.67706,-21.04396,20.53428,-0.18114,0.44421,0.80165,,,0.95155,0.29126,0.05067,-0.08456,
6.63281,-6.29587,-21.25722,16.92377,-0.25641,0.64915,0.93877,,,0.95184,0.29079,0.04899,-0.08387,
6.64063,-12.89650,-22.78559,15.20615,-0.17240,0.55107,0.86851,,,0.95226,0.28987,0.04729,-0.08329,
6.64844,-12.31207,-21.57711,15.17109,-0.15443,0.54571,0.95864,,,0.95266,0.28900,0.04566,-0.08269,
6.65625,-13.13714,-16.67212,12.36681,-0.07285,0.47105,0.89177,,,0.95304,0.28809,0.04440,-0.08217,
6.66406,-10.97131,-12.94006,10.54403,-0.02720,0.56132,0.84332,,,0.95335,0.28733,0.04342,-0.08171,
6.67188,-10.21499,-8.99474,9.10684,-0.07722,0.55205,0.85931,,,0.95363,0.28665,0.04271,-0.08126,
6.67969,-10.18061,-6.15127,6.26750,-0.15249,0.51448,0.86706,,,0.95388,0.28597,0.04224,-0.08095,
6.68750,-8.87424,-5.29822,5.81181,-0.17920,0.49301,0.86658,,,0.95410,0.28538,0.04183,-0.08065,
6.69531,-8.59921,-7.18203,6.19740,-0.08887,0.46568,0.78614,,,0.95432,0.28480,0.04129,-0.08036,
6.70313,-5.47079,-4.44518,5.46127,-0.07916,0.49984,0.80891,,,0.95447,0.28443,0.04093,-0.08007,
6.71094,-4.43944,-1.49508,3.32301,-0.09373,0.49691,0.79244,,,0.95458,0.28414,0.04079,-0.07987,
6.71875,-3.61437,-1.21073,2.83226,-0.13112,0.54424,0.84671,,,0.95467,0.28391,0.04068,-0.07970,
6.72656,-3.40810,-0.21552,1.18475,-0.14375,0.55644,0.81424,,,0.95474,0.28369,0.04066,-0.07962,
6.73438,-2.72053,0.28209,0.86927,-0.16366,0.59450,0.84477,,,0.95480,0.28352,0.04068,-0.07955,
6.74219,-2.99556,0.35318,0.79916,-0.14472,0.51253,0.87239,,,0.95486,0.28333,0.04070,-0.07948,
6.75000,-2.65178,1.06405,0.86927,-0.17822,0.49838,0.88063,,,0.95491,0.28316,0.04077,-0.07940,
6.75781,-2.06735,0.31764,1.32496,-0.10975,0.50765,0.86221,,,0.95496,0.28303,0.04077,-0.07930,
6.76563,-0.65784,2.66350,1.92087,-0.15103,0.58425,0.86464,,,0.95497,0.28301,0.04091,-0.07912,
6.77344,0.27038,3.16111,0.86927,-0.14812,0.50862,0.87094,,,0.95496,0.28305,0.04110,-0.07901,
6.78125,0.68292,2.73459,0.51873,-0.08742,0.48130,0.82151,,,0.95494,0.28311,0.04126,-0.07892,
6.78906,2.12680,3.40991,0.48368,-0.09470,0.48032,0.80310,,,0.95490,0.28327,0.04147,-0.07883,
6.79688,4.18950,3.65872,0.13314,-0.10344,0.53595,0.79002,,,0.95481,0.28356,0.04168,-0.07876,
6.80469,5.08333,2.41470,0.27336,-0.11024,0.55644,0.85155,,,0.95470,0.28390,0.04180,-0.07871,
6.81250,5.04895,2.55687,-0.49782,-0.11752,0.53253,0.84283,,,0.95459,0.28424,0.04195,-0.07871,
6.82031,5.11771,1.70383,-0.04213,-0.09033,0.56278,0.78953,,,0.95449,0.28459,0.04204,-0.07869,
6.82813,5.63338,3.44546,0.20325,-0.18745,0.58230,0.81085,,,0.95437,0.28497,0.04223,-0.07863,
6.83594,5.35836,2.94785,0.16820,-0.16414,0.54278,0.85010,,,0.95426,0.28534,0.04239,-0.07858,
6.84375,4.36139,1.70383,0.02798,-0.11849,0.52521,0.86173,,,0.95417,0.28563,0.04247,-0.07856,
6.85156,3.39880,3.30328,0.20325,-0.14277,0.47105,0.85155,,,0.95410,0.28587,0.04267,-0.07849,
6.85938,3.50193,2.48578,0.72905,-0.16608,0.53887,0.83169,,,0.95402,0.28611,0.04279,-0.07840,
6.86719,3.63945,2.16589,0.79916,-0.11947,0.50423,0.82830,,,0.95395,0.28636,0.04290,-0.07832,
6.87500,3.12377,2.66350,0.16820,-0.08110,0.46812,0.85349,,,0.95388,0.28658,0.04305,-0.07826,
6.88281,3.22691,3.69426,-0.11223,-0.13549,0.50033,0.84332,,,0.95381,0.28681,0.04328,-0.07821,
6.89063,3.57069,2.55687,0.41357,-0.10295,0.54961,0.80455,,,0.95373,0.28706,0.04342,-0.07814,
6.89844,3.91447,2.59241,0.20325,-0.06362,0.55156,0.78081,,,0.95365,0.28733,0.04356,-0.07809,
6.90625,3.36442,4.33404,-0.88341,-0.08013,0.48910,0.80455,,,0.95357,0.28756,0.04384,-0.07807,
6.91406,3.77696,4.22741,-0.67309,-0.12966,0.50130,0.82878,,,0.95348,0.28783,0.04411,-0.07805,
6.92188,3.70820,4.01415,-0.49782,-0.13112,0.55254,0.81328,,,0.95339,0.28809,0.04436,-0.07801,
6.92969,3.43318,3.55209,-0.56793,-0.08304,0.53351,0.82151,,,0.95331,0.28833,0.04459,-0.07799,
6.93750,3.02064,5.72024,-0.49782,-0.18405,0.48862,0.87191,,,0.95323,0.28856,0.04495,-0.07792,
6.94531,2.95188,5.15154,-0.25245,-0.21513,0.51155,0.86609,,,0.95315,0.28877,0.04528,-0.07784,
6.95313,3.36442,2.98339,0.90432,-0.17531,0.57937,0.79680,,,0.95308,0.28901,0.04543,-0.07773,
6.96094,3.12377,3.62317,0.83421,-0.12141,0.54522,0.81279,,,0.95301,0.28924,0.04564,-0.07762,
6.96875,2.95188,5.25817,0.58884,-0.14812,0.46861,0.83847,,,0.95294,0.28946,0.04595,-0.07748,
6.97656,3.77696,5.25817,1.11464,-0.20056,0.50325,0.85155,,,0.95286,0.28973,0.04625,-0.07732,
6.98438,3.98323,2.80568,1.36001,-0.08887,0.51350,0.81279,,,0.95278,0.29001,0.04638,-0.07719,
6.99219,5.25522,4.54730,1.14969,-0.12286,0.50618,0.82151,,,0.95266,0.29038,0.04663,-0.07704,
7.00000,5.87403,5.57806,0.37852,-0.10053,0.48179,0.80795,,,0.95253,0.29079,0.04695,-0.07693,
7.00781,7.35230,6.00458,0.58884,-0.18357,0.51887,0.84283,1023.168,25.8,0.95237,0.29130,0.04729,-0.07679,
7.01563,8.24613,5.15154,0.41357,-0.15006,0.55498,0.78953,,,0.95219,0.29187,0.04758,-0.07669,
7.02344,9.17434,6.00458,0.55378,-0.18794,0.56913,0.80746,,,0.95199,0.29250,0.04791,-0.07656,
7.03125,9.41499,6.00458,0.23830,-0.17337,0.49398,0.82297,,,0.95179,0.29314,0.04824,-0.07646,
7.03906,10.58385,3.87198,0.27336,-0.10830,0.51692,0.82975,,,0.95156,0.29385,0.04843,-0.07640,
7.04688,10.65261,5.36480,0.65894,-0.16414,0.50960,0.82442,,,0.95133,0.29457,0.04871,-0.07628,
7.05469,12.23401,4.72502,0.09809,-0.15103,0.55986,0.82878,,,0.95107,0.29539,0.04895,-0.07622,
7.06250,12.92157,4.93828,0.30841,-0.15686,0.49008,0.85155,,,0.95080,0.29625,0.04920,-0.07615,
7.07031,13.05909,5.43589,-0.11223,-0.16608,0.49154,0.83217,,,0.95052,0.29712,0.04949,-0.07609,
7.07813,14.91551,3.55209,0.48368,-0.09179,0.54717,0.80940,,,0.95020,0.29811,0.04963,-0.07603,
7.08594,16.32502,5.00937,1.21980,-0.18988,0.57157,0.78469,,,0.94986,0.29920,0.04985,-0.07591,
7.09375,16.77194,2.05926,1.50023,-0.11898,0.54180,0.80407,,,0.94952,0.30030,0.04986,-0.07583,
7.10156,17.28761,1.63274,2.27141,-0.13598,0.51301,0.79486,,,0.94917,0.30143,0.04983,-0.07571,
7.10938,18.73150,0.38872,3.74365,-0.11315,0.49154,0.78420,,,0.94880,0.30266,0.04968,-0.07552,
7.11719,21.10360,1.31285,4.16429,-0.19813,0.52082,0.83266,,,0.94838,0.30405,0.04957,-0.07529,
7.12500,26.36347,0.10438,2.58689,-0.04322,0.45397,0.86221,,,0.94785,0.30576,0.04939,-0.07521,
7.13281,32.62032,3.65872,-0.56793,-0.10004,0.46568,0.85737,,,0.94715,0.30788,0.04947,-0.07528,
7.14063,35.95501,4.29850,-2.21544,-0.06799,0.40811,0.86900,,,0.94637,0.31022,0.04961,-0.07546,
7.14844,45.78719,4.40513,-3.37221,-0.13549,0.54717,0.81279,,,0.94536,0.31318,0.04973,-0.07574,
7.15625,50.60014,4.97382,-3.23199,-0.09081,0.49691,0.83993,,,0.94424,0.31646,0.04986,-0.07601,
7.16406,59.88227,8.77697,-5.19499,-0.21173,0.46178,0.85252,,,0.94289,0.32033,0.05023,-0.07636,
7.17188,71.36461,2.84122,-3.86296,-0.06605,0.50716,0.86318,,,0.94129,0.32492,0.05012,-0.07679,
7.17969,76.24632,6.46665,-3.54748,-0.13792,0.50667,0.83217,,,0.93954,0.32983,0.05021,-0.07713,
7.18750,88.48498,6.14676,-3.12683,-0.18308,0.47300,0.80940,,,0.93750,0.33551,0.05021,-0.07749,
7.19531,102.27066,5.40034,-2.70619,-0.13840,0.46617,0.80262,,,0.93510,0.34206,0.05008,-0.07789,
7.20313,110.14328,6.60882,-1.68964,-0.20639,0.49691,0.85931,,,0.93248,0.34910,0.04995,-0.07822,
7.21094,128.08873,2.69904,0.72905,-0.08984,0.62182,0.76288,,,0.92939,0.35725,0.04942,-0.07854,
7.21875,145.58727,5.93350,2.58689,-0.13403,0.47203,0.81715,,,0.92579,0.36649,0.04895,-0.07872,
7.22656,155.52258,4.15633,4.65504,-0.14763,0.46666,0.87724,,,0.92187,0.37632,0.04826,-0.07884,
7.23438,173.29614,2.30807,9.03673,-0.15831,0.44958,0.80019,,,0.91740,0.38723,0.04724,-0.07878,
7.24219,194.71379,1.06405,12.01628,-0.08353,0.54034,0.78566,,,0.91224,0.39942,0.04594,-0.07862,
7.25000,205.95548,5.75578,13.06788,-0.17337,0.58523,0.84962,,,0.90659,0.41226,0.04483,-0.07828,
7.25781,228.26697,11.83370,13.94422,-0.19376,0.56913,0.89759,,,0.90010,0.42642,0.04395,-0.07778,
7.26563,256.42276,14.21511,15.83711,-0.13646,0.55351,0.85446,,,0.89255,0.44221,0.04299,-0.07715,
7.27344,273.47438,19.01347,16.15259,-0.12626,0.62426,0.80504,,,0.88418,0.45891,0.04222,-0.07638,
7.28125,312.18430,25.73118,16.88872,-0.15492,0.71697,0.89904,,,0.87423,0.47780,0.04161,-0.07544,
7.28906,349.82849,36.28757,16.50313,-0.18842,0.73307,0.87530,,,0.86257,0.49874,0.04142,-0.07424,
7.29688,370.00852,42.25887,15.20615,-0.23990,0.73259,0.75271,,,0.84967,0.52059,0.04150,-0.07294,
7.30469,412.56880,49.79407,17.58979,-0.23018,1.15465,0.87287,,,0.83464,0.54457,0.04169,-0.07129,
7.31250,425.70130,58.82210,21.06008,-0.36033,1.38545,1.05264,,,0.81842,0.56889,0.04217,-0.06909,
7.32031,436.18667,70.62252,28.49142,-0.24330,1.60209,0.99207,,,0.80107,0.59337,0.04293,-0.06598,
7.32813,428.72658,91.13107,36.79910,-0.24961,1.85826,1.36179,,,0.78328,0.61702,0.04447,-0.06151,
7.33594,410.60924,102.46942,40.97047,-0.39092,1.69919,1.22611,,,0.76555,0.63923,0.04648,-0.05624,
7.34375,392.62942,102.57605,50.15449,-0.60508,1.80703,1.36130,,,0.74801,0.66002,0.04813,-0.05037,
7.35156,357.39170,84.94651,59.44367,-0.58954,1.87924,1.46596,,,0.73163,0.67851,0.04854,-0.04468,
7.35938,336.14594,78.58424,63.29955,-0.57934,1.80849,1.35985,,,0.71581,0.69552,0.04850,-0.03899,
7.36719,300.01439,64.15361,67.71629,-0.45988,1.61332,1.40346,,,0.70140,0.71039,0.04761,-0.03363,
7.37500,256.01022,59.49743,74.58678,-0.38024,1.15173,1.54252,,,0.68886,0.72288,0.04625,-0.02801,
7.38281,237.06781,51.42907,81.28200,-0.50893,0.94630,1.43883,,,0.67707,0.73425,0.04420,-0.02240,
7.39063,215.85642,14.99707,87.59163,-0.64392,0.43446,1.36469,,,0.66628,0.74440,0.04017,-0.01826,
7.39844,185.22540,3.09002,91.41246,-0.83720,2.31888,3.32373,,,0.65693,0.75298,0.03544,-0.01446,
7.40625,105.26157,-15.85462,86.57508,-0.86439,1.86022,3.04318,,,0.65163,0.75785,0.03018,-0.01165,
7.41406,-11.79639,-32.66666,69.92466,-0.71045,1.00339,2.09200,,,0.65236,0.75742,0.02513,-0.01021,
7.42188,-66.87036,-50.08293,63.12428,-0.53903,0.41738,1.53622,,,0.65593,0.75450,0.01969,-0.00988,
7.42969,-84.88456,-53.60173,60.88086,-0.40646,0.23391,1.27263,,,0.66040,0.75072,0.01422,-0.00980,
7.43750,-103.65509,-45.92435,57.20024,-0.22581,0.02800,0.94846,,,0.66576,0.74604,0.00929,-0.00947,
7.44531,-108.08989,-39.70425,56.53423,-0.18405,-0.04519,0.83653,,,0.67130,0.74112,0.00469,-0.00886,
7.45313,-112.83409,-22.53678,54.64134,-0.16657,-0.08422,0.68487,,,0.67702,0.73593,0.00096,-0.00746,
7.46094,-116.75321,-4.08975,50.78545,-0.23358,-0.03104,0.66355,,,0.68288,0.73051,-0.00172,-0.00531,
7.46875,-119.53785,3.19665,48.05128,-0.29283,-0.00713,0.66597,,,0.68883,0.72491,-0.00391,-0.00293,
7.47656,-126.68852,11.37164,41.21585,-0.43803,0.07875,0.71104,,,0.69507,0.71892,-0.00539,-0.00047,
7.48438,-137.13951,10.19871,32.06688,-0.57642,0.18609,0.77645,,,0.70177,0.71237,-0.00647,0.00150,
7.49219,-143.94641,6.21784,26.28305,-0.63227,0.22269,0.81279,,,0.70873,0.70544,-0.00746,0.00299,
7.50000,-159.17598,-5.93801,11.87606,-0.69151,0.30418,0.86076,,,0.71634,0.69770,-0.00835,0.00319,
7.50781,-176.88078,-19.30233,-5.37026,-0.66238,0.36517,0.86512,,,0.72469,0.68901,-0.00907,0.00191,
7.51563,-185.71599,-23.95852,-14.93986,-0.62062,0.38908,0.87917,,,0.73335,0.67979,-0.00958,-0.00007,
7.52344,-203.83333,-27.72612,-35.20079,-0.54195,0.42421,0.85931,,,0.74270,0.66955,-0.00933,-0.00325,
7.53125,-220.05987,-24.52721,-56.33805,-0.46522,0.43982,0.82103,,,0.75263,0.65835,-0.00795,-0.00736,
7.53906,-227.17617,-21.47048,-66.29324,-0.42783,0.46227,0.81328,,,0.76268,0.64663,-0.00596,-0.01185,
7.54688,-240.17115,-15.53473,-83.25914,-0.41375,0.51399,0.79244,,,0.77308,0.63407,-0.00290,-0.01696,
7.55469,-250.51900,-13.15332,-95.45776,-0.37927,0.60035,0.78711,,,0.78367,0.62076,0.00083,-0.02261,
7.56250,-255.29758,-12.83343,-99.87450,-0.33653,0.64720,0.78275,,,0.79419,0.60699,0.00476,-0.02847,
7.57031,-264.82036,-11.48278,-105.86865,-0.29574,0.72819,0.81618,,,0.80479,0.59248,0.00904,-0.03458,
7.57813,-273.62119,-10.94963,-106.04391,-0.27000,0.80334,0.85979,,,0.81544,0.57726,0.01336,-0.04067,
7.58594,-277.74658,-10.80745,-104.92220,-0.23941,0.83993,0.88499,,,0.82592,0.56157,0.01766,-0.04667,
7.59375,-286.51304,-9.03028,-100.50546,-0.18454,0.93167,0.94120,,,0.83640,0.54517,0.02190,-0.05231,
7.60156,-291.08535,-6.68442,-97.77129,-0.16608,0.97900,0.96736,,,0.84670,0.52828,0.02619,-0.05769,
7.60938,-300.60812,-0.17997,-90.83069,-0.14326,1.04877,1.00758,,,0.85698,0.51065,0.03063,-0.06239,
7.61719,-309.16831,8.74143,-83.46946,-0.15200,1.10928,1.04441,,,0.86716,0.49233,0.03535,-0.06630,
7.62500,-312.57176,12.82892,-79.68368,-0.17191,1.14197,1.05652,,,0.87705,0.47360,0.04018,-0.06981,
7.63281,-317.21282,19.79543,-71.97191,-0.21027,1.16978,1.06863,,,0.88668,0.45442,0.04519,-0.07259,
7.64063,-317.96914,25.37575,-64.78594,-0.23601,1.23028,1.10982,,,0.89591,0.43501,0.05029,-0.07472,
7.64844,-317.55660,28.04150,-61.17543,-0.26321,1.27225,1.13938,,,0.90470,0.41545,0.05542,-0.07652,
7.65625,-315.18450,34.36823,-54.30495,-0.32488,1.38594,1.17911,,,0.91299,0.39589,0.06071,-0.07768,
7.66406,-313.25932,40.55278,-49.08197,-0.45162,1.53817,1.19510,,,0.92080,0.37631,0.06620,-0.07833,
7.67188,-312.05608,42.61430,-48.27574,-0.51330,1.61917,1.19219,,,0.92813,0.35665,0.07177,-0.07884,
7.67969,-308.85890,44.17821,-51.78109,-0.55457,1.77141,1.14955,,,0.93493,0.33702,0.07747,-0.07951,
7.68750,-303.04898,46.52408,-61.84145,-0.50310,1.92609,1.05264,,,0.94110,0.31756,0.08348,-0.08077,
7.69531,-299.19861,48.86994,-67.52012,-0.44240,1.99098,0.98190,,,0.94671,0.29818,0.08970,-0.08232,
7.70313,-290.32902,55.58765,-76.00306,-0.34430,2.03831,0.80165,,,0.95164,0.27924,0.09644,-0.08430,
7.71094,-275.82140,61.38123,-77.75574,-0.28360,2.06954,0.60201,,,0.95585,0.26114,0.10347,-0.08634,
7.71875,-267.15808,62.58970,-76.03812,-0.27826,2.06710,0.51431,,,0.95953,0.24353,0.11045,-0.08828,
7.72656,-248.49069,61.98547,-68.85215,-0.26418,2.04417,0.35731,,,0.96262,0.22710,0.11713,-0.08987,
7.73438,-237.90218,60.84808,-64.43541,-0.22679,2.02270,0.28124,,,0.96527,0.21132,0.12356,-0.09124,
7.74219,-215.86572,61.55894,-57.56492,-0.07770,1.96024,0.15186,,,0.96738,0.19700,0.12976,-0.09231,
7.75000,-192.93542,68.98752,-56.51332,0.04758,1.89925,0.04672,,,0.96891,0.18420,0.13627,-0.09339,
7.75781,-181.07493,73.14610,-57.03912,-0.01409,1.86900,0.09469,,,0.97004,0.17217,0.14295,-0.09455,
7.76563,-159.89792,71.26230,-57.07417,0.03059,1.85631,-0.10495,,,0.97078,0.16149,0.14935,-0.09592,
7.77344,-136.76135,58.96427,-57.24944,-0.04614,1.93682,-0.14856,,,0.97125,0.15224,0.15477,-0.09766,
7.78125,-126.27599,46.77288,-55.14623,-0.06265,1.92023,-0.22512,,,0.97165,0.14362,0.15927,-0.09949,
7.78906,-102.69250,18.83576,-48.06542,-0.02963,1.83387,-0.36224,,,0.97210,0.13643,0.16168,-0.10137,
7.79688,-75.05238,-5.40485,-39.93301,0.04710,1.73384,-0.48096,,,0.97256,0.13098,0.16221,-0.10323,
7.80469,-60.13222,-13.36658,-36.11218,0.08789,1.68260,-0.53135,,,0.97298,0.12651,0.16207,-0.10508,
7.81250,-27.95417,-19.90657,-28.85610,0.12625,1.59966,-0.55558,,,0.97323,0.12420,0.16119,-0.10685,
7.82031,3.46755,-16.92092,-23.24754,0.11751,1.56208,-0.49065,,,0.97321,0.12406,0.16024,-0.10857,
7.82813,18.00956,-13.93527,-20.96907,0.09566,1.56550,-0.43202,,,0.97305,0.12494,0.15936,-0.11028,
7.83594,43.31195,-8.42604,-16.86781,0.02573,1.54793,-0.31427,,,0.97264,0.12757,0.15862,-0.11194,
7.84375,74.87119,-15.53473,-6.63218,-0.31274,1.60893,-0.40149,,,0.97210,0.13235,0.15707,-0.11332,
7.85156,92.85102,-46.38641,5.84686,-0.29186,1.04340,-0.81772,,,0.97177,0.13821,0.15323,-0.11434,
7.85938,179.48423,-117.86423,41.63649,0.11751,1.55086,-0.74601,,,0.97153,0.14962,0.14361,-0.11455,
7.86719,236.00208,-139.36799,71.81755,0.47541,0.66574,-0.66654,,,0.97087,0.16484,0.13177,-0.11350,
7.87500,274.74637,-126.67899,78.89836,0.25397,0.89556,0.46052,,,0.96931,0.18271,0.12035,-0.11215,
7.88281,258.24481,-102.58056,67.29565,-0.05294,1.41229,2.28728,,,0.96726,0.19951,0.11073,-0.11108,
7.89063,217.95350,-99.41719,57.23530,0.18064,1.17515,2.35802,,,0.96535,0.21353,0.10173,-0.11028,
7.89844,144.62467,-67.03714,38.58683,0.20492,1.00095,1.95924,,,0.96394,0.22280,0.09565,-0.10971,
7.90625,110.86523,-55.98314,39.95392,0.62206,0.45056,0.59474,,,0.96288,0.22992,0.09053,-0.10866,
7.91406,125.78539,-44.60924,44.02013,0.71578,0.44812,0.48281,,,0.96146,0.23811,0.08597,-0.10724,
7.92188,158.34160,-22.00363,54.08048,0.71627,1.10488,1.15537,,,0.95935,0.24863,0.08248,-0.10497,
7.92969,141.56501,-0.74867,66.31415,0.35158,1.57721,1.75718,,,0.95738,0.25825,0.08029,-0.10143,
7.93750,122.62259,-0.32215,76.09408,0.06992,1.64406,1.67917,,,0.95570,0.26665,0.07807,-0.09714,
7.94531,95.80755,-7.18203,89.51957,-0.90373,1.82264,1.62441,,,0.95455,0.27332,0.07534,-0.09194,
7.95313,65.38279,-37.42947,62.94902,-1.53502,1.41180,1.11030,,,0.95390,0.27766,0.07133,-0.08888,
7.96094,58.02585,-52.81977,38.97242,-1.14119,0.95314,0.82006,,,0.95327,0.28130,0.06681,-0.08762,
7.96875,67.54862,-67.46366,17.27430,0.33070,0.53741,1.04877,,,0.95237,0.28536,0.06168,-0.08810,
7.97656,59.22909,-51.64684,32.41742,0.63712,0.80919,1.31963,,,0.95161,0.28903,0.05734,-0.08725,
7.98438,45.16838,-41.33925,39.42812,0.19084,0.89409,1.21109,,,0.95111,0.29186,0.05361,-0.08568,
7.99219,23.47570,-32.66666,29.57808,-0.54826,0.81749,0.89856,,,0.95093,0.29330,0.05076,-0.08449,
8.00000,11.13391,-37.46502,15.03088,-0.15492,0.58084,0.96106,,,0.95092,0.29386,0.04797,-0.08431,
8.00781,5.94279,-34.44383,16.43302,-0.04322,0.58328,1.08995,1023.198,25.8,0.95100,0.29410,0.04537,-0.08395,
8.01563,-4.54258,-26.23330,22.25190,-0.27680,0.57547,0.84768,,,0.95130,0.29372,0.04325,-0.08302,
8.02344,-4.71447,-26.80199,20.95492,-0.20299,0.59987,0.85446,,,0.95159,0.29332,0.04112,-0.08218,
8.03125,-6.77717,-21.68374,14.22465,0.11703,0.44617,0.85931,,,0.95186,0.29280,0.03947,-0.08168,
8.03906,-4.23318,-10.91408,11.03478,0.02622,0.55693,0.81521,,,0.95204,0.29249,0.03856,-0.08117,
8.04688,-2.92680,-7.64409,8.58104,-0.10101,0.65452,0.87239,,,0.95216,0.29229,0.03791,-0.08075,
8.05469,-1.82670,-3.98312,1.67550,-0.03691,0.53595,0.88208,,,0.95222,0.29215,0.03763,-0.08072,
8.06250,1.33610,0.60198,-0.25245,-0.03788,0.53302,0.86318,,,0.95219,0.29224,0.03766,-0.08073,
8.07031,2.74561,5.40034,-0.42771,-0.17871,0.51155,0.86609,,,0.95212,0.29244,0.03801,-0.08065,
8.07813,5.11771,5.04491,-1.65459,-0.11364,0.60572,0.83799,,,0.95199,0.29280,0.03834,-0.08067,
8.08594,6.32095,7.39078,-2.53092,-0.16220,0.53595,0.89080,,,0.95183,0.29324,0.03884,-0.08071,
8.09375,6.87100,6.71545,-3.65264,-0.07916,0.49594,0.83556,,,0.95166,0.29372,0.03931,-0.08083,
8.10156,8.76181,8.27936,-3.96812,-0.09033,0.54571,0.80601,,,0.95144,0.29432,0.03987,-0.08094,
8.10938,10.13694,9.63001,-3.09178,-0.16803,0.58035,0.78856,,,0.95119,0.29502,0.04051,-0.08098,
8.11719,10.37758,8.24382,-2.81135,-0.17677,0.56766,0.83653,,,0.95094,0.29573,0.04104,-0.08102,
8.12500,9.79315,6.39556,-2.00512,-0.14375,0.53887,0.83266,,,0.95072,0.29640,0.04144,-0.08105,
8.13281,9.31186,5.04491,-0.39266,-0.15006,0.53936,0.81134,,,0.95051,0.29703,0.04172,-0.08100,
8.14063,9.17434,5.36480,0.23830,-0.17483,0.55254,0.79632,,,0.95031,0.29765,0.04202,-0.08090,
8.14844,9.10559,4.04969,1.04453,-0.13209,0.56669,0.80455,,,0.95012,0.29827,0.04221,-0.08078,
8.15625,7.76484,3.97861,0.62389,-0.10975,0.50862,0.84429,,,0.94995,0.29879,0.04241,-0.08068,
8.16406,7.73046,5.40034,0.62389,-0.18551,0.53790,0.83508,,,0.94979,0.29933,0.04271,-0.08055,
8.17188,8.21175,3.51654,1.36001,-0.18065,0.60914,0.81231,,,0.94961,0.29988,0.04286,-0.08042,
8.17969,7.28354,3.44546,1.36001,-0.10878,0.56083,0.80455,,,0.94946,0.30038,0.04302,-0.08028,
8.18750,6.18344,5.54252,0.41357,-0.18842,0.51448,0.81861,,,0.94932,0.30081,0.04333,-0.08016,
8.19531,5.63338,4.04969,0.93937,-0.13840,0.52570,0.83702,,,0.94920,0.30120,0.04354,-0.08003,
8.20313,5.66776,2.59241,1.25485,-0.10053,0.56522,0.80262,,,0.94908,0.30158,0.04366,-0.07991,
8.21094,5.49587,2.77013,0.51873,-0.07722,0.54473,0.80988,,,0.94896,0.30195,0.04379,-0.07984,
8.21875,5.18647,4.15633,0.55378,-0.08742,0.51106,0.79535,,,0.94885,0.30231,0.04402,-0.07973,
8.22656,5.63338,5.96904,0.34346,-0.22921,0.52424,0.83896,,,0.94872,0.30271,0.04437,-0.07960,
8.23438,6.32095,3.72980,1.07959,-0.12384,0.61207,0.77839,,,0.94858,0.30314,0.04456,-0.07948,
8.24219,6.01154,3.90752,0.41357,-0.10830,0.51301,0.81231,,,0.94845,0.30355,0.04477,-0.07939,
8.25000,6.08030,7.63958,-0.49782,-0.17143,0.48764,0.83605,,,0.94829,0.30399,0.04524,-0.07928,
8.25781,6.87100,6.89317,0.23830,-0.21902,0.52765,0.85010,,,0.94813,0.30447,0.04564,-0.07914,
8.26563,6.90538,5.72024,0.37852,-0.19522,0.55888,0.82054,,,0.94797,0.30495,0.04597,-0.07902,
8.27344,6.90538,4.29850,0.48368,-0.10733,0.56815,0.78856,,,0.94782,0.30542,0.04620,-0.07892,
8.28125,5.94279,5.04491,-0.21739,-0.08790,0.48959,0.82103,,,0.94768,0.30583,0.04650,-0.07885,
8.28906,6.52722,5.93350,-0.35761,-0.15977,0.54571,0.81376,,,0.94752,0.30628,0.04685,-0.07877,
8.29688,7.28354,3.55209,0.20325,-0.13598,0.58718,0.77839,,,0.94736,0.30677,0.04704,-0.07871,
8.30469,7.90235,3.05448,1.04453,-0.12092,0.55302,0.80649,,,0.94719,0.30730,0.04717,-0.07860,
8.31250,7.59294,5.32926,0.79916,-0.22581,0.51204,0.82103,,,0.94702,0.30782,0.04746,-0.07846,
8.32031,8.14300,2.02372,2.16624,-0.15589,0.54180,0.82006,,,0.94685,0.30836,0.04750,-0.07831,
8.32813,7.76484,2.48578,3.60344,-0.19474,0.56278,0.77839,,,0.94670,0.30889,0.04754,-0.07805,
8.33594,8.79618,1.95263,3.88387,-0.18357,0.58767,0.81812,,,0.94653,0.30948,0.04754,-0.07778,
8.34375,8.89932,2.73459,4.26945,-0.11849,0.51594,0.84089,,,0.94635,0.31008,0.04758,-0.07748,
8.35156,10.13694,3.65872,3.35806,-0.14812,0.54717,0.83605,,,0.94614,0.31077,0.04769,-0.07722,
8.35938,10.03380,3.65872,2.62194,-0.07479,0.58328,0.77500,,,0.94593,0.31144,0.04782,-0.07700,
8.36719,11.71834,6.00458,1.36001,-0.11461,0.56620,0.81376,,,0.94567,0.31223,0.04812,-0.07683,
8.37500,12.92157,8.74143,-0.53287,-0.19959,0.50130,0.85640,,,0.94536,0.31311,0.04862,-0.07672,
8.38281,14.12481,6.14676,-0.77825,-0.10101,0.50960,0.78372,,,0.94504,0.31405,0.04896,-0.07668,
8.39063,16.18751,6.92871,-0.77825,-0.11898,0.60084,0.75804,,,0.94466,0.31513,0.04934,-0.07664,
8.39844,17.66577,7.35523,-1.37416,-0.10538,0.55058,0.81715,,,0.94425,0.31630,0.04975,-0.07663,
8.40625,19.04090,5.89795,-1.54943,-0.10587,0.53351,0.81279,,,0.94381,0.31755,0.05007,-0.07667,
8.41406,19.52220,7.31969,-3.47737,-0.13598,0.50228,0.80407,,,0.94334,0.31883,0.05051,-0.07680,
8.42188,22.89127,5.79132,-3.23199,-0.11607,0.61304,0.72751,,,0.94281,0.32032,0.05083,-0.07696,
8.42969,23.81948,8.31490,-2.74125,-0.22776,0.61304,0.79874,,,0.94224,0.32189,0.05130,-0.07703,
8.43750,24.50705,7.63958,-2.95157,-0.21999,0.47935,0.78614,,,0.94166,0.32349,0.05173,-0.07714,
8.44531,26.63850,6.57328,-2.84641,-0.14569,0.52814,0.85398,,,0.94104,0.32522,0.05207,-0.07727,
8.45313,29.69816,5.96904,-2.42576,-0.19085,0.60133,0.77306,,,0.94034,0.32715,0.05235,-0.07740,
8.46094,33.85793,6.07567,-2.04018,-0.26515,0.53351,0.82200,,,0.93955,0.32934,0.05261,-0.07752,
8.46875,38.01770,2.84122,-1.30405,-0.12238,0.54034,0.77500,,,0.93868,0.33179,0.05262,-0.07767,
8.47656,44.10265,4.83165,-0.67309,-0.18114,0.49691,0.84138,,,0.93765,0.33463,0.05271,-0.07777,
8.48438,54.72553,3.26774,-0.39266,-0.12189,0.55400,0.80068,,,0.93639,0.33814,0.05264,-0.07791,
8.49219,60.94800,1.66829,-0.35761,-0.09081,0.60816,0.75901,,,0.93497,0.34204,0.05243,-0.07812,
8.50000,73.35855,3.62317,-2.49587,-0.09519,0.48715,0.82103,,,0.93322,0.34672,0.05233,-0.07845,
8.50781,87.62553,6.21784,-5.89606,-0.11995,0.47837,0.81182,,,0.93108,0.35230,0.05239,-0.07899,
8.51563,95.91069,6.28893,-5.82595,-0.17531,0.50813,0.84283,,,0.92870,0.35839,0.05241,-0.07955,
8.52344,112.68727,7.46186,-7.22809,-0.16123,0.54083,0.77790,,,0.92585,0.36553,0.05245,-0.08023,
8.53125,130.32332,6.11121,-5.86101,-0.16900,0.50569,0.83314,,,0.92251,0.37375,0.05227,-0.08091,
8.53906,138.81475,7.63958,-5.05478,-0.12966,0.49789,0.82248,,,0.91888,0.38249,0.05211,-0.08152,
8.54688,157.65403,8.63480,-1.12878,-0.19376,0.47300,0.80358,,,0.91468,0.39238,0.05180,-0.08192,
8.55469,178.83104,6.43110,5.04063,-0.26855,0.64573,0.79244,,,0.90983,0.40356,0.05106,-0.08206,
8.56250,190.45089,3.65872,5.39117,-0.03934,0.62670,0.83993,,,0.90454,0.41537,0.05007,-0.08228,
8.57031,207.39937,6.32447,5.32106,-0.17774,0.60475,0.91697,,,0.89858,0.42817,0.04914,-0.08248,
8.57813,229.33270,5.04491,7.70470,-0.21367,0.50423,0.82490,,,0.89181,0.44222,0.04793,-0.08262,
8.58594,243.53092,7.67512,9.00168,-0.19474,0.48130,0.74980,,,0.88437,0.45703,0.04675,-0.08262,
8.59375,277.39350,12.04696,14.01433,-0.20979,0.59743,0.70474,,,0.87561,0.47379,0.04547,-0.08227,
8.60156,294.54825,15.95674,17.13409,-0.28312,0.62182,0.77160,,,0.86597,0.49141,0.04421,-0.08163,
8.60938,329.33905,21.00390,24.77575,-0.37878,0.83261,0.89274,,,0.85479,0.51091,0.04278,-0.08044,
8.61719,364.40487,23.88292,35.60729,-0.35304,0.78919,0.59280,,,0.84196,0.53222,0.04092,-0.07857,
8.62500,392.42315,28.78791,39.35801,-0.25786,0.99071,0.88354,,,0.82755,0.55480,0.03903,-0.07633,
8.63281,430.72052,42.72093,48.43687,-0.29331,1.21223,1.04198,,,0.81105,0.57920,0.03735,-0.07310,
8.64063,452.34445,61.34568,57.20024,-0.33216,1.36349,1.01436,,,0.79292,0.60436,0.03621,-0.06863,
8.64844,462.14225,68.63208,61.96752,-0.26126,1.54305,1.09431,,,0.77361,0.62949,0.03519,-0.06356,
8.65625,458.80756,85.83510,69.74940,-0.21707,1.90901,1.20528,,,0.75363,0.65388,0.03471,-0.05727,
8.66406,438.38687,93.61911,74.76205,-0.21999,2.01099,1.35452,,,0.73381,0.67662,0.03446,-0.05027,
8.67188,422.71039,99.12834,74.76205,-0.36518,1.97244,1.47275,,,0.71402,0.69796,0.03451,-0.04293,
8.67969,384.41301,101.79409,72.41346,-0.35741,1.76409,1.22127,,,0.69544,0.71686,0.03488,-0.03546,
8.68750,358.04489,93.22813,75.63838,-0.33265,1.51817,1.23193,,,0.67769,0.73399,0.03473,-0.02816,
8.69531,345.35931,87.89662,79.70459,-0.31759,1.44107,1.20140,,,0.66015,0.75007,0.03413,-0.02089,
8.70313,317.27228,72.89729,93.13008,-0.35790,1.24395,1.55512,,,0.64373,0.76445,0.03219,-0.01370,
8.71094,253.22559,83.38260,91.02687,-0.42152,0.86823,1.58613,,,0.63033,0.77569,0.03086,-0.00592,
8.71875,232.77052,72.18643,87.41636,-0.27826,0.60963,1.15149,,,0.61781,0.78578,0.02924,0.00116,
8.72656,226.78871,84.02238,95.09308,-0.76678,2.18030,2.09200,,,0.60541,0.79538,0.02770,0.00921,
8.73438,186.70366,82.13858,89.83505,-1.20286,3.18204,3.85964,,,0.59503,0.80309,0.02634,0.01701,
8.74219,-23.14122,5.18708,68.24209,-1.33349,1.91974,2.66329,,,0.59622,0.80224,0.02279,0.02010,
8.75000,-126.68852,-53.88608,52.57318,-1.23588,1.17368,2.04549,,,0.60315,0.79720,0.01756,0.01948,
8.75781,-163.40450,-89.46504,50.25965,-1.03096,0.77943,1.59679,,,0.61203,0.79058,0.01093,0.01687,
8.76563,-203.38641,-132.18822,45.80785,-0.53466,0.27197,0.91648,,,0.62295,0.78217,0.00272,0.01180,
8.77344,-215.72821,-134.78289,38.93737,-0.22484,0.00312,0.60492,,,0.63436,0.77300,-0.00525,0.00631,
8.78125,-217.85966,-126.25247,33.67934,-0.11801,-0.09008,0.48136,,,0.64568,0.76350,-0.01258,0.00103,
8.78906,-213.90616,-94.72546,20.00848,-0.01749,-0.21890,0.31903,,,0.65665,0.75398,-0.01780,-0.00320,
8.79688,-203.83333,-57.44042,5.07569,-0.04225,-0.19304,0.29238,,,0.66699,0.74475,-0.02059,-0.00618,
8.80469,-199.29540,-40.77055,-1.86491,-0.09130,-0.14278,0.31613,,,0.67699,0.73560,-0.02226,-0.00861,
8.81250,-193.55423,-18.09385,-12.55623,-0.25786,0.00360,0.38736,,,0.68661,0.72661,-0.02235,-0.01039,
8.82031,-193.58861,-11.76713,-18.41016,-0.41860,0.17048,0.49686,,,0.69611,0.71750,-0.02185,-0.01213,
8.82813,-195.92633,-14.39734,-20.72369,-0.48173,0.24953,0.54968,,,0.70559,0.70816,-0.02135,-0.01411,
8.83594,-205.31160,-26.65982,-25.31570,-0.57108,0.37688,0.63981,,,0.71537,0.69822,-0.02121,-0.01692,
8.84375,-218.27220,-41.62360,-31.76554,-0.56963,0.50277,0.70328,,,0.72558,0.68749,-0.02147,-0.02077,
8.85156,-225.97293,-47.73706,-36.14723,-0.52446,0.56278,0.72896,,,0.73596,0.67620,-0.02181,-0.02512,
8.85938,-243.33395,-52.39325,-46.13748,-0.40306,0.68330,0.73623,,,0.74692,0.66387,-0.02189,-0.03021,
8.86719,-261.31378,-45.95989,-56.26794,-0.29768,0.76333,0.71346,,,0.75843,0.65044,-0.02114,-0.03554,
8.87500,-269.53018,-40.13077,-60.47436,-0.26709,0.78821,0.70231,,,0.77004,0.63637,-0.01987,-0.04083,
8.88281,-283.86591,-27.40623,-65.45196,-0.23164,0.82334,0.67033,,,0.78199,0.62136,-0.01768,-0.04583,
8.89063,-289.50395,-21.32831,-66.60872,-0.22776,0.84237,0.65725,,,0.79386,0.60581,-0.01508,-0.05063,
8.89844,-297.89224,-11.23397,-66.04787,-0.24038,0.86823,0.63254,,,0.80575,0.58958,-0.01193,-0.05496,
8.90625,-302.08639,-4.12529,-63.27864,-0.20930,0.91605,0.63738,,,0.81747,0.57290,-0.00848,-0.05884,
8.91406,-302.87709,-0.17997,-61.14038,-0.19571,0.96729,0.66258,,,0.82887,0.55593,-0.00489,-0.06241,
8.92188,-304.25222,9.31012,-56.58342,-0.17240,1.06292,0.71152,,,0.83998,0.53867,-0.00092,-0.06535,
8.92969,-305.48984,20.15086,-51.43056,-0.15783,1.18344,0.78517,,,0.85078,0.52115,0.00348,-0.06756,
8.93750,-306.45243,25.97998,-48.69639,-0.16754,1.24785,0.82878,,,0.86124,0.50337,0.00813,-0.06937,
8.94531,-309.09955,37.85148,-42.98266,-0.19474,1.35813,0.88208,,,0.87143,0.48526,0.01329,-0.07041,
8.95313,-310.88722,47.66147,-38.25044,-0.22824,1.43034,0.91406,,,0.88128,0.46688,0.01887,-0.07080,
8.96094,-311.26538,51.96222,-35.76164,-0.25786,1.44742,0.91309,,,0.89074,0.44828,0.02463,-0.07088,
8.96875,-309.44333,59.21308,-32.22124,-0.31322,1.47035,0.89807,,,0.89973,0.42962,0.03070,-0.07049,
8.97656,-303.18649,64.93557,-30.81910,-0.38024,1.48792,0.88305,,,0.90812,0.41118,0.03704,-0.06983,
8.98438,-298.16727,67.63687,-31.20469,-0.43123,1.51329,0.89662,,,0.91596,0.39288,0.04351,-0.06910,
8.99219,-286.68493,69.16524,-33.72854,-0.52641,1.56550,0.90292,,,0.92308,0.37513,0.05007,-0.06849,
9.00000,-271.73039,68.73871,-40.63408,-0.51669,1.63527,0.92860,,,0.92943,0.35815,0.05670,-0.06835,
9.00781,-264.06404,69.20078,-46.34780,-0.44580,1.68358,0.92036,1023.159,25.8,0.93523,0.34150,0.06344,-0.06856,
9.01563,-249.79706,78.33544,-63.03327,-0.21465,1.83533,0.91842,,,0.94025,0.32562,0.07105,-0.06966,
9.02344,-245.70605,87.47010,-72.32245,-0.16657,1.87193,0.90001,,,0.94477,0.30989,0.07942,-0.07115,
9.03125,-235.77073,102.32724,-86.30879,-0.11510,1.90998,0.84962,,,0.94862,0.29469,0.08896,-0.07326,
9.03906,-226.55736,108.19191,-92.58337,-0.06362,1.98757,0.79147,,,0.95189,0.27998,0.09893,-0.07569,
9.04688,-223.46332,107.44550,-93.03906,-0.06071,2.00660,0.74011,,,0.95479,0.26538,0.10881,-0.07815,
9.05469,-218.30658,97.56443,-88.20168,-0.08547,2.01782,0.69117,,,0.95740,0.25101,0.11790,-0.08049,
9.06250,-215.17816,75.74077,-78.45681,-0.09081,1.93048,0.56761,,,0.95991,0.23673,0.12535,-0.08258,
9.07031,-212.35914,61.63003,-73.58437,-0.06848,1.86656,0.50122,,,0.96227,0.22253,0.13174,-0.08457,
9.07813,-202.18318,31.98682,-65.48701,-0.04517,1.75238,0.36797,,,0.96457,0.20885,0.13598,-0.08655,
9.08594,-188.77566,2.30807,-60.19393,-0.10878,1.70700,0.18578,,,0.96679,0.19589,0.13809,-0.08872,
9.09375,-180.00920,-12.08702,-57.49481,-0.13355,1.69919,0.09323,,,0.96888,0.18341,0.13914,-0.09096,
9.10156,-160.41359,-38.03371,-51.36045,-0.09421,1.69285,-0.11415,,,0.97086,0.17209,0.13825,-0.09330,
9.10938,-138.82405,-48.73228,-48.73144,0.04613,1.69139,-0.24983,,,0.97258,0.16214,0.13647,-0.09578,
9.11719,-127.96052,-46.59967,-49.85315,0.11363,1.67773,-0.30604,,,0.97405,0.15289,0.13476,-0.09840,
9.12500,-105.64903,-31.17383,-57.03912,0.18453,1.59429,-0.39810,,,0.97502,0.14515,0.13399,-0.10154,
9.13281,-79.83096,-13.68647,-67.41495,0.17579,1.49231,-0.44898,,,0.97544,0.13914,0.13429,-0.10542,
9.14063,-66.07966,-8.17724,-71.97191,0.13548,1.45669,-0.43590,,,0.97561,0.13404,0.13490,-0.10968,
9.14844,-36.96128,-9.13691,-76.31854,0.06264,1.40497,-0.40488,,,0.97544,0.13082,0.13526,-0.11449,
9.15625,-8.11792,-24.49167,-73.12868,0.05924,1.36300,-0.35788,,,0.97515,0.12943,0.13435,-0.11950,
9.16406,5.97717,-34.30165,-69.06247,0.07866,1.34251,-0.32106,,,0.97484,0.12892,0.13262,-0.12444,
9.17188,31.48583,-50.79380,-58.37115,0.18113,1.31177,-0.22754,,,0.97451,0.13006,0.12949,-0.12905,
9.17969,42.17747,-55.30781,-52.23679,0.23115,1.28933,-0.17278,,,0.97414,0.13193,0.12590,-0.13338,
9.18750,60.19168,-55.84096,-39.02162,0.28165,1.26054,-0.04486,,,0.97371,0.13509,0.12199,-0.13698,
9.19531,72.87725,-50.33173,-23.84345,0.26271,1.22248,0.08742,,,0.97321,0.13927,0.11818,-0.13963,
9.20313,77.62145,-47.20391,-15.50072,0.23260,1.19564,0.14460,,,0.97269,0.14385,0.11445,-0.14173,
9.21094,84.73775,-41.58805,3.67355,0.21366,1.09659,0.34520,,,0.97220,0.14910,0.11083,-0.14255,
9.21875,108.45875,-9.10137,29.50798,0.34381,0.25489,0.19014,,,0.97142,0.15642,0.10887,-0.14150,
9.22656,128.05435,-3.27225,49.94417,-0.63907,0.65159,0.84768,,,0.97052,0.16524,0.10688,-0.13917,
9.23438,159.54484,-52.49988,91.51762,-0.35693,-0.66926,1.30606,,,0.96989,0.17594,0.10086,-0.13486,
9.24219,164.66720,-59.00433,115.56432,-0.21707,-0.09154,2.49321,,,0.96929,0.18705,0.09404,-0.12905,
9.25000,128.29500,-54.06379,113.25079,-0.12432,-0.10374,1.66415,,,0.96892,0.19576,0.08789,-0.12307,
9.25781,113.06544,-26.19775,96.42511,-0.16948,0.18317,0.27688,,,0.96833,0.20358,0.08392,-0.11772,
9.26563,156.82896,-26.73090,82.85940,-0.16706,0.94386,0.32921,,,0.96689,0.21418,0.07974,-0.11351,
9.27344,169.82394,-25.62906,73.28980,-0.07673,1.32738,0.89323,,,0.96504,0.22556,0.07566,-0.10996,
9.28125,144.96846,-1.81497,41.77670,-0.24912,1.47962,1.61908,,,0.96308,0.23530,0.07380,-0.10798,
9.28906,107.77118,2.66350,23.05813,-0.24184,1.02437,1.26342,,,0.96148,0.24250,0.07281,-0.10696,
9.29688,104.26460,-0.39323,23.05813,-0.03934,0.80480,1.01824,,,0.95990,0.24944,0.07164,-0.10597,
9.30469,115.74694,1.98818,31.78645,0.24231,0.95606,1.24452,,,0.95812,0.25718,0.07039,-0.10442,
9.31250,114.26867,6.50219,35.95782,0.29427,1.09171,1.43931,,,0.95631,0.26486,0.06936,-0.10250,
9.32031,90.78832,13.43316,44.93152,-0.01749,1.22248,1.32399,,,0.95490,0.27108,0.06878,-0.09975,
9.32813,72.80850,8.38599,49.38331,-0.43948,1.04243,1.08026,,,0.95383,0.27611,0.06792,-0.09672,
9.33594,67.54862,5.04491,44.68614,-0.71531,0.97753,1.05846,,,0.95282,0.28074,0.06697,-0.09404,
9.34375,58.61028,-15.78353,28.07078,-0.88576,0.86238,0.98723,,,0.95194,0.28457,0.06503,-0.09278,
9.35156,50.29074,-35.26132,17.97537,-0.30108,0.72429,0.87772,,,0.95122,0.28769,0.06208,-0.09252,
9.35938,47.23107,-37.14513,19.09709,-0.10344,0.69599,0.93490,,,0.95056,0.29060,0.05900,-0.09221,
9.36719,37.46765,-33.66187,24.77575,-0.11412,0.73356,1.16651,,,0.95010,0.29291,0.05609,-0.09142,
9.37500,18.66274,-32.34676,24.10974,-0.32197,0.63109,1.00177,,,0.95000,0.29401,0.05339,-0.09058,
9.38281,14.50297,-34.55046,22.46222,-0.26466,0.63744,0.96009,,,0.94997,0.29482,0.05062,-0.08987,
9.39063,5.15209,-32.98655,17.48462,-0.03497,0.60328,0.99547,,,0.95009,0.29501,0.04810,-0.08942,
9.39844,-0.31405,-24.88265,14.47002,-0.03885,0.53156,0.92085,,,0.95026,0.29488,0.04619,-0.08898,
9.40625,-1.37978,-23.46091,13.69885,-0.07382,0.53058,0.91794,,,0.95044,0.29469,0.04441,-0.08856,
9.41406,-2.30799,-18.91135,10.19350,-0.09713,0.55546,0.81424,,,0.95061,0.29446,0.04299,-0.08827,
9.42188,0.51102,-15.49918,7.31911,-0.03934,0.51399,0.84332,,,0.95069,0.29442,0.04184,-0.08811,
9.42969,1.85178,-10.52311,5.21590,-0.10344,0.52668,0.88305,,,0.95071,0.29449,0.04104,-0.08799,
9.43750,3.50193,-6.04464,1.88582,-0.07528,0.56181,0.87481,,,0.95067,0.29468,0.04059,-0.08799,
9.44531,5.32398,-2.24149,-0.98857,-0.09421,0.61597,0.78759,,,0.95056,0.29501,0.04043,-0.08812,
9.45313,5.87403,-0.99747,-2.25050,-0.01943,0.56181,0.81715,,,0.95043,0.29538,0.04037,-0.08830,
9.46094,7.14603,4.19187,-3.72274,-0.15006,0.50765,0.85688,,,0.95025,0.29586,0.04068,-0.08848,
9.46875,7.55857,2.45024,-3.93306,-0.13695,0.48130,0.85688,,,0.95007,0.29635,0.04087,-0.08870,
9.47656,9.03683,3.23220,-3.26705,-0.12189,0.55693,0.83460,,,0.94986,0.29695,0.04109,-0.08887,
9.48438,9.55251,4.22741,-3.89801,-0.10684,0.53204,0.81957,,,0.94963,0.29758,0.04138,-0.08907,
9.49219,10.48072,6.43110,-4.07328,-0.16657,0.51350,0.87869,,,0.94938,0.29829,0.04182,-0.08923,
9.50000,10.20569,5.86241,-2.84641,-0.17968,0.52228,0.83702,,,0.94913,0.29897,0.04220,-0.08932,
9.50781,9.51813,3.72980,-1.72469,-0.11072,0.57498,0.78566,,,0.94892,0.29961,0.04241,-0.08939,
9.51563,9.51813,4.51176,-1.12878,-0.16657,0.57547,0.81279,,,0.94870,0.30025,0.04267,-0.08940,
9.52344,8.79618,4.04969,-0.91846,-0.18357,0.52326,0.84816,,,0.94851,0.30084,0.04290,-0.08940,
9.53125,8.55554,2.48578,0.09809,-0.13938,0.54131,0.84235,,,0.94832,0.30141,0.04301,-0.08937,
9.53906,7.86797,3.55209,0.34346,-0.12724,0.53399,0.81085,,,0.94815,0.30194,0.04318,-0.08929,
9.54688,7.90235,4.58285,-0.07718,-0.16074,0.56815,0.81037,,,0.94798,0.30248,0.04343,-0.08923,
9.55469,7.14603,5.18708,-0.81330,-0.15152,0.51789,0.84089,,,0.94781,0.30297,0.04374,-0.08919,
9.56250,6.83662,3.83643,-0.77825,-0.09956,0.52570,0.80795,,,0.94765,0.30343,0.04396,-0.08919,
9.57031,6.21781,4.12078,-0.74320,-0.09858,0.53692,0.77693,,,0.94751,0.30385,0.04420,-0.08917,
9.57813,5.90841,4.26296,-0.28750,-0.07042,0.56327,0.78178,,,0.94737,0.30426,0.04445,-0.08912,
9.58594,5.56463,4.86719,-0.21739,-0.16366,0.54375,0.84913,,,0.94724,0.30465,0.04473,-0.08905,
9.59375,5.08333,4.47622,-0.63804,-0.12675,0.50911,0.82539,,,0.94711,0.30500,0.04501,-0.08901,
9.60156,5.04895,6.39556,-0.11223,-0.15637,0.50911,0.83847,,,0.94699,0.30537,0.04539,-0.08890,
9.60938,5.66776,7.49741,0.44862,-0.25204,0.59108,0.82442,,,0.94685,0.30578,0.04583,-0.08873,
9.61719,5.01458,5.57806,1.07959,-0.17094,0.54863,0.84622,,,0.94673,0.30614,0.04614,-0.08856,
9.62500,4.29263,4.51176,1.32496,-0.10198,0.52131,0.79147,,,0.94664,0.30645,0.04638,-0.08840,
9.63281,3.67382,4.83165,1.21980,-0.14763,0.56034,0.76918,,,0.94655,0.30672,0.04664,-0.08823,
9.64063,3.39880,3.90752,2.44667,-0.12966,0.59840,0.77403,,,0.94649,0.30697,0.04682,-0.08800,
9.64844,2.88312,2.80568,2.97248,-0.14666,0.55986,0.79583,,,0.94643,0.30718,0.04692,-0.08776,
9.65625,2.74561,3.01894,2.41162,-0.10878,0.51253,0.80262,,,0.94638,0.30738,0.04705,-0.08755,
9.66406,3.22691,2.69904,3.39312,-0.11170,0.52326,0.81764,,,0.94633,0.30762,0.04713,-0.08728,
9.67188,3.53631,3.97861,3.70860,-0.19425,0.55498,0.81667,,,0.94626,0.30788,0.04729,-0.08697,
9.67969,4.05198,2.98339,3.60344,-0.15394,0.50765,0.83799,,,0.94619,0.30817,0.04739,-0.08669,
9.68750,4.39577,3.62317,4.37462,-0.18405,0.49252,0.83847,,,0.94611,0.30849,0.04750,-0.08634,
9.69531,4.84268,3.83643,4.58494,-0.17288,0.51009,0.83508,,,0.94602,0.30884,0.04762,-0.08598,
9.70313,6.28657,3.80089,5.74170,-0.19085,0.60914,0.81279,,,0.94591,0.30929,0.04771,-0.08555,
9.71094,6.63035,4.58285,4.19935,-0.14180,0.51301,0.83896,,,0.94578,0.30975,0.04788,-0.08521,
9.71875,6.93976,6.50219,3.25290,-0.16171,0.48862,0.83169,,,0.94563,0.31025,0.04819,-0.08488,
9.72656,9.00245,6.25339,3.46322,-0.14180,0.52765,0.82490,,,0.94544,0.31087,0.04847,-0.08456,
9.73438,10.96201,5.96904,3.53333,-0.16123,0.57205,0.81182,,,0.94521,0.31163,0.04872,-0.08424,
9.74219,11.34017,6.21784,2.79721,-0.09373,0.53009,0.80165,,,0.94496,0.31240,0.04899,-0.08397,
9.75000,12.40590,7.56849,2.06108,-0.09130,0.50716,0.81570,,,0.94468,0.31325,0.04936,-0.08371,
9.75781,13.29974,9.09686,2.44667,-0.19619,0.52326,0.83944,,,0.94438,0.31417,0.04982,-0.08341,
9.76563,15.32805,8.99023,2.83226,-0.18599,0.59938,0.77403,,,0.94404,0.31521,0.05025,-0.08308,
9.77344,16.42816,8.17273,2.62194,-0.10441,0.51789,0.81182,,,0.94367,0.31633,0.05063,-0.08279,
9.78125,16.49691,11.54936,1.81571,-0.20688,0.47300,0.83266,,,0.94329,0.31746,0.05124,-0.08249,
9.78906,18.83463,9.66555,0.90432,-0.24038,0.50569,0.83314,,,0.94285,0.31873,0.05174,-0.08228,
9.79688,20.79420,8.27936,1.92087,-0.24961,0.54912,0.79438,,,0.94238,0.32011,0.05211,-0.08205,
9.80469,22.37559,6.11121,1.64044,-0.13501,0.52960,0.80019,,,0.94188,0.32159,0.05234,-0.08190,
9.81250,24.74769,6.28893,0.86927,-0.14812,0.46129,0.79196,,,0.94132,0.32322,0.05259,-0.08179,
9.82031,30.35135,3.80089,0.44862,-0.10975,0.50765,0.80165,,,0.94063,0.32519,0.05265,-0.08179,
9.82813,33.92669,3.72980,1.36001,-0.18988,0.58913,0.79196,,,0.93987,0.32739,0.05267,-0.08174,
9.83594,41.14612,1.66829,1.85076,-0.07333,0.50228,0.81764,,,0.93896,0.33004,0.05251,-0.08173,
9.84375,49.80944,1.38394,0.86927,-0.10150,0.48959,0.81570,,,0.93783,0.33323,0.05230,-0.08182,
9.85156,54.65678,2.37915,1.39507,-0.15200,0.60084,0.81182,,,0.93658,0.33674,0.05212,-0.08187,
9.85938,64.11080,4.01415,1.74560,-0.24330,0.51155,0.85301,,,0.93510,0.34086,0.05197,-0.08190,
9.86719,77.07140,1.41948,2.65699,-0.12772,0.49203,0.87094,,,0.93330,0.34578,0.05157,-0.08196,
9.87500,83.50013,4.19187,2.72710,-0.13063,0.44958,0.85204,,,0.93132,0.35112,0.05131,-0.08198,
9.88281,98.48905,3.01894,3.63849,-0.11510,0.47983,0.81279,,,0.92895,0.35740,0.05086,-0.08202,
9.89063,106.18978,5.04491,4.61999,-0.13792,0.50179,0.73381,,,0.92635,0.36416,0.05047,-0.08198,
9.89844,126.85112,5.47143,5.67160,-0.04857,0.51301,0.78856,,,0.92318,0.37220,0.04996,-0.08191,
9.90625,148.50942,10.66077,6.05718,-0.11607,0.49008,0.90001,,,0.91936,0.38161,0.04965,-0.08176,
