Gait Up - Physilog data export
Created on: YYYY-MM-DD hh:mm:ss
Total data points: 20693

Time [128 hz],Gyro [128 hz],,,Accel [128 hz],,,Baro [1 hz],,Event [128 hz],Quaternion [128 hz],,,,
Time,Gyro X,Gyro Y,Gyro Z,Accel X,Accel Y,Accel Z,Pressure,Temperature,Quat W,Quat X,Quat Y,Quat Z,
[s],[deg/s],[deg/s],[deg/s],[g],[g],[g],[mBar],[degree C],[],[],[],[],
0.00781,0.34443,0.00060,-0.51060,-0.20348,0.92600,0.32670,1021.681,24.4,0.81434,0.56683,0.12460,-0.00445,
0.01563,0.10408,0.07220,-0.54549,-0.18994,0.91726,0.33447,,,0.81434,0.56683,0.12463,-0.00448,
0.02344,0.31010,0.07220,-0.44082,-0.19913,0.92842,0.34371,,,0.81433,0.56685,0.12465,-0.00450,
0.03125,0.31010,0.07220,-0.44082,-0.20784,0.91484,0.33350,,,0.81431,0.56686,0.12467,-0.00453,
0.03906,0.34443,0.07220,-0.54549,-0.20590,0.91096,0.32816,,,0.81430,0.56688,0.12469,-0.00456,
0.04688,0.37877,-0.03520,-0.61528,-0.19865,0.92600,0.33350,,,0.81428,0.56689,0.12472,-0.00460,
0.05469,0.34443,0.07220,-0.65017,-0.18897,0.93522,0.34225,,,0.81427,0.56690,0.12475,-0.00463,
0.06250,0.27576,0.03640,-0.44082,-0.19188,0.91678,0.33739,,,0.81426,0.56692,0.12476,-0.00466,
0.07031,0.31010,0.00060,-0.40592,-0.20348,0.91678,0.33691,,,0.81425,0.56693,0.12478,-0.00468,
0.07813,0.41310,-0.03520,-0.54549,-0.20784,0.92357,0.32670,,,0.81423,0.56695,0.12480,-0.00472,
0.08594,0.34443,0.03640,-0.54549,-0.19478,0.92115,0.34079,,,0.81422,0.56696,0.12482,-0.00475,
0.09375,0.13842,0.07220,-0.40592,-0.20445,0.91921,0.33010,,,0.81421,0.56697,0.12484,-0.00477,
0.10156,0.20709,0.07220,-0.47571,-0.19139,0.91338,0.33593,,,0.81420,0.56697,0.12486,-0.00480,
0.10938,0.27576,0.03640,-0.40592,-0.20687,0.92988,0.33545,,,0.81419,0.56699,0.12488,-0.00482,
0.11719,0.27576,-0.03520,-0.44082,-0.20929,0.92066,0.34128,,,0.81418,0.56700,0.12490,-0.00485,
0.12500,0.37877,0.03640,-0.47571,-0.20252,0.92406,0.32329,,,0.81417,0.56702,0.12492,-0.00488,
0.13281,0.24142,-0.03520,-0.40592,-0.18801,0.91484,0.33934,,,0.81416,0.56703,0.12493,-0.00490,
0.14063,0.27576,0.03640,-0.44082,-0.20639,0.91872,0.32670,,,0.81415,0.56704,0.12495,-0.00493,
0.14844,0.20709,0.10799,-0.47571,-0.20058,0.91775,0.33350,,,0.81414,0.56704,0.12497,-0.00495,
0.15625,0.20709,0.03640,-0.51060,-0.19816,0.92018,0.32816,,,0.81413,0.56705,0.12500,-0.00498,
0.16406,0.20709,0.10799,-0.65017,-0.20300,0.92163,0.33691,,,0.81412,0.56706,0.12503,-0.00502,
0.17188,0.34443,0.14379,-0.58039,-0.20494,0.92939,0.33788,,,0.81410,0.56707,0.12506,-0.00505,
0.17969,0.10408,0.07220,-0.65017,-0.19429,0.92260,0.34079,,,0.81410,0.56707,0.12509,-0.00508,
0.18750,0.10408,0.03640,-0.58039,-0.19284,0.92115,0.33836,,,0.81409,0.56707,0.12511,-0.00511,
0.19531,0.13842,0.03640,-0.54549,-0.19768,0.91387,0.32718,,,0.81409,0.56708,0.12513,-0.00514,
0.20313,0.34443,0.14379,-0.54549,-0.20058,0.92745,0.33204,,,0.81407,0.56709,0.12516,-0.00517,
0.21094,0.13842,-0.10679,-0.54549,-0.20058,0.91484,0.32378,,,0.81407,0.56709,0.12518,-0.00520,
0.21875,0.10408,0.10799,-0.37103,-0.19671,0.92551,0.34565,,,0.81406,0.56710,0.12520,-0.00522,
0.22656,0.13842,0.00060,-0.37103,-0.19284,0.91775,0.33545,,,0.81406,0.56710,0.12521,-0.00524,
0.23438,0.27576,0.10799,-0.44082,-0.18704,0.92988,0.33934,,,0.81405,0.56711,0.12524,-0.00527,
0.24219,0.20709,0.14379,-0.54549,-0.20300,0.91532,0.33107,,,0.81404,0.56712,0.12526,-0.00529,
0.25000,0.27576,0.03640,-0.47571,-0.20445,0.93279,0.34274,,,0.81403,0.56713,0.12528,-0.00532,
0.25781,0.24142,0.03640,-0.33614,-0.19575,0.92503,0.32816,,,0.81402,0.56714,0.12530,-0.00534,
0.26563,0.44744,0.03640,-0.44082,-0.19091,0.93231,0.33885,,,0.81400,0.56716,0.12532,-0.00537,
0.27344,0.17275,-0.03520,-0.51060,-0.20203,0.91775,0.33010,,,0.81399,0.56717,0.12534,-0.00540,
0.28125,0.24142,0.03640,-0.58039,-0.20203,0.92454,0.33739,,,0.81398,0.56718,0.12536,-0.00543,
0.28906,0.20709,0.00060,-0.61528,-0.20058,0.90416,0.32329,,,0.81397,0.56718,0.12538,-0.00547,
0.29688,0.31010,0.03640,-0.58039,-0.19671,0.91921,0.33302,,,0.81396,0.56719,0.12541,-0.00550,
0.30469,0.10408,-0.07100,-0.51060,-0.20107,0.92600,0.33836,,,0.81396,0.56720,0.12542,-0.00553,
0.31250,0.31010,0.00060,-0.68507,-0.19333,0.93133,0.34760,,,0.81395,0.56721,0.12545,-0.00557,
0.32031,0.20709,0.14379,-0.54549,-0.20010,0.92454,0.33496,,,0.81394,0.56721,0.12548,-0.00560,
0.32813,0.20709,0.07220,-0.51060,-0.20203,0.90659,0.33788,,,0.81393,0.56722,0.12550,-0.00563,
0.33594,0.27576,0.28698,-0.58039,-0.21026,0.92891,0.32961,,,0.81391,0.56723,0.12554,-0.00565,
0.34375,0.17275,0.03640,-0.54549,-0.19913,0.92406,0.33156,,,0.81391,0.56724,0.12556,-0.00568,
0.35156,0.17275,0.03640,-0.47571,-0.19961,0.93133,0.33059,,,0.81390,0.56724,0.12559,-0.00571,
0.35938,0.24142,0.00060,-0.40592,-0.19526,0.91726,0.33836,,,0.81389,0.56725,0.12560,-0.00573,
0.36719,0.20709,0.14379,-0.54549,-0.19575,0.92357,0.33593,,,0.81388,0.56726,0.12563,-0.00576,
0.37500,0.20709,0.00060,-0.58039,-0.19671,0.91144,0.33642,,,0.81387,0.56727,0.12565,-0.00579,
0.38281,0.17275,0.10799,-0.65017,-0.20252,0.91921,0.32767,,,0.81386,0.56727,0.12568,-0.00582,
0.39063,0.24142,0.07220,-0.58039,-0.19381,0.91532,0.32718,,,0.81385,0.56728,0.12571,-0.00586,
0.39844,0.24142,0.14379,-0.58039,-0.20203,0.93376,0.32913,,,0.81384,0.56729,0.12574,-0.00588,
0.40625,0.13842,0.07220,-0.51060,-0.20397,0.91387,0.33691,,,0.81384,0.56729,0.12576,-0.00591,
0.41406,0.17275,0.07220,-0.61528,-0.20832,0.92115,0.34128,,,0.81383,0.56729,0.12579,-0.00594,
0.42188,0.10408,0.03640,-0.47571,-0.20203,0.91581,0.32816,,,0.81383,0.56730,0.12581,-0.00597,
0.42969,0.13842,0.07220,-0.54549,-0.19623,0.93182,0.33885,,,0.81382,0.56730,0.12584,-0.00600,
0.43750,0.00107,0.10799,-0.47571,-0.19381,0.92018,0.33836,,,0.81382,0.56729,0.12586,-0.00602,
0.44531,0.13842,0.07220,-0.47571,-0.20445,0.91775,0.34225,,,0.81381,0.56730,0.12588,-0.00605,
0.45313,0.27576,0.00060,-0.51060,-0.20300,0.92115,0.32718,,,0.81380,0.56731,0.12590,-0.00608,
0.46094,0.24142,0.03640,-0.47571,-0.20010,0.92503,0.33885,,,0.81379,0.56732,0.12592,-0.00610,
0.46875,0.13842,0.07220,-0.54549,-0.19381,0.92600,0.32913,,,0.81378,0.56732,0.12595,-0.00613,
0.47656,0.27576,0.07220,-0.47571,-0.19333,0.92018,0.33496,,,0.81377,0.56733,0.12597,-0.00616,
0.48438,0.17275,0.00060,-0.51060,-0.18994,0.92406,0.33836,,,0.81377,0.56734,0.12599,-0.00619,
0.49219,0.27576,0.07220,-0.58039,-0.20348,0.91921,0.33059,,,0.81375,0.56735,0.12602,-0.00622,
0.50000,0.06975,0.03640,-0.51060,-0.19526,0.92357,0.33691,,,0.81375,0.56735,0.12604,-0.00625,
0.50781,0.06975,0.17959,-0.58039,-0.19623,0.93085,0.35295,,,0.81375,0.56735,0.12607,-0.00627,
0.51563,0.27576,-0.14259,-0.58039,-0.20010,0.93376,0.33302,,,0.81374,0.56736,0.12609,-0.00631,
0.52344,0.31010,0.00060,-0.54549,-0.19139,0.92357,0.33399,,,0.81373,0.56737,0.12611,-0.00635,
0.53125,0.03541,0.17959,-0.61528,-0.19913,0.91872,0.32864,,,0.81372,0.56737,0.12614,-0.00637,
0.53906,0.06975,0.14379,-0.40592,-0.20252,0.92163,0.34079,,,0.81372,0.56737,0.12616,-0.00639,
0.54688,0.03541,0.17959,-0.33614,-0.19961,0.91435,0.33107,,,0.81371,0.56737,0.12619,-0.00640,
0.55469,0.13842,0.10799,-0.51060,-0.19961,0.91338,0.33739,,,0.81371,0.56737,0.12621,-0.00643,
0.56250,0.10408,0.10799,-0.65017,-0.20155,0.92212,0.33788,,,0.81370,0.56737,0.12624,-0.00646,
0.57031,0.06975,0.10799,-0.58039,-0.19139,0.92454,0.33691,,,0.81370,0.56737,0.12627,-0.00649,
0.57813,0.20709,0.10799,-0.40592,-0.20397,0.91387,0.33982,,,0.81369,0.56738,0.12629,-0.00651,
0.58594,0.31010,0.00060,-0.47571,-0.20010,0.92406,0.33107,,,0.81368,0.56739,0.12631,-0.00654,
0.59375,0.27576,0.03640,-0.58039,-0.20639,0.91872,0.32961,,,0.81367,0.56740,0.12634,-0.00657,
0.60156,0.20709,0.10799,-0.65017,-0.19720,0.92891,0.33739,,,0.81366,0.56741,0.12637,-0.00661,
0.60938,0.24142,0.10799,-0.47571,-0.19526,0.92357,0.34614,,,0.81365,0.56742,0.12639,-0.00663,
0.61719,0.34443,0.14379,-0.54549,-0.19575,0.92212,0.32816,,,0.81363,0.56743,0.12642,-0.00666,
0.62500,0.24142,0.17959,-0.75485,-0.21122,0.92115,0.33934,,,0.81362,0.56744,0.12646,-0.00669,
0.63281,0.10408,0.00060,-0.71996,-0.19526,0.91338,0.33204,,,0.81362,0.56744,0.12649,-0.00674,
0.64063,0.20709,0.03640,-0.58039,-0.19381,0.92891,0.33496,,,0.81361,0.56744,0.12651,-0.00677,
0.64844,0.17275,-0.07100,-0.61528,-0.19284,0.91629,0.32524,,,0.81360,0.56745,0.12653,-0.00681,
0.65625,0.20709,0.07220,-0.58039,-0.20010,0.92600,0.33399,,,0.81359,0.56745,0.12656,-0.00684,
0.66406,0.03541,0.03640,-0.65017,-0.20397,0.91241,0.32961,,,0.81359,0.56745,0.12658,-0.00687,
0.67188,0.10408,0.07220,-0.54549,-0.20784,0.91532,0.33010,,,0.81359,0.56745,0.12661,-0.00690,
0.67969,0.10408,0.00060,-0.51060,-0.19526,0.92551,0.33399,,,0.81358,0.56745,0.12663,-0.00693,
0.68750,0.24142,0.00060,-0.65017,-0.19671,0.93182,0.34128,,,0.81357,0.56746,0.12665,-0.00697,
0.69531,0.10408,-0.03520,-0.58039,-0.19429,0.91726,0.33691,,,0.81357,0.56746,0.12668,-0.00700,
0.70313,0.17275,0.07220,-0.54549,-0.20639,0.90902,0.33059,,,0.81356,0.56747,0.12670,-0.00703,
0.71094,0.10408,0.07220,-0.51060,-0.20542,0.91872,0.33302,,,0.81356,0.56747,0.12672,-0.00706,
0.71875,0.10408,0.03640,-0.47571,-0.19768,0.91872,0.33982,,,0.81355,0.56747,0.12674,-0.00708,
0.72656,0.10408,0.00060,-0.71996,-0.18704,0.93231,0.33545,,,0.81355,0.56747,0.12677,-0.00712,
0.73438,0.06975,0.03640,-0.61528,-0.19284,0.91629,0.33350,,,0.81354,0.56747,0.12680,-0.00716,
0.74219,0.06975,-0.03520,-0.51060,-0.19381,0.91290,0.32572,,,0.81354,0.56747,0.12682,-0.00719,
0.75000,0.20709,0.00060,-0.54549,-0.20880,0.91629,0.32961,,,0.81353,0.56747,0.12684,-0.00722,
0.75781,0.10408,0.07220,-0.65017,-0.20445,0.91532,0.33496,,,0.81353,0.56747,0.12687,-0.00725,
0.76563,0.20709,0.14379,-0.68507,-0.19623,0.93279,0.34760,,,0.81352,0.56748,0.12690,-0.00729,
0.77344,0.27576,0.14379,-0.65017,-0.19623,0.93279,0.33447,,,0.81351,0.56749,0.12693,-0.00732,
0.78125,0.13842,0.00060,-0.47571,-0.19865,0.91629,0.33253,,,0.81350,0.56749,0.12695,-0.00735,
0.78906,0.17275,0.07220,-0.51060,-0.19913,0.92794,0.32767,,,0.81349,0.56750,0.12698,-0.00738,
0.79688,0.17275,0.07220,-0.47571,-0.20639,0.91726,0.33010,,,0.81348,0.56750,0.12700,-0.00740,
0.80469,-0.03326,0.00060,-0.51060,-0.19768,0.91532,0.33350,,,0.81349,0.56750,0.12702,-0.00743,
0.81250,0.03541,0.10799,-0.54549,-0.19816,0.92212,0.34031,,,0.81348,0.56749,0.12704,-0.00746,
0.82031,0.17275,0.25118,-0.30124,-0.19623,0.91969,0.33691,,,0.81347,0.56750,0.12707,-0.00746,
0.82813,0.24142,0.03640,-0.37103,-0.19816,0.92212,0.33836,,,0.81346,0.56751,0.12709,-0.00749,
0.83594,0.17275,0.07220,-0.40592,-0.19623,0.91678,0.33934,,,0.81346,0.56752,0.12711,-0.00751,
0.84375,0.10408,0.00060,-0.58039,-0.19188,0.92503,0.33156,,,0.81345,0.56752,0.12713,-0.00754,
0.85156,0.31010,0.07220,-0.51060,-0.20107,0.92212,0.34225,,,0.81344,0.56753,0.12715,-0.00757,
0.85938,0.13842,0.10799,-0.65017,-0.19623,0.93570,0.33982,,,0.81343,0.56753,0.12718,-0.00760,
0.86719,0.10408,0.03640,-0.54549,-0.19623,0.91726,0.33788,,,0.81343,0.56753,0.12721,-0.00763,
0.87500,0.17275,0.10799,-0.51060,-0.20010,0.91338,0.33059,,,0.81342,0.56754,0.12723,-0.00766,
0.88281,0.34443,0.07220,-0.61528,-0.20639,0.91581,0.33691,,,0.81341,0.56755,0.12726,-0.00769,
0.89063,0.31010,0.07220,-0.54549,-0.19865,0.92600,0.33496,,,0.81339,0.56757,0.12728,-0.00772,
0.89844,0.20709,0.14379,-0.58039,-0.19381,0.92406,0.34565,,,0.81338,0.56757,0.12731,-0.00775,
0.90625,0.24142,0.10799,-0.37103,-0.20203,0.91484,0.33204,,,0.81337,0.56758,0.12733,-0.00777,
0.91406,0.27576,0.17959,-0.47571,-0.19236,0.92503,0.33156,,,0.81336,0.56759,0.12736,-0.00779,
0.92188,0.17275,0.07220,-0.47571,-0.19671,0.90853,0.32961,,,0.81335,0.56760,0.12739,-0.00781,
0.92969,0.13842,0.00060,-0.47571,-0.20735,0.91872,0.34565,,,0.81335,0.56760,0.12740,-0.00784,
0.93750,0.17275,0.03640,-0.44082,-0.19333,0.92988,0.33885,,,0.81334,0.56761,0.12742,-0.00787,
0.94531,0.20709,0.10799,-0.47571,-0.19720,0.93133,0.34371,,,0.81333,0.56762,0.12745,-0.00789,
0.95313,0.10408,-0.07100,-0.58039,-0.19768,0.91532,0.34128,,,0.81333,0.56762,0.12747,-0.00793,
0.96094,0.27576,0.00060,-0.47571,-0.19865,0.91581,0.33496,,,0.81332,0.56763,0.12748,-0.00796,
0.96875,0.27576,0.03640,-0.47571,-0.20397,0.91678,0.33350,,,0.81330,0.56764,0.12750,-0.00798,
0.97656,0.20709,0.14379,-0.58039,-0.19381,0.92648,0.33010,,,0.81330,0.56765,0.12753,-0.00801,
0.98438,0.17275,0.07220,-0.65017,-0.19671,0.92794,0.33156,,,0.81329,0.56765,0.12756,-0.00805,
0.99219,0.06975,0.07220,-0.68507,-0.19720,0.91969,0.33350,,,0.81328,0.56765,0.12759,-0.00808,
1.00000,0.24142,0.17959,-0.47571,-0.20203,0.92260,0.32961,,,0.81327,0.56766,0.12762,-0.00810,
1.00781,0.10408,0.07220,-0.61528,-0.20107,0.92309,0.34031,1021.701,24.4,0.81327,0.56766,0.12765,-0.00814,
1.01563,0.13842,0.03640,-0.61528,-0.20397,0.92018,0.34420,,,0.81326,0.56766,0.12768,-0.00817,
1.02344,0.27576,0.07220,-0.68507,-0.19333,0.92260,0.34857,,,0.81325,0.56767,0.12771,-0.00821,
1.03125,0.20709,0.10799,-0.54549,-0.19623,0.92794,0.33982,,,0.81324,0.56768,0.12773,-0.00823,
1.03906,0.27576,-0.10679,-0.58039,-0.20010,0.92454,0.32767,,,0.81323,0.56769,0.12775,-0.00827,
1.04688,0.13842,0.17959,-0.54549,-0.20058,0.92309,0.33545,,,0.81322,0.56769,0.12778,-0.00830,
1.05469,0.17275,0.10799,-0.61528,-0.20590,0.92939,0.33447,,,0.81322,0.56769,0.12781,-0.00833,
1.06250,0.17275,0.10799,-0.51060,-0.19526,0.92697,0.34711,,,0.81321,0.56770,0.12784,-0.00835,
1.07031,0.17275,0.10799,-0.47571,-0.19913,0.91872,0.33350,,,0.81320,0.56770,0.12786,-0.00838,
1.07813,0.03541,0.17959,-0.58039,-0.20203,0.91775,0.33642,,,0.81320,0.56770,0.12789,-0.00840,
1.08594,0.13842,0.21539,-0.61528,-0.20784,0.91969,0.33691,,,0.81319,0.56770,0.12793,-0.00843,
1.09375,0.20709,-0.10679,-0.65017,-0.19913,0.91435,0.33642,,,0.81318,0.56771,0.12795,-0.00847,
1.10156,0.24142,0.03640,-0.51060,-0.19913,0.92551,0.32913,,,0.81317,0.56772,0.12797,-0.00850,
1.10938,0.24142,0.21539,-0.40592,-0.20058,0.92551,0.34177,,,0.81316,0.56773,0.12800,-0.00852,
1.11719,0.06975,-0.07100,-0.47571,-0.20687,0.92260,0.32621,,,0.81316,0.56773,0.12801,-0.00855,
1.12500,0.13842,0.00060,-0.37103,-0.20300,0.91096,0.34177,,,0.81315,0.56773,0.12802,-0.00857,
1.13281,0.17275,0.07220,-0.30124,-0.20494,0.90999,0.32670,,,0.81314,0.56774,0.12804,-0.00859,
1.14063,0.24142,-0.14259,-0.47571,-0.19768,0.92794,0.33982,,,0.81314,0.56775,0.12805,-0.00862,
1.14844,0.34443,0.10799,-0.58039,-0.19865,0.93764,0.34031,,,0.81312,0.56776,0.12808,-0.00865,
1.15625,0.27576,0.07220,-0.44082,-0.19188,0.92309,0.33934,,,0.81311,0.56777,0.12810,-0.00867,
1.16406,0.17275,0.17959,-0.51060,-0.19913,0.91338,0.33253,,,0.81310,0.56778,0.12813,-0.00870,
1.17188,0.31010,0.00060,-0.58039,-0.19865,0.92018,0.33593,,,0.81309,0.56779,0.12815,-0.00873,
1.17969,0.17275,0.07220,-0.51060,-0.19768,0.92066,0.33204,,,0.81308,0.56780,0.12818,-0.00876,
1.18750,0.24142,-0.03520,-0.51060,-0.19284,0.92163,0.34614,,,0.81307,0.56781,0.12819,-0.00879,
1.19531,0.31010,0.03640,-0.47571,-0.18994,0.93036,0.33836,,,0.81306,0.56782,0.12821,-0.00882,
1.20313,0.24142,-0.03520,-0.47571,-0.20058,0.91824,0.33156,,,0.81305,0.56783,0.12823,-0.00885,
1.21094,0.03541,0.10799,-0.40592,-0.20494,0.90902,0.33934,,,0.81305,0.56783,0.12825,-0.00887,
1.21875,0.17275,0.17959,-0.54549,-0.20445,0.91726,0.33350,,,0.81304,0.56783,0.12828,-0.00889,
1.22656,0.20709,0.10799,-0.51060,-0.19816,0.93036,0.34468,,,0.81303,0.56784,0.12831,-0.00892,
1.23438,0.10408,0.14379,-0.37103,-0.20252,0.92648,0.33156,,,0.81302,0.56784,0.12833,-0.00893,
1.24219,0.20709,0.17959,-0.51060,-0.20639,0.92794,0.34128,,,0.81301,0.56785,0.12836,-0.00896,
1.25000,0.00107,0.21539,-0.47571,-0.19961,0.91532,0.32670,,,0.81301,0.56784,0.12839,-0.00897,
1.25781,0.24142,0.07220,-0.47571,-0.19865,0.91532,0.33836,,,0.81300,0.56785,0.12841,-0.00900,
1.26563,0.20709,-0.07100,-0.40592,-0.19623,0.92357,0.34420,,,0.81299,0.56786,0.12842,-0.00903,
1.27344,0.27576,0.25118,-0.09188,-0.19961,0.92745,0.35149,,,0.81298,0.56788,0.12844,-0.00903,
1.28125,0.34443,0.14379,0.04769,-0.19091,0.91678,0.33545,,,0.81297,0.56790,0.12845,-0.00902,
1.28906,0.55045,0.10799,0.57109,-0.20542,0.91726,0.34517,,,0.81294,0.56793,0.12843,-0.00899,
1.29688,0.37877,0.14379,-0.30124,-0.19816,0.92503,0.32767,,,0.81293,0.56795,0.12845,-0.00900,
1.30469,0.17275,0.21539,-0.58039,-0.19671,0.92745,0.33010,,,0.81292,0.56796,0.12848,-0.00903,
1.31250,0.17275,0.14379,-0.78975,-0.20639,0.91872,0.34225,,,0.81291,0.56796,0.12852,-0.00907,
1.32031,0.17275,0.03640,-0.54549,-0.19236,0.92212,0.33788,,,0.81290,0.56796,0.12855,-0.00910,
1.32813,0.24142,0.07220,-0.51060,-0.19284,0.92406,0.33593,,,0.81289,0.56797,0.12857,-0.00913,
1.33594,0.20709,0.25118,-0.54549,-0.20494,0.91581,0.33010,,,0.81288,0.56798,0.12860,-0.00915,
1.34375,0.20709,0.10799,-0.61528,-0.20445,0.92406,0.33691,,,0.81287,0.56798,0.12863,-0.00918,
1.35156,0.17275,0.10799,-0.51060,-0.19720,0.91678,0.33691,,,0.81287,0.56799,0.12866,-0.00921,
1.35938,0.17275,0.00060,-0.44082,-0.19768,0.92842,0.33204,,,0.81286,0.56800,0.12868,-0.00923,
1.36719,0.06975,0.10799,-0.47571,-0.19768,0.91726,0.33642,,,0.81285,0.56800,0.12870,-0.00925,
1.37500,0.10408,0.03640,-0.58039,-0.20397,0.91969,0.32767,,,0.81285,0.56800,0.12873,-0.00929,
1.38281,0.10408,-0.03520,-0.40592,-0.19720,0.90853,0.33691,,,0.81285,0.56800,0.12874,-0.00931,
1.39063,0.34443,-0.03520,-0.37103,-0.20735,0.91581,0.32135,,,0.81283,0.56801,0.12875,-0.00934,
1.39844,0.24142,0.07220,-0.33614,-0.19042,0.92066,0.34177,,,0.81282,0.56802,0.12877,-0.00935,
1.40625,0.20709,0.03640,-0.58039,-0.19236,0.92842,0.34565,,,0.81281,0.56803,0.12879,-0.00939,
1.41406,0.24142,0.03640,-0.61528,-0.19913,0.92115,0.34177,,,0.81280,0.56804,0.12882,-0.00942,
1.42188,0.27576,0.14379,-0.54549,-0.19623,0.91921,0.33496,,,0.81279,0.56805,0.12885,-0.00945,
1.42969,0.17275,0.25118,-0.61528,-0.20107,0.92503,0.33350,,,0.81278,0.56805,0.12888,-0.00947,
1.43750,0.17275,0.14379,-0.51060,-0.20010,0.92842,0.33350,,,0.81277,0.56806,0.12891,-0.00950,
1.44531,0.06975,0.03640,-0.58039,-0.19236,0.91969,0.33593,,,0.81277,0.56806,0.12894,-0.00953,
1.45313,0.20709,0.03640,-0.44082,-0.19768,0.91969,0.34225,,,0.81276,0.56807,0.12896,-0.00955,
1.46094,0.17275,0.07220,-0.44082,-0.20203,0.91629,0.33156,,,0.81275,0.56807,0.12898,-0.00958,
1.46875,0.06975,0.10799,-0.51060,-0.19526,0.91629,0.33302,,,0.81275,0.56807,0.12900,-0.00960,
1.47656,0.24142,0.03640,-0.58039,-0.20687,0.91824,0.32961,,,0.81274,0.56808,0.12903,-0.00964,
1.48438,0.06975,0.17959,-0.54549,-0.19284,0.92891,0.33934,,,0.81274,0.56808,0.12906,-0.00966,
1.49219,0.34443,0.10799,-0.30124,-0.19526,0.93425,0.34225,,,0.81272,0.56809,0.12907,-0.00968,
1.50000,0.13842,0.14379,-0.44082,-0.20348,0.92939,0.34565,,,0.81271,0.56810,0.12910,-0.00970,
1.50781,0.17275,0.17959,-0.61528,-0.20203,0.92212,0.32670,,,0.81270,0.56810,0.12913,-0.00972,
1.51563,0.17275,-0.03520,-0.54549,-0.19188,0.92115,0.34322,,,0.81270,0.56811,0.12915,-0.00976,
1.52344,0.27576,0.10799,-0.54549,-0.19961,0.92454,0.32718,,,0.81269,0.56812,0.12918,-0.00979,
1.53125,0.10408,0.03640,-0.51060,-0.19671,0.92018,0.34079,,,0.81268,0.56812,0.12920,-0.00981,
1.53906,0.17275,0.21539,-0.47571,-0.21122,0.91969,0.33010,,,0.81267,0.56812,0.12923,-0.00983,
1.54688,0.17275,0.03640,-0.54549,-0.20252,0.91629,0.33399,,,0.81267,0.56813,0.12925,-0.00986,
1.55469,0.20709,-0.03520,-0.51060,-0.19816,0.92357,0.32816,,,0.81266,0.56814,0.12927,-0.00989,
1.56250,0.10408,-0.03520,-0.61528,-0.19913,0.93133,0.32232,,,0.81265,0.56814,0.12929,-0.00993,
1.57031,0.03541,0.21539,-0.51060,-0.19284,0.93522,0.34177,,,0.81265,0.56813,0.12933,-0.00995,
1.57813,0.17275,0.07220,-0.44082,-0.20155,0.92066,0.33982,,,0.81264,0.56814,0.12935,-0.00997,
1.58594,0.24142,0.17959,-0.47571,-0.20300,0.91775,0.34079,,,0.81263,0.56815,0.12937,-0.01000,
1.59375,0.27576,0.10799,-0.44082,-0.20735,0.92115,0.32232,,,0.81262,0.56816,0.12940,-0.01002,
1.60156,0.17275,0.07220,-0.58039,-0.19671,0.92745,0.34371,,,0.81261,0.56817,0.12942,-0.01005,
1.60938,0.06975,0.07220,-0.54549,-0.19042,0.91824,0.33788,,,0.81261,0.56816,0.12945,-0.01008,
1.61719,0.34443,0.14379,-0.51060,-0.19333,0.92842,0.34371,,,0.81259,0.56818,0.12948,-0.01010,
1.62500,0.24142,0.07220,-0.61528,-0.20832,0.92115,0.33399,,,0.81258,0.56819,0.12950,-0.01014,
1.63281,0.20709,0.10799,-0.68507,-0.20929,0.92163,0.32961,,,0.81257,0.56819,0.12954,-0.01017,
1.64063,0.13842,0.07220,-0.51060,-0.19913,0.91775,0.33107,,,0.81257,0.56820,0.12956,-0.01020,
1.64844,0.10408,0.10799,-0.51060,-0.18752,0.92988,0.34322,,,0.81256,0.56820,0.12959,-0.01022,
1.65625,0.13842,0.14379,-0.61528,-0.19623,0.93085,0.35052,,,0.81255,0.56820,0.12962,-0.01025,
1.66406,0.06975,0.10799,-0.51060,-0.20397,0.92357,0.34322,,,0.81255,0.56820,0.12964,-0.01028,
1.67188,0.17275,0.07220,-0.51060,-0.20155,0.92115,0.33010,,,0.81254,0.56820,0.12967,-0.01031,
1.67969,0.27576,0.25118,-0.54549,-0.20058,0.92260,0.33496,,,0.81253,0.56821,0.12970,-0.01033,
1.68750,0.20709,0.14379,-0.51060,-0.19575,0.93570,0.34225,,,0.81252,0.56822,0.12973,-0.01035,
1.69531,0.17275,0.17959,-0.54549,-0.19091,0.93279,0.35489,,,0.81251,0.56823,0.12976,-0.01038,
1.70313,0.13842,0.14379,-0.47571,-0.19478,0.91338,0.32767,,,0.81250,0.56823,0.12979,-0.01040,
1.71094,0.20709,0.10799,-0.51060,-0.19188,0.90756,0.34225,,,0.81249,0.56824,0.12981,-0.01043,
1.71875,0.20709,0.03640,-0.58039,-0.20252,0.91532,0.31795,,,0.81249,0.56824,0.12984,-0.01046,
1.72656,0.13842,0.10799,-0.68507,-0.19913,0.92018,0.34225,,,0.81248,0.56825,0.12987,-0.01049,
1.73438,0.24142,0.00060,-0.61528,-0.18946,0.92794,0.33545,,,0.81247,0.56825,0.12989,-0.01053,
1.74219,0.34443,0.07220,-0.47571,-0.19333,0.92794,0.34663,,,0.81245,0.56827,0.12991,-0.01056,
1.75000,0.24142,0.10799,-0.54549,-0.20252,0.92794,0.33059,,,0.81244,0.56828,0.12994,-0.01058,
1.75781,0.20709,0.07220,-0.68507,-0.20058,0.92794,0.34031,,,0.81243,0.56828,0.12997,-0.01062,
1.76563,0.20709,0.17959,-0.71996,-0.20687,0.91144,0.31843,,,0.81242,0.56829,0.13001,-0.01066,
1.77344,0.20709,0.14379,-0.47571,-0.19333,0.92357,0.34420,,,0.81241,0.56830,0.13004,-0.01068,
1.78125,0.06975,0.14379,-0.58039,-0.19429,0.92406,0.33496,,,0.81241,0.56829,0.13007,-0.01071,
1.78906,0.10408,0.25118,-0.71996,-0.19816,0.91824,0.33982,,,0.81240,0.56829,0.13011,-0.01074,
1.79688,0.31010,0.03640,-0.54549,-0.21558,0.92745,0.32718,,,0.81239,0.56831,0.13013,-0.01077,
1.80469,0.17275,0.00060,-0.37103,-0.20348,0.91532,0.33496,,,0.81238,0.56831,0.13015,-0.01079,
1.81250,0.31010,-0.10679,-0.47571,-0.18704,0.92551,0.33447,,,0.81237,0.56832,0.13016,-0.01082,
1.82031,0.00107,-0.07100,-0.47571,-0.18849,0.92018,0.33447,,,0.81237,0.56832,0.13017,-0.01085,
1.82813,0.17275,0.07220,-0.47571,-0.19720,0.93231,0.34711,,,0.81236,0.56833,0.13019,-0.01088,
1.83594,0.34443,-0.07100,-0.65017,-0.20252,0.91678,0.33010,,,0.81235,0.56834,0.13022,-0.01092,
1.84375,0.10408,0.03640,-0.58039,-0.20348,0.91144,0.33642,,,0.81235,0.56834,0.13024,-0.01095,
1.85156,0.31010,0.07220,-0.65017,-0.20058,0.92794,0.33447,,,0.81233,0.56835,0.13027,-0.01099,
1.85938,0.17275,0.17959,-0.65017,-0.19429,0.93231,0.35149,,,0.81232,0.56836,0.13030,-0.01102,
1.86719,0.13842,0.00060,-0.61528,-0.19478,0.91678,0.34906,,,0.81232,0.56836,0.13033,-0.01105,
1.87500,0.37877,0.07220,-0.68507,-0.20203,0.91726,0.33204,,,0.81230,0.56837,0.13036,-0.01109,
1.88281,0.13842,-0.03520,-0.68507,-0.20639,0.90950,0.32961,,,0.81230,0.56837,0.13038,-0.01113,
1.89063,0.13842,-0.07100,-0.65017,-0.20155,0.92115,0.34079,,,0.81229,0.56838,0.13040,-0.01117,
1.89844,0.31010,-0.03520,-0.47571,-0.18752,0.93036,0.34468,,,0.81228,0.56839,0.13042,-0.01120,
1.90625,0.20709,0.14379,-0.47571,-0.19139,0.92212,0.33934,,,0.81227,0.56840,0.13045,-0.01122,
1.91406,0.20709,0.07220,-0.51060,-0.19381,0.92309,0.33302,,,0.81226,0.56840,0.13047,-0.01125,
1.92188,0.06975,0.00060,-0.71996,-0.19865,0.91921,0.33788,,,0.81226,0.56840,0.13050,-0.01129,
1.92969,0.20709,0.07220,-0.71996,-0.19236,0.93133,0.34128,,,0.81225,0.56841,0.13053,-0.01133,
1.93750,0.17275,0.10799,-0.61528,-0.19768,0.92406,0.33496,,,0.81224,0.56841,0.13056,-0.01136,
1.94531,0.27576,-0.03520,-0.51060,-0.19865,0.93182,0.34225,,,0.81223,0.56842,0.13058,-0.01139,
1.95313,0.10408,0.17959,-0.71996,-0.19381,0.90853,0.33399,,,0.81222,0.56842,0.13061,-0.01143,
1.96094,0.27576,0.10799,-0.82464,-0.20542,0.91581,0.32767,,,0.81221,0.56843,0.13065,-0.01147,
1.96875,0.24142,-0.03520,-0.68507,-0.19575,0.91824,0.34031,,,0.81220,0.56844,0.13068,-0.01151,
1.97656,0.37877,0.00060,-0.71996,-0.19478,0.92794,0.32913,,,0.81219,0.56845,0.13070,-0.01156,
1.98438,0.10408,0.03640,-0.82464,-0.19623,0.91484,0.33593,,,0.81218,0.56845,0.13074,-0.01160,
1.99219,0.10408,-0.03520,-0.65017,-0.19429,0.92115,0.33982,,,0.81218,0.56845,0.13076,-0.01164,
2.00000,0.17275,0.03640,-0.71996,-0.19720,0.91872,0.34031,,,0.81217,0.56845,0.13079,-0.01168,
2.00781,0.31010,0.10799,-0.71996,-0.20010,0.92697,0.33253,1021.683,24.4,0.81216,0.56846,0.13082,-0.01172,
2.01563,0.24142,0.00060,-0.58039,-0.19478,0.92018,0.33836,,,0.81215,0.56847,0.13085,-0.01175,
2.02344,0.20709,-0.03520,-0.68507,-0.20397,0.92309,0.33934,,,0.81214,0.56848,0.13087,-0.01179,
2.03125,0.06975,0.03640,-0.58039,-0.19575,0.92115,0.34031,,,0.81213,0.56847,0.13090,-0.01183,
2.03906,0.17275,0.00060,-0.58039,-0.19623,0.92988,0.33545,,,0.81213,0.56848,0.13092,-0.01186,
2.04688,0.20709,0.07220,-0.65017,-0.20445,0.91435,0.33010,,,0.81212,0.56848,0.13095,-0.01189,
2.05469,0.20709,0.17959,-0.65017,-0.19768,0.92212,0.33350,,,0.81211,0.56849,0.13098,-0.01193,
2.06250,0.13842,0.10799,-0.58039,-0.20058,0.91435,0.33253,,,0.81210,0.56849,0.13101,-0.01195,
2.07031,0.24142,-0.03520,-0.58039,-0.19139,0.92115,0.33496,,,0.81209,0.56850,0.13103,-0.01199,
2.07813,0.13842,0.17959,-0.61528,-0.19720,0.92115,0.33059,,,0.81208,0.56850,0.13106,-0.01202,
2.08594,0.24142,0.03640,-0.61528,-0.19961,0.92406,0.34614,,,0.81207,0.56851,0.13109,-0.01205,
2.09375,0.06975,0.00060,-0.61528,-0.20058,0.91144,0.32135,,,0.81207,0.56851,0.13111,-0.01209,
2.10156,0.13842,0.03640,-0.54549,-0.20010,0.91921,0.33739,,,0.81207,0.56851,0.13114,-0.01212,
2.10938,0.20709,0.10799,-0.47571,-0.19768,0.92697,0.32621,,,0.81206,0.56852,0.13116,-0.01214,
2.11719,0.20709,0.07220,-0.61528,-0.19236,0.93182,0.35295,,,0.81205,0.56853,0.13119,-0.01218,
2.12500,0.20709,-0.07100,-0.47571,-0.20107,0.91726,0.32816,,,0.81204,0.56853,0.13120,-0.01221,
2.13281,0.10408,0.17959,-0.33614,-0.20348,0.91532,0.34420,,,0.81203,0.56854,0.13123,-0.01222,
2.14063,0.24142,0.03640,-0.44082,-0.21026,0.91824,0.31795,,,0.81202,0.56855,0.13124,-0.01224,
2.14844,0.20709,0.10799,-0.44082,-0.19623,0.92745,0.33350,,,0.81201,0.56855,0.13127,-0.01227,
2.15625,0.17275,-0.03520,-0.30124,-0.18704,0.92648,0.33399,,,0.81201,0.56856,0.13128,-0.01229,
2.16406,0.41310,0.00060,-0.40592,-0.18897,0.92648,0.33836,,,0.81199,0.56858,0.13129,-0.01231,
2.17188,0.34443,0.00060,-0.44082,-0.19526,0.92648,0.33788,,,0.81198,0.56859,0.13131,-0.01234,
2.17969,0.24142,0.10799,-0.51060,-0.20203,0.91581,0.32816,,,0.81197,0.56860,0.13133,-0.01237,
2.18750,0.20709,-0.07100,-0.54549,-0.18946,0.92503,0.33885,,,0.81196,0.56861,0.13135,-0.01240,
2.19531,0.20709,0.00060,-0.54549,-0.19720,0.92454,0.33739,,,0.81195,0.56862,0.13137,-0.01243,
2.20313,0.27576,0.03640,-0.61528,-0.19575,0.92939,0.34031,,,0.81194,0.56863,0.13140,-0.01247,
2.21094,0.17275,0.03640,-0.61528,-0.20494,0.92018,0.33010,,,0.81193,0.56863,0.13142,-0.01250,
2.21875,0.06975,0.03640,-0.75485,-0.20639,0.92891,0.33982,,,0.81193,0.56863,0.13145,-0.01254,
2.22656,-0.03326,0.25118,-0.58039,-0.19768,0.92454,0.33885,,,0.81193,0.56862,0.13149,-0.01256,
2.23438,0.17275,0.17959,-0.61528,-0.20155,0.92939,0.33204,,,0.81192,0.56862,0.13152,-0.01259,
2.24219,0.10408,0.07220,-0.51060,-0.19575,0.91387,0.33593,,,0.81191,0.56863,0.13155,-0.01262,
2.25000,0.20709,0.17959,-0.68507,-0.20494,0.91872,0.33399,,,0.81190,0.56863,0.13158,-0.01265,
2.25781,0.17275,0.03640,-0.54549,-0.20445,0.91532,0.33107,,,0.81189,0.56864,0.13161,-0.01268,
2.26563,0.31010,-0.14259,-0.51060,-0.19042,0.92600,0.33836,,,0.81188,0.56865,0.13162,-0.01272,
2.27344,0.06975,0.03640,-0.68507,-0.18704,0.92551,0.34711,,,0.81188,0.56865,0.13165,-0.01276,
2.28125,0.13842,0.10799,-0.61528,-0.19768,0.92600,0.33739,,,0.81187,0.56865,0.13168,-0.01279,
2.28906,0.31010,0.03640,-0.78975,-0.19623,0.92454,0.33253,,,0.81186,0.56866,0.13171,-0.01283,
2.29688,0.34443,-0.03520,-0.58039,-0.19623,0.92406,0.33107,,,0.81185,0.56867,0.13173,-0.01287,
2.30469,0.31010,0.14379,-0.65017,-0.20445,0.91532,0.33107,,,0.81183,0.56868,0.13176,-0.01290,
2.31250,0.13842,0.10799,-0.68507,-0.19284,0.92697,0.34468,,,0.81182,0.56869,0.13180,-0.01294,
2.32031,0.24142,-0.03520,-0.58039,-0.19188,0.92939,0.34128,,,0.81181,0.56869,0.13182,-0.01297,
2.32813,0.10408,0.07220,-0.58039,-0.19720,0.91435,0.33350,,,0.81181,0.56869,0.13184,-0.01300,
2.33594,0.17275,0.00060,-0.82464,-0.19816,0.92212,0.32718,,,0.81180,0.56870,0.13187,-0.01305,
2.34375,0.13842,0.10799,-0.71996,-0.20203,0.91872,0.33934,,,0.81180,0.56870,0.13191,-0.01309,
2.35156,0.03541,0.07220,-0.51060,-0.20735,0.91047,0.32135,,,0.81179,0.56870,0.13193,-0.01311,
2.35938,0.10408,0.14379,-0.51060,-0.19623,0.91678,0.34614,,,0.81179,0.56870,0.13196,-0.01314,
2.36719,0.24142,0.07220,-0.51060,-0.19333,0.92648,0.33545,,,0.81178,0.56871,0.13198,-0.01316,
2.37500,0.13842,-0.14259,-0.65017,-0.18849,0.93036,0.34857,,,0.81177,0.56871,0.13200,-0.01321,
2.38281,0.20709,-0.03520,-0.40592,-0.19333,0.91726,0.33447,,,0.81176,0.56872,0.13201,-0.01323,
2.39063,0.41310,0.03640,-0.47571,-0.19381,0.92406,0.33642,,,0.81175,0.56873,0.13203,-0.01326,
2.39844,0.37877,0.00060,-0.44082,-0.21074,0.92697,0.32864,,,0.81173,0.56875,0.13205,-0.01329,
2.40625,0.31010,0.00060,-0.47571,-0.19623,0.93036,0.34079,,,0.81172,0.56876,0.13207,-0.01332,
2.41406,0.24142,0.00060,-0.65017,-0.19671,0.93085,0.34420,,,0.81171,0.56877,0.13209,-0.01336,
2.42188,0.27576,0.14379,-0.54549,-0.19865,0.91775,0.33885,,,0.81170,0.56878,0.13212,-0.01338,
2.42969,0.31010,-0.07100,-0.54549,-0.19139,0.92260,0.33399,,,0.81168,0.56879,0.13214,-0.01342,
2.43750,0.27576,-0.03520,-0.61528,-0.20252,0.90756,0.33496,,,0.81167,0.56880,0.13216,-0.01346,
2.44531,0.27576,0.03640,-0.65017,-0.19961,0.92163,0.34225,,,0.81166,0.56881,0.13219,-0.01349,
2.45313,0.27576,0.10799,-0.54549,-0.19671,0.92503,0.34663,,,0.81165,0.56882,0.13221,-0.01352,
2.46094,0.44744,0.03640,-0.58039,-0.19284,0.92939,0.34079,,,0.81163,0.56884,0.13224,-0.01356,
2.46875,0.24142,0.00060,-0.51060,-0.20107,0.91144,0.32329,,,0.81162,0.56885,0.13226,-0.01359,
2.47656,0.27576,0.14379,-0.51060,-0.20977,0.92842,0.33399,,,0.81161,0.56886,0.13229,-0.01361,
2.48438,0.20709,0.03640,-0.47571,-0.20058,0.92212,0.32961,,,0.81160,0.56887,0.13231,-0.01364,
2.49219,0.44744,0.21539,-0.47571,-0.18607,0.94201,0.35343,,,0.81158,0.56889,0.13234,-0.01366,
2.50000,0.17275,0.07220,-0.58039,-0.19139,0.91969,0.34079,,,0.81157,0.56889,0.13236,-0.01369,
2.50781,0.34443,0.07220,-0.65017,-0.20784,0.91872,0.34468,,,0.81156,0.56891,0.13239,-0.01373,
2.51563,0.20709,0.14379,-0.68507,-0.19865,0.92454,0.33156,,,0.81155,0.56891,0.13243,-0.01376,
2.52344,0.20709,0.00060,-0.47571,-0.19865,0.90853,0.33836,,,0.81154,0.56892,0.13244,-0.01379,
2.53125,0.06975,-0.10679,-0.68507,-0.19526,0.92697,0.33836,,,0.81154,0.56892,0.13246,-0.01383,
2.53906,0.10408,0.07220,-0.58039,-0.19720,0.93328,0.34177,,,0.81153,0.56892,0.13249,-0.01386,
2.54688,0.24142,0.07220,-0.61528,-0.19526,0.91824,0.33545,,,0.81152,0.56893,0.13252,-0.01390,
2.55469,0.27576,-0.07100,-0.58039,-0.20445,0.90853,0.33447,,,0.81151,0.56894,0.13254,-0.01393,
2.56250,0.24142,0.21539,-0.65017,-0.20348,0.92600,0.32670,,,0.81150,0.56894,0.13257,-0.01396,
2.57031,0.31010,0.14379,-0.65017,-0.19913,0.92697,0.33885,,,0.81149,0.56896,0.13261,-0.01400,
2.57813,0.13842,0.17959,-0.58039,-0.19478,0.93133,0.34031,,,0.81148,0.56896,0.13264,-0.01402,
2.58594,0.13842,0.03640,-0.51060,-0.19913,0.91921,0.34274,,,0.81147,0.56896,0.13266,-0.01405,
2.59375,0.34443,0.07220,-0.61528,-0.20929,0.92745,0.33156,,,0.81146,0.56898,0.13269,-0.01409,
2.60156,0.24142,0.03640,-0.68507,-0.20300,0.91241,0.32864,,,0.81145,0.56898,0.13272,-0.01412,
2.60938,0.24142,0.10799,-0.71996,-0.20107,0.92309,0.33107,,,0.81144,0.56899,0.13275,-0.01416,
2.61719,0.37877,0.10799,-0.65017,-0.19188,0.92794,0.33302,,,0.81142,0.56900,0.13278,-0.01420,
2.62500,0.31010,0.07220,-0.61528,-0.19042,0.92551,0.33691,,,0.81141,0.56902,0.13281,-0.01423,
2.63281,0.17275,0.17959,-0.65017,-0.19816,0.92260,0.33885,,,0.81140,0.56902,0.13284,-0.01426,
2.64063,0.27576,-0.03520,-0.65017,-0.20348,0.92406,0.34177,,,0.81139,0.56903,0.13287,-0.01430,
2.64844,0.31010,0.03640,-0.71996,-0.19671,0.92357,0.33691,,,0.81137,0.56904,0.13290,-0.01434,
2.65625,0.34443,0.10799,-0.78975,-0.19236,0.93036,0.33204,,,0.81136,0.56905,0.13293,-0.01439,
2.66406,0.27576,0.07220,-0.82464,-0.19478,0.93085,0.33545,,,0.81135,0.56906,0.13297,-0.01443,
2.67188,0.24142,-0.03520,-0.85953,-0.19381,0.91824,0.33739,,,0.81134,0.56907,0.13300,-0.01448,
2.67969,0.24142,0.00060,-0.68507,-0.20397,0.91775,0.33156,,,0.81133,0.56907,0.13303,-0.01452,
2.68750,0.27576,0.03640,-0.78975,-0.19816,0.92988,0.34128,,,0.81131,0.56908,0.13306,-0.01457,
2.69531,0.24142,0.10799,-0.78975,-0.19333,0.92260,0.33691,,,0.81130,0.56909,0.13309,-0.01461,
2.70313,0.20709,-0.10679,-0.65017,-0.19091,0.92212,0.34954,,,0.81130,0.56909,0.13311,-0.01465,
2.71094,0.20709,-0.07100,-0.68507,-0.19671,0.92551,0.33496,,,0.81129,0.56910,0.13314,-0.01469,
2.71875,0.27576,0.00060,-0.75485,-0.20300,0.92988,0.34128,,,0.81128,0.56911,0.13316,-0.01474,
2.72656,0.31010,-0.03520,-0.71996,-0.20107,0.92454,0.32670,,,0.81126,0.56912,0.13319,-0.01478,
2.73438,0.24142,0.00060,-0.65017,-0.20300,0.92066,0.34517,,,0.81125,0.56912,0.13321,-0.01482,
2.74219,0.31010,-0.03520,-0.68507,-0.19816,0.92212,0.32961,,,0.81124,0.56914,0.13324,-0.01486,
2.75000,0.24142,0.07220,-0.82464,-0.19333,0.92260,0.34225,,,0.81123,0.56914,0.13327,-0.01491,
2.75781,0.20709,-0.10679,-0.75485,-0.20590,0.90999,0.32913,,,0.81122,0.56915,0.13330,-0.01495,
2.76563,0.17275,0.03640,-0.82464,-0.19768,0.91678,0.34079,,,0.81121,0.56915,0.13333,-0.01500,
2.77344,0.20709,0.00060,-0.75485,-0.20155,0.92697,0.32913,,,0.81121,0.56915,0.13336,-0.01504,
2.78125,0.24142,0.03640,-0.58039,-0.20058,0.92115,0.33642,,,0.81120,0.56916,0.13339,-0.01508,
2.78906,0.10408,0.00060,-0.71996,-0.19865,0.91921,0.33350,,,0.81119,0.56916,0.13341,-0.01512,
2.79688,0.17275,0.10799,-0.61528,-0.19429,0.92406,0.33885,,,0.81118,0.56916,0.13344,-0.01515,
2.80469,0.03541,0.17959,-0.51060,-0.19865,0.91484,0.34031,,,0.81118,0.56916,0.13347,-0.01517,
2.81250,0.24142,0.10799,-0.65017,-0.20058,0.92212,0.34177,,,0.81117,0.56917,0.13350,-0.01520,
2.82031,0.24142,0.07220,-0.54549,-0.20445,0.92648,0.33593,,,0.81116,0.56918,0.13353,-0.01523,
2.82813,0.20709,0.03640,-0.65017,-0.19768,0.92503,0.33642,,,0.81115,0.56918,0.13356,-0.01527,
2.83594,0.24142,-0.03520,-0.54549,-0.19623,0.92260,0.34079,,,0.81114,0.56919,0.13357,-0.01530,
2.84375,0.41310,-0.07100,-0.58039,-0.20058,0.90465,0.32767,,,0.81112,0.56921,0.13359,-0.01534,
2.85156,0.24142,0.03640,-0.75485,-0.19671,0.92454,0.33836,,,0.81111,0.56922,0.13362,-0.01538,
2.85938,0.20709,0.10799,-0.78975,-0.20300,0.91824,0.33010,,,0.81110,0.56922,0.13366,-0.01543,
2.86719,0.27576,0.14379,-0.75485,-0.19961,0.93570,0.34322,,,0.81109,0.56923,0.13370,-0.01546,
2.87500,0.34443,0.00060,-0.61528,-0.19139,0.92163,0.33107,,,0.81108,0.56924,0.13372,-0.01550,
2.88281,0.20709,0.03640,-0.75485,-0.20542,0.92309,0.33982,,,0.81107,0.56925,0.13375,-0.01554,
2.89063,0.13842,0.03640,-0.85953,-0.20735,0.91144,0.32913,,,0.81106,0.56925,0.13379,-0.01559,
2.89844,0.27576,-0.07100,-0.71996,-0.19816,0.91726,0.33836,,,0.81105,0.56925,0.13381,-0.01564,
2.90625,0.27576,0.10799,-0.78975,-0.19768,0.93036,0.34079,,,0.81104,0.56926,0.13385,-0.01568,
2.91406,0.24142,0.21539,-0.68507,-0.20397,0.92357,0.34322,,,0.81102,0.56927,0.13388,-0.01571,
2.92188,0.20709,-0.07100,-0.68507,-0.20445,0.91824,0.33447,,,0.81102,0.56928,0.13391,-0.01575,
2.92969,0.20709,0.10799,-0.61528,-0.19961,0.92260,0.33934,,,0.81101,0.56928,0.13394,-0.01578,
2.93750,0.20709,-0.10679,-0.61528,-0.20784,0.92745,0.33010,,,0.81100,0.56929,0.13395,-0.01582,
2.94531,0.31010,-0.07100,-0.47571,-0.19526,0.93376,0.34031,,,0.81099,0.56930,0.13397,-0.01586,
2.95313,0.20709,0.07220,-0.51060,-0.19671,0.92212,0.33593,,,0.81098,0.56931,0.13399,-0.01588,
2.96094,0.10408,0.14379,-0.68507,-0.19671,0.92066,0.33691,,,0.81097,0.56931,0.13403,-0.01592,
2.96875,0.20709,0.07220,-0.51060,-0.20010,0.91581,0.33302,,,0.81096,0.56931,0.13405,-0.01594,
2.97656,0.34443,0.00060,-0.61528,-0.19720,0.91532,0.33934,,,0.81095,0.56933,0.13407,-0.01598,
2.98438,0.24142,0.00060,-0.71996,-0.20832,0.91824,0.32767,,,0.81094,0.56933,0.13410,-0.01602,
2.99219,0.20709,0.07220,-0.75485,-0.19720,0.92842,0.34517,,,0.81093,0.56934,0.13413,-0.01606,
3.00000,0.17275,0.03640,-0.47571,-0.18946,0.93182,0.33593,,,0.81092,0.56934,0.13415,-0.01609,
3.00781,0.17275,0.00060,-0.68507,-0.19091,0.92600,0.33642,1021.691,24.4,0.81091,0.56935,0.13418,-0.01613,
3.01563,0.10408,0.03640,-0.65017,-0.20494,0.92163,0.33788,,,0.81091,0.56935,0.13421,-0.01617,
3.02344,0.27576,-0.03520,-0.51060,-0.20058,0.91290,0.32816,,,0.81090,0.56936,0.13423,-0.01620,
3.03125,0.37877,0.03640,-0.54549,-0.19381,0.93085,0.33691,,,0.81088,0.56937,0.13425,-0.01623,
3.03906,0.24142,0.03640,-0.54549,-0.19671,0.92406,0.34079,,,0.81087,0.56938,0.13427,-0.01626,
3.04688,0.10408,0.07220,-0.47571,-0.20300,0.91775,0.33447,,,0.81087,0.56938,0.13429,-0.01628,
3.05469,0.03541,0.21539,-0.51060,-0.20542,0.92406,0.34177,,,0.81086,0.56938,0.13432,-0.01631,
3.06250,0.20709,-0.10679,-0.44082,-0.20977,0.91484,0.33739,,,0.81085,0.56939,0.13434,-0.01634,
3.07031,0.27576,0.14379,-0.40592,-0.19623,0.91241,0.32913,,,0.81084,0.56940,0.13436,-0.01635,
3.07813,0.24142,0.03640,-0.68507,-0.19671,0.92066,0.33739,,,0.81083,0.56941,0.13439,-0.01639,
3.08594,0.13842,-0.03520,-0.58039,-0.19865,0.92600,0.33496,,,0.81083,0.56941,0.13441,-0.01643,
3.09375,0.13842,-0.03520,-0.51060,-0.19575,0.91726,0.34322,,,0.81082,0.56941,0.13443,-0.01646,
3.10156,0.17275,0.03640,-0.61528,-0.20397,0.92163,0.33350,,,0.81081,0.56942,0.13445,-0.01649,
3.10938,0.27576,0.07220,-0.71996,-0.20784,0.91726,0.33156,,,0.81080,0.56942,0.13448,-0.01653,
3.11719,0.27576,-0.07100,-0.61528,-0.20784,0.92115,0.33204,,,0.81079,0.56943,0.13450,-0.01657,
3.12500,0.17275,0.07220,-0.65017,-0.19623,0.92503,0.33447,,,0.81078,0.56944,0.13453,-0.01661,
3.13281,0.27576,0.03640,-0.47571,-0.20058,0.92212,0.33059,,,0.81077,0.56945,0.13455,-0.01663,
3.14063,0.13842,0.10799,-0.58039,-0.20542,0.91338,0.34079,,,0.81076,0.56945,0.13458,-0.01666,
3.14844,0.10408,0.10799,-0.58039,-0.20203,0.91241,0.33982,,,0.81076,0.56945,0.13461,-0.01669,
3.15625,0.24142,0.03640,-0.54549,-0.20155,0.91969,0.33691,,,0.81075,0.56946,0.13463,-0.01672,
3.16406,0.31010,-0.03520,-0.40592,-0.19575,0.91872,0.32135,,,0.81073,0.56947,0.13464,-0.01675,
3.17188,0.51611,0.07220,-0.54549,-0.18946,0.93036,0.33934,,,0.81071,0.56950,0.13467,-0.01678,
3.17969,0.10408,0.03640,-0.54549,-0.19381,0.91726,0.33836,,,0.81071,0.56950,0.13469,-0.01681,
3.18750,0.13842,0.03640,-0.47571,-0.19768,0.91775,0.34031,,,0.81070,0.56950,0.13471,-0.01684,
3.19531,0.31010,0.07220,-0.51060,-0.20107,0.92988,0.32864,,,0.81069,0.56951,0.13474,-0.01687,
3.20313,0.13842,0.14379,-0.58039,-0.18994,0.92891,0.33836,,,0.81068,0.56952,0.13477,-0.01689,
3.21094,0.06975,0.10799,-0.58039,-0.19961,0.91435,0.34225,,,0.81068,0.56952,0.13479,-0.01692,
3.21875,0.27576,0.00060,-0.65017,-0.20494,0.91872,0.33447,,,0.81067,0.56952,0.13482,-0.01696,
3.22656,0.27576,0.00060,-0.44082,-0.19478,0.92406,0.33545,,,0.81065,0.56954,0.13484,-0.01699,
3.23438,0.24142,0.00060,-0.47571,-0.19816,0.91824,0.33836,,,0.81064,0.56954,0.13485,-0.01702,
3.24219,0.24142,0.00060,-0.68507,-0.20107,0.93522,0.34371,,,0.81063,0.56955,0.13488,-0.01706,
3.25000,0.17275,0.00060,-0.47571,-0.19429,0.92018,0.33302,,,0.81063,0.56956,0.13490,-0.01708,
3.25781,0.24142,0.14379,-0.54549,-0.19816,0.92212,0.33107,,,0.81062,0.56957,0.13493,-0.01711,
3.26563,0.24142,0.10799,-0.54549,-0.20203,0.91096,0.33788,,,0.81060,0.56957,0.13495,-0.01714,
3.27344,0.31010,0.14379,-0.51060,-0.20735,0.92891,0.32670,,,0.81059,0.56959,0.13498,-0.01716,
3.28125,0.03541,0.17959,-0.47571,-0.20203,0.91629,0.33399,,,0.81059,0.56958,0.13501,-0.01718,
3.28906,0.13842,0.07220,-0.51060,-0.18849,0.93182,0.34565,,,0.81058,0.56959,0.13503,-0.01721,
3.29688,0.17275,0.00060,-0.47571,-0.19381,0.92212,0.33447,,,0.81057,0.56959,0.13505,-0.01724,
3.30469,0.13842,0.17959,-0.65017,-0.19816,0.92018,0.33399,,,0.81056,0.56959,0.13509,-0.01727,
3.31250,0.13842,-0.03520,-0.71996,-0.19913,0.92551,0.33447,,,0.81056,0.56960,0.13511,-0.01731,
3.32031,0.10408,0.03640,-0.65017,-0.20397,0.91629,0.32670,,,0.81055,0.56960,0.13514,-0.01735,
3.32813,0.13842,0.00060,-0.54549,-0.19478,0.92309,0.33496,,,0.81055,0.56960,0.13516,-0.01738,
3.33594,0.00107,0.14379,-0.61528,-0.19333,0.91824,0.34371,,,0.81055,0.56959,0.13519,-0.01741,
3.34375,0.03541,0.07220,-0.58039,-0.19526,0.92357,0.32864,,,0.81054,0.56959,0.13522,-0.01744,
3.35156,0.06975,-0.07100,-0.61528,-0.20397,0.90465,0.33739,,,0.81054,0.56959,0.13524,-0.01747,
3.35938,0.24142,0.07220,-0.47571,-0.19865,0.92357,0.33204,,,0.81053,0.56960,0.13526,-0.01750,
3.36719,0.17275,0.10799,-0.61528,-0.20010,0.93667,0.33350,,,0.81052,0.56960,0.13529,-0.01753,
3.37500,0.06975,0.00060,-0.51060,-0.19575,0.93036,0.33982,,,0.81052,0.56960,0.13531,-0.01756,
3.38281,0.03541,0.21539,-0.47571,-0.19575,0.92600,0.33934,,,0.81051,0.56960,0.13534,-0.01758,
3.39063,0.20709,0.03640,-0.54549,-0.20058,0.91629,0.32621,,,0.81050,0.56960,0.13536,-0.01761,
3.39844,0.24142,0.17959,-0.37103,-0.20735,0.91629,0.32816,,,0.81049,0.56961,0.13539,-0.01762,
3.40625,0.10408,0.07220,-0.51060,-0.20252,0.92163,0.32718,,,0.81049,0.56961,0.13541,-0.01765,
3.41406,0.24142,-0.14259,-0.40592,-0.19429,0.92794,0.34371,,,0.81048,0.56962,0.13542,-0.01768,
3.42188,0.24142,0.00060,-0.47571,-0.19042,0.91775,0.33934,,,0.81047,0.56963,0.13544,-0.01771,
3.42969,0.27576,0.14379,-0.47571,-0.20494,0.92260,0.34177,,,0.81046,0.56964,0.13546,-0.01773,
3.43750,0.20709,0.00060,-0.68507,-0.20687,0.91775,0.33059,,,0.81045,0.56965,0.13549,-0.01777,
3.44531,0.13842,0.07220,-0.37103,-0.20058,0.92648,0.33691,,,0.81044,0.56965,0.13551,-0.01779,
3.45313,0.17275,0.17959,-0.40592,-0.19478,0.92406,0.33739,,,0.81043,0.56966,0.13553,-0.01781,
3.46094,0.24142,0.00060,-0.44082,-0.19236,0.92357,0.33593,,,0.81042,0.56967,0.13555,-0.01783,
3.46875,0.20709,-0.03520,-0.47571,-0.19961,0.91824,0.34079,,,0.81041,0.56968,0.13557,-0.01786,
3.47656,0.13842,0.03640,-0.44082,-0.20397,0.91969,0.32621,,,0.81041,0.56968,0.13559,-0.01789,
3.48438,0.34443,0.00060,-0.47571,-0.20010,0.92406,0.34177,,,0.81039,0.56969,0.13560,-0.01792,
3.49219,0.27576,0.03640,-0.40592,-0.19284,0.91532,0.33107,,,0.81038,0.56971,0.13562,-0.01794,
3.50000,0.17275,0.03640,-0.61528,-0.20058,0.93085,0.34565,,,0.81038,0.56971,0.13565,-0.01797,
3.50781,0.17275,0.10799,-0.58039,-0.20155,0.92066,0.33156,,,0.81037,0.56971,0.13567,-0.01800,
3.51563,0.13842,0.10799,-0.51060,-0.19236,0.92794,0.33885,,,0.81036,0.56972,0.13570,-0.01803,
3.52344,0.17275,-0.14259,-0.58039,-0.19526,0.91921,0.32718,,,0.81035,0.56972,0.13571,-0.01807,
3.53125,0.20709,0.03640,-0.54549,-0.19526,0.91096,0.33593,,,0.81034,0.56973,0.13574,-0.01810,
3.53906,0.20709,0.14379,-0.65017,-0.19913,0.91824,0.33496,,,0.81033,0.56973,0.13577,-0.01813,
3.54688,0.17275,0.07220,-0.54549,-0.19671,0.92406,0.34565,,,0.81033,0.56974,0.13580,-0.01816,
3.55469,0.24142,0.14379,-0.58039,-0.19575,0.93036,0.34517,,,0.81031,0.56975,0.13583,-0.01819,
3.56250,0.27576,0.03640,-0.61528,-0.19623,0.93085,0.35100,,,0.81030,0.56976,0.13585,-0.01822,
3.57031,0.24142,-0.14259,-0.58039,-0.20252,0.92745,0.32281,,,0.81029,0.56976,0.13587,-0.01826,
3.57813,0.17275,0.00060,-0.51060,-0.19526,0.91532,0.33642,,,0.81029,0.56977,0.13589,-0.01829,
3.58594,0.13842,0.10799,-0.58039,-0.19768,0.92745,0.33010,,,0.81028,0.56977,0.13591,-0.01832,
3.59375,0.17275,0.10799,-0.75485,-0.19768,0.91144,0.33982,,,0.81027,0.56977,0.13595,-0.01836,
3.60156,0.20709,0.03640,-0.61528,-0.20058,0.92212,0.33059,,,0.81026,0.56978,0.13597,-0.01840,
3.60938,0.34443,-0.14259,-0.51060,-0.20107,0.91678,0.33302,,,0.81025,0.56979,0.13599,-0.01843,
3.61719,0.24142,0.14379,-0.54549,-0.20252,0.92551,0.32670,,,0.81024,0.56980,0.13601,-0.01846,
3.62500,0.24142,0.14379,-0.61528,-0.18946,0.92115,0.34809,,,0.81023,0.56981,0.13605,-0.01849,
3.63281,0.10408,0.10799,-0.47571,-0.20203,0.92794,0.33691,,,0.81022,0.56981,0.13607,-0.01851,
3.64063,0.10408,0.07220,-0.68507,-0.19865,0.91872,0.33885,,,0.81022,0.56981,0.13610,-0.01855,
3.64844,0.27576,0.14379,-0.58039,-0.21026,0.92309,0.32718,,,0.81020,0.56982,0.13613,-0.01858,
3.65625,0.31010,0.07220,-0.68507,-0.19478,0.92600,0.32767,,,0.81019,0.56983,0.13616,-0.01862,
3.66406,0.20709,-0.10679,-0.71996,-0.18946,0.91921,0.33204,,,0.81018,0.56984,0.13618,-0.01866,
3.67188,0.00107,0.07220,-0.65017,-0.19575,0.92066,0.34274,,,0.81018,0.56983,0.13621,-0.01870,
3.67969,0.20709,-0.03520,-0.71996,-0.20542,0.91969,0.33447,,,0.81017,0.56983,0.13624,-0.01874,
3.68750,0.20709,0.10799,-0.75485,-0.20252,0.92212,0.33059,,,0.81016,0.56984,0.13627,-0.01878,
3.69531,0.10408,0.10799,-0.68507,-0.19720,0.91824,0.33496,,,0.81015,0.56984,0.13630,-0.01881,
3.70313,0.17275,0.07220,-0.61528,-0.18994,0.92163,0.33253,,,0.81015,0.56984,0.13633,-0.01884,
3.71094,0.17275,0.03640,-0.61528,-0.19429,0.92842,0.34128,,,0.81014,0.56985,0.13636,-0.01888,
3.71875,0.37877,0.07220,-0.65017,-0.20300,0.91872,0.32961,,,0.81012,0.56986,0.13639,-0.01892,
3.72656,0.17275,-0.07100,-0.68507,-0.20494,0.91193,0.33496,,,0.81012,0.56986,0.13641,-0.01896,
3.73438,0.13842,0.03640,-0.54549,-0.20107,0.92066,0.32621,,,0.81011,0.56987,0.13643,-0.01899,
3.74219,0.10408,0.14379,-0.54549,-0.19671,0.92309,0.33642,,,0.81010,0.56987,0.13646,-0.01901,
3.75000,0.13842,0.03640,-0.40592,-0.18752,0.92163,0.33399,,,0.81010,0.56987,0.13648,-0.01904,
3.75781,0.10408,0.21539,-0.51060,-0.19284,0.91775,0.33496,,,0.81009,0.56987,0.13651,-0.01906,
3.76563,0.13842,0.14379,-0.47571,-0.20058,0.91824,0.32767,,,0.81008,0.56988,0.13654,-0.01908,
3.77344,0.13842,0.03640,-0.37103,-0.20010,0.91726,0.33496,,,0.81008,0.56988,0.13655,-0.01910,
3.78125,0.20709,0.03640,-0.37103,-0.18994,0.92115,0.33836,,,0.81007,0.56989,0.13657,-0.01912,
3.78906,0.10408,0.17959,-0.47571,-0.19768,0.92406,0.33982,,,0.81006,0.56989,0.13660,-0.01914,
3.79688,0.27576,0.07220,-0.37103,-0.19042,0.92745,0.34225,,,0.81005,0.56990,0.13661,-0.01916,
3.80469,0.20709,0.21539,-0.37103,-0.19720,0.91435,0.33496,,,0.81004,0.56991,0.13664,-0.01917,
3.81250,0.44744,-0.03520,-0.47571,-0.19429,0.91872,0.33447,,,0.81002,0.56993,0.13666,-0.01921,
3.82031,0.27576,0.03640,-0.58039,-0.20058,0.92406,0.32913,,,0.81001,0.56994,0.13668,-0.01924,
3.82813,0.24142,0.14379,-0.47571,-0.19816,0.92891,0.34517,,,0.81000,0.56995,0.13671,-0.01926,
3.83594,0.13842,0.00060,-0.51060,-0.19139,0.92260,0.33642,,,0.80999,0.56995,0.13673,-0.01929,
3.84375,0.20709,0.00060,-0.51060,-0.19913,0.91921,0.33253,,,0.80998,0.56996,0.13675,-0.01932,
3.85156,0.13842,0.14379,-0.40592,-0.20494,0.91824,0.33156,,,0.80998,0.56996,0.13677,-0.01934,
3.85938,0.27576,0.03640,-0.54549,-0.20735,0.92503,0.32913,,,0.80996,0.56997,0.13679,-0.01937,
3.86719,0.00107,0.00060,-0.40592,-0.19526,0.91678,0.34177,,,0.80996,0.56997,0.13681,-0.01939,
3.87500,0.20709,-0.07100,-0.30124,-0.19575,0.92745,0.34128,,,0.80996,0.56998,0.13682,-0.01941,
3.88281,0.34443,0.00060,-0.26635,-0.19478,0.92503,0.34031,,,0.80994,0.57000,0.13683,-0.01943,
3.89063,0.06975,0.25118,-0.40592,-0.19526,0.91969,0.33545,,,0.80994,0.57000,0.13686,-0.01945,
3.89844,0.17275,0.10799,-0.40592,-0.19768,0.92066,0.33059,,,0.80993,0.57000,0.13688,-0.01947,
3.90625,0.10408,0.03640,-0.44082,-0.20203,0.91678,0.32329,,,0.80992,0.57000,0.13690,-0.01949,
3.91406,0.20709,0.07220,-0.47571,-0.19768,0.94055,0.34420,,,0.80991,0.57001,0.13692,-0.01951,
3.92188,0.00107,0.14379,-0.54549,-0.19768,0.92697,0.34031,,,0.80991,0.57001,0.13695,-0.01954,
3.92969,0.10408,-0.07100,-0.54549,-0.20348,0.92309,0.33156,,,0.80991,0.57001,0.13696,-0.01957,
3.93750,0.31010,0.10799,-0.65017,-0.20300,0.91532,0.33059,,,0.80989,0.57002,0.13699,-0.01961,
3.94531,0.24142,0.07220,-0.54549,-0.19768,0.91775,0.33204,,,0.80988,0.57003,0.13702,-0.01964,
3.95313,0.20709,-0.03520,-0.51060,-0.19429,0.91581,0.33788,,,0.80987,0.57003,0.13704,-0.01967,
3.96094,0.13842,-0.07100,-0.65017,-0.19913,0.92988,0.33107,,,0.80987,0.57003,0.13706,-0.01971,
3.96875,0.24142,0.07220,-0.58039,-0.19188,0.92745,0.34760,,,0.80986,0.57004,0.13708,-0.01974,
3.97656,0.20709,0.10799,-0.44082,-0.19671,0.91921,0.32427,,,0.80985,0.57005,0.13711,-0.01976,
3.98438,0.13842,-0.07100,-0.51060,-0.20010,0.91629,0.33156,,,0.80984,0.57005,0.13712,-0.01979,
3.99219,0.10408,0.10799,-0.61528,-0.20445,0.91969,0.32184,,,0.80984,0.57005,0.13715,-0.01982,
4.00000,0.13842,0.10799,-0.47571,-0.18752,0.92406,0.34857,,,0.80983,0.57006,0.13718,-0.01985,
4.00781,0.27576,0.03640,-0.51060,-0.19429,0.93376,0.34225,1021.689,24.5,0.80982,0.57007,0.13720,-0.01988,
4.01563,0.17275,0.07220,-0.61528,-0.19333,0.91387,0.34128,,,0.80981,0.57007,0.13723,-0.01991,
4.02344,0.13842,0.17959,-0.61528,-0.21074,0.92648,0.32816,,,0.80980,0.57007,0.13726,-0.01994,
4.03125,0.06975,0.21539,-0.65017,-0.20155,0.91193,0.33934,,,0.80980,0.57007,0.13730,-0.01997,
4.03906,0.20709,0.10799,-0.65017,-0.19236,0.91824,0.33691,,,0.80979,0.57008,0.13733,-0.02000,
4.04688,0.13842,0.00060,-0.61528,-0.19816,0.91484,0.32621,,,0.80978,0.57008,0.13735,-0.02004,
4.05469,0.17275,0.07220,-0.71996,-0.19961,0.92939,0.34128,,,0.80977,0.57008,0.13738,-0.02007,
4.06250,0.03541,0.03640,-0.61528,-0.20494,0.92115,0.33156,,,0.80977,0.57008,0.13741,-0.02011,
4.07031,0.20709,0.10799,-0.58039,-0.19816,0.91678,0.33010,,,0.80976,0.57008,0.13744,-0.02014,
4.07813,0.20709,0.00060,-0.58039,-0.19865,0.93085,0.33399,,,0.80975,0.57009,0.13746,-0.02017,
4.08594,0.20709,0.14379,-0.65017,-0.19042,0.93231,0.35003,,,0.80974,0.57009,0.13749,-0.02020,
4.09375,0.24142,0.03640,-0.51060,-0.19720,0.92115,0.33399,,,0.80973,0.57010,0.13751,-0.02023,
4.10156,0.37877,0.17959,-0.47571,-0.20252,0.92260,0.34128,,,0.80971,0.57012,0.13754,-0.02025,
4.10938,0.20709,0.03640,-0.40592,-0.21267,0.92260,0.32281,,,0.80970,0.57013,0.13756,-0.02028,
4.11719,0.17275,0.07220,-0.54549,-0.20203,0.92454,0.35246,,,0.80970,0.57013,0.13758,-0.02031,
4.12500,0.17275,0.00060,-0.58039,-0.19042,0.91435,0.33107,,,0.80969,0.57014,0.13761,-0.02034,
4.13281,0.34443,-0.07100,-0.58039,-0.19478,0.92503,0.33885,,,0.80968,0.57015,0.13762,-0.02038,
4.14063,0.24142,-0.03520,-0.58039,-0.19188,0.92551,0.33399,,,0.80967,0.57016,0.13764,-0.02041,
4.14844,0.20709,0.00060,-0.65017,-0.19284,0.92212,0.33496,,,0.80966,0.57016,0.13767,-0.02045,
4.15625,0.17275,0.00060,-0.54549,-0.20348,0.91969,0.34322,,,0.80965,0.57017,0.13769,-0.02048,
4.16406,0.17275,0.10799,-0.54549,-0.20300,0.91484,0.32961,,,0.80964,0.57017,0.13772,-0.02051,
4.17188,0.20709,0.07220,-0.54549,-0.19333,0.92939,0.34177,,,0.80963,0.57018,0.13774,-0.02054,
4.17969,0.17275,0.00060,-0.65017,-0.20058,0.92163,0.33593,,,0.80962,0.57018,0.13777,-0.02058,
4.18750,0.10408,0.03640,-0.65017,-0.20494,0.91824,0.33204,,,0.80962,0.57018,0.13779,-0.02061,
4.19531,0.10408,0.17959,-0.33614,-0.19381,0.91290,0.33399,,,0.80961,0.57018,0.13782,-0.02062,
4.20313,0.31010,0.00060,-0.54549,-0.19720,0.92939,0.33302,,,0.80960,0.57020,0.13784,-0.02066,
4.21094,0.10408,0.03640,-0.61528,-0.19865,0.92018,0.34128,,,0.80959,0.57020,0.13786,-0.02069,
4.21875,0.10408,0.03640,-0.58039,-0.18897,0.93085,0.33545,,,0.80959,0.57020,0.13789,-0.02072,
4.22656,0.06975,0.10799,-0.33614,-0.18752,0.93036,0.35149,,,0.80958,0.57020,0.13791,-0.02074,
4.23438,0.24142,0.07220,-0.44082,-0.20880,0.92842,0.32670,,,0.80957,0.57021,0.13793,-0.02076,
4.24219,0.06975,0.14379,-0.51060,-0.19478,0.91047,0.33156,,,0.80957,0.57021,0.13795,-0.02078,
4.25000,0.17275,0.03640,-0.54549,-0.20445,0.91726,0.32572,,,0.80956,0.57021,0.13798,-0.02082,
4.25781,0.20709,0.03640,-0.44082,-0.18897,0.91872,0.33934,,,0.80955,0.57022,0.13800,-0.02084,
4.26563,0.20709,0.03640,-0.54549,-0.19236,0.92939,0.33593,,,0.80954,0.57022,0.13802,-0.02087,
4.27344,0.10408,0.07220,-0.68507,-0.19961,0.91872,0.33982,,,0.80954,0.57022,0.13805,-0.02091,
4.28125,0.06975,0.10799,-0.68507,-0.20735,0.92163,0.33204,,,0.80953,0.57022,0.13808,-0.02094,
4.28906,0.10408,0.14379,-0.51060,-0.20300,0.91824,0.33204,,,0.80953,0.57022,0.13811,-0.02096,
4.29688,0.17275,0.00060,-0.47571,-0.19768,0.93036,0.33399,,,0.80952,0.57023,0.13813,-0.02099,
4.30469,0.24142,0.14379,-0.61528,-0.19768,0.92503,0.33642,,,0.80951,0.57023,0.13816,-0.02102,
4.31250,0.10408,0.21539,-0.58039,-0.19865,0.91921,0.34614,,,0.80950,0.57024,0.13819,-0.02105,
4.32031,0.10408,0.03640,-0.51060,-0.20058,0.91872,0.33156,,,0.80950,0.57024,0.13821,-0.02107,
4.32813,0.03541,0.10799,-0.47571,-0.19865,0.92260,0.33982,,,0.80949,0.57023,0.13824,-0.02110,
4.33594,0.17275,0.03640,-0.47571,-0.20542,0.91969,0.32718,,,0.80949,0.57024,0.13826,-0.02112,
4.34375,0.24142,0.21539,-0.47571,-0.18849,0.93085,0.34954,,,0.80947,0.57025,0.13829,-0.02114,
4.35156,0.24142,0.07220,-0.54549,-0.19913,0.92406,0.33642,,,0.80946,0.57026,0.13831,-0.02117,
4.35938,0.34443,0.07220,-0.58039,-0.20784,0.93425,0.34711,,,0.80945,0.57027,0.13834,-0.02121,
4.36719,0.20709,-0.03520,-0.54549,-0.20735,0.91581,0.32086,,,0.80944,0.57028,0.13836,-0.02124,
4.37500,0.24142,0.00060,-0.68507,-0.19333,0.93133,0.33496,,,0.80943,0.57028,0.13839,-0.02128,
4.38281,0.06975,0.14379,-0.61528,-0.19381,0.92357,0.33253,,,0.80942,0.57028,0.13842,-0.02131,
4.39063,0.20709,0.17959,-0.61528,-0.19768,0.92018,0.33593,,,0.80941,0.57029,0.13845,-0.02134,
4.39844,0.17275,0.10799,-0.54549,-0.19816,0.92551,0.33642,,,0.80940,0.57029,0.13848,-0.02136,
4.40625,0.10408,0.00060,-0.44082,-0.20639,0.91193,0.33642,,,0.80940,0.57029,0.13849,-0.02139,
4.41406,0.03541,0.03640,-0.40592,-0.19526,0.92212,0.33934,,,0.80940,0.57029,0.13851,-0.02141,
4.42188,0.24142,0.10799,-0.40592,-0.19284,0.92454,0.33934,,,0.80939,0.57030,0.13853,-0.02143,
4.42969,0.20709,0.21539,-0.47571,-0.19671,0.92988,0.34177,,,0.80938,0.57031,0.13856,-0.02145,
4.43750,0.27576,0.07220,-0.58039,-0.19671,0.91678,0.32718,,,0.80936,0.57032,0.13859,-0.02148,
4.44531,0.24142,0.03640,-0.54549,-0.21074,0.92551,0.32864,,,0.80935,0.57033,0.13861,-0.02151,
4.45313,0.24142,0.00060,-0.47571,-0.19913,0.92503,0.33691,,,0.80934,0.57034,0.13863,-0.02154,
4.46094,0.17275,0.28698,-0.68507,-0.19429,0.93182,0.34517,,,0.80933,0.57034,0.13867,-0.02157,
4.46875,0.00107,0.14379,-0.58039,-0.19284,0.91581,0.33642,,,0.80933,0.57033,0.13870,-0.02160,
4.47656,0.24142,0.07220,-0.65017,-0.20397,0.91775,0.33010,,,0.80932,0.57034,0.13873,-0.02163,
4.48438,0.17275,0.14379,-0.54549,-0.20494,0.90902,0.32184,,,0.80931,0.57035,0.13876,-0.02166,
4.49219,0.31010,0.00060,-0.54549,-0.20639,0.92163,0.32718,,,0.80930,0.57036,0.13878,-0.02169,
4.50000,-0.03326,0.07220,-0.58039,-0.19575,0.91726,0.33788,,,0.80930,0.57035,0.13881,-0.02172,
4.50781,0.20709,0.07220,-0.58039,-0.19768,0.93036,0.34177,,,0.80929,0.57036,0.13883,-0.02175,
4.51563,0.31010,0.17959,-0.40592,-0.19139,0.93133,0.33885,,,0.80927,0.57037,0.13886,-0.02177,
4.52344,0.31010,0.07220,-0.30124,-0.19961,0.91678,0.32913,,,0.80926,0.57038,0.13887,-0.02179,
4.53125,0.24142,0.17959,-0.51060,-0.20058,0.92697,0.33496,,,0.80925,0.57039,0.13890,-0.02181,
4.53906,0.31010,0.14379,-0.47571,-0.20542,0.92018,0.34225,,,0.80923,0.57041,0.13893,-0.02183,
4.54688,0.31010,0.17959,-0.58039,-0.18946,0.93910,0.34663,,,0.80922,0.57042,0.13896,-0.02186,
4.55469,0.24142,0.00060,-0.58039,-0.18849,0.92212,0.33642,,,0.80921,0.57043,0.13898,-0.02190,
4.56250,0.17275,0.14379,-0.58039,-0.20445,0.92212,0.32767,,,0.80920,0.57043,0.13901,-0.02192,
4.57031,0.24142,0.07220,-0.44082,-0.21026,0.90950,0.33253,,,0.80919,0.57044,0.13903,-0.02195,
4.57813,0.31010,0.00060,-0.54549,-0.20155,0.91532,0.32038,,,0.80918,0.57045,0.13906,-0.02198,
4.58594,0.31010,0.07220,-0.58039,-0.19381,0.92648,0.34274,,,0.80916,0.57046,0.13908,-0.02201,
4.59375,0.24142,0.03640,-0.58039,-0.19042,0.92794,0.33691,,,0.80915,0.57047,0.13911,-0.02205,
4.60156,0.27576,0.10799,-0.61528,-0.19865,0.92212,0.35343,,,0.80914,0.57048,0.13914,-0.02208,
4.60938,0.17275,-0.03520,-0.61528,-0.20203,0.91241,0.31795,,,0.80913,0.57048,0.13916,-0.02211,
4.61719,0.20709,0.03640,-0.71996,-0.20542,0.91969,0.34225,,,0.80912,0.57049,0.13919,-0.02215,
4.62500,0.24142,0.17959,-0.71996,-0.20639,0.91678,0.32913,,,0.80911,0.57050,0.13922,-0.02219,
4.63281,0.17275,0.00060,-0.75485,-0.18801,0.93522,0.35052,,,0.80910,0.57050,0.13925,-0.02223,
4.64063,0.13842,-0.03520,-0.68507,-0.18559,0.92163,0.33496,,,0.80910,0.57050,0.13928,-0.02227,
4.64844,0.24142,0.10799,-0.71996,-0.20203,0.91484,0.33302,,,0.80909,0.57051,0.13931,-0.02231,
4.65625,0.03541,0.10799,-0.71996,-0.20880,0.91435,0.33010,,,0.80908,0.57050,0.13934,-0.02235,
4.66406,0.00107,-0.10679,-0.68507,-0.19961,0.90950,0.32767,,,0.80908,0.57049,0.13937,-0.02239,
4.67188,0.24142,0.00060,-0.61528,-0.19284,0.92697,0.33788,,,0.80907,0.57050,0.13939,-0.02243,
4.67969,0.20709,0.03640,-0.58039,-0.20300,0.91775,0.33010,,,0.80906,0.57051,0.13941,-0.02246,
4.68750,0.24142,0.17959,-0.58039,-0.18946,0.92648,0.33788,,,0.80905,0.57052,0.13945,-0.02248,
4.69531,0.20709,-0.07100,-0.65017,-0.20832,0.90999,0.32913,,,0.80904,0.57052,0.13947,-0.02253,
4.70313,0.24142,-0.03520,-0.58039,-0.21316,0.92988,0.33107,,,0.80903,0.57053,0.13949,-0.02256,
4.71094,0.17275,0.00060,-0.54549,-0.19333,0.91629,0.32572,,,0.80902,0.57053,0.13951,-0.02259,
4.71875,0.31010,0.03640,-0.61528,-0.18656,0.93570,0.34711,,,0.80901,0.57054,0.13953,-0.02263,
4.72656,0.13842,-0.10679,-0.54549,-0.19575,0.91678,0.33593,,,0.80901,0.57055,0.13955,-0.02266,
4.73438,0.17275,0.00060,-0.75485,-0.20058,0.92745,0.34225,,,0.80900,0.57055,0.13958,-0.02271,
4.74219,0.24142,0.00060,-0.61528,-0.20445,0.91241,0.33010,,,0.80899,0.57056,0.13960,-0.02274,
4.75000,0.13842,0.10799,-0.58039,-0.20010,0.92454,0.33399,,,0.80898,0.57056,0.13963,-0.02277,
4.75781,0.06975,0.03640,-0.58039,-0.19720,0.92551,0.33302,,,0.80898,0.57056,0.13965,-0.02280,
4.76563,0.20709,0.03640,-0.58039,-0.20058,0.92018,0.34274,,,0.80897,0.57056,0.13968,-0.02284,
4.77344,0.17275,0.00060,-0.54549,-0.20058,0.91629,0.33010,,,0.80896,0.57057,0.13970,-0.02287,
4.78125,0.17275,0.14379,-0.51060,-0.20300,0.91047,0.33302,,,0.80895,0.57057,0.13973,-0.02289,
4.78906,0.24142,0.17959,-0.54549,-0.20155,0.92600,0.32913,,,0.80894,0.57058,0.13976,-0.02292,
4.79688,0.34443,0.07220,-0.54549,-0.19961,0.93279,0.34274,,,0.80892,0.57059,0.13978,-0.02295,
4.80469,0.24142,0.07220,-0.47571,-0.19236,0.92406,0.33885,,,0.80891,0.57060,0.13980,-0.02297,
4.81250,0.20709,-0.03520,-0.40592,-0.19816,0.91872,0.34322,,,0.80890,0.57061,0.13982,-0.02300,
4.82031,0.31010,0.07220,-0.61528,-0.20880,0.92891,0.32767,,,0.80889,0.57062,0.13984,-0.02303,
4.82813,0.20709,0.00060,-0.68507,-0.19961,0.91338,0.33496,,,0.80888,0.57063,0.13987,-0.02307,
4.83594,0.17275,0.03640,-0.68507,-0.19429,0.92939,0.32572,,,0.80887,0.57063,0.13990,-0.02311,
4.84375,0.17275,0.14379,-0.58039,-0.19623,0.92309,0.33350,,,0.80886,0.57063,0.13993,-0.02314,
4.85156,0.20709,0.00060,-0.71996,-0.20010,0.92454,0.33399,,,0.80885,0.57064,0.13996,-0.02318,
4.85938,0.06975,0.17959,-0.68507,-0.19526,0.92212,0.34711,,,0.80885,0.57064,0.13999,-0.02321,
4.86719,0.13842,0.21539,-0.65017,-0.20155,0.91678,0.33302,,,0.80884,0.57064,0.14003,-0.02324,
4.87500,0.13842,-0.07100,-0.54549,-0.19816,0.91532,0.33545,,,0.80884,0.57064,0.14005,-0.02327,
4.88281,0.17275,0.00060,-0.44082,-0.19623,0.92939,0.33302,,,0.80883,0.57065,0.14006,-0.02330,
4.89063,0.00107,0.03640,-0.54549,-0.20155,0.91921,0.33204,,,0.80883,0.57064,0.14009,-0.02333,
4.89844,0.00107,0.21539,-0.51060,-0.19526,0.92454,0.33302,,,0.80882,0.57064,0.14012,-0.02335,
4.90625,0.24142,0.00060,-0.58039,-0.19961,0.91921,0.33399,,,0.80881,0.57064,0.14014,-0.02338,
4.91406,0.27576,0.07220,-0.51060,-0.20300,0.92988,0.33788,,,0.80880,0.57065,0.14016,-0.02341,
4.92188,0.10408,0.14379,-0.47571,-0.19236,0.91678,0.33399,,,0.80880,0.57066,0.14019,-0.02343,
4.92969,0.10408,0.03640,-0.51060,-0.19526,0.92066,0.34128,,,0.80879,0.57066,0.14021,-0.02346,
4.93750,0.27576,0.00060,-0.33614,-0.19961,0.92503,0.32816,,,0.80878,0.57067,0.14022,-0.02348,
4.94531,0.13842,0.07220,-0.47571,-0.19526,0.91824,0.34128,,,0.80877,0.57067,0.14025,-0.02351,
4.95313,0.10408,0.07220,-0.33614,-0.20107,0.92163,0.33156,,,0.80877,0.57067,0.14026,-0.02352,
4.96094,0.06975,0.17959,-0.58039,-0.19671,0.91969,0.34420,,,0.80876,0.57067,0.14030,-0.02355,
4.96875,0.17275,0.00060,-0.30124,-0.19478,0.91921,0.32572,,,0.80875,0.57068,0.14031,-0.02357,
4.97656,0.10408,0.14379,-0.44082,-0.19671,0.91969,0.34614,,,0.80875,0.57068,0.14033,-0.02359,
4.98438,0.06975,0.07220,-0.51060,-0.19671,0.91290,0.32913,,,0.80874,0.57068,0.14036,-0.02361,
4.99219,0.17275,0.07220,-0.82464,-0.20784,0.92260,0.34517,,,0.80873,0.57068,0.14039,-0.02366,
5.00000,0.10408,-0.03520,-0.51060,-0.20687,0.91678,0.32864,,,0.80873,0.57068,0.14041,-0.02369,
5.00781,0.10408,-0.07100,-0.51060,-0.20010,0.91775,0.33447,1021.688,24.5,0.80873,0.57068,0.14042,-0.02372,
5.01563,0.03541,0.10799,-0.37103,-0.19913,0.92745,0.33156,,,0.80872,0.57068,0.14044,-0.02374,
5.02344,-0.03326,0.07220,-0.23146,-0.20203,0.91726,0.34031,,,0.80872,0.57068,0.14046,-0.02374,
5.03125,0.06975,-0.07100,-0.02210,-0.20397,0.91824,0.33010,,,0.80872,0.57068,0.14045,-0.02375,
5.03906,0.20709,0.07220,0.01280,-0.19816,0.91629,0.34128,,,0.80871,0.57069,0.14046,-0.02375,
5.04688,0.20709,0.00060,-0.02210,-0.19913,0.93231,0.34663,,,0.80870,0.57071,0.14046,-0.02375,
5.05469,0.17275,0.03640,-0.19656,-0.19816,0.93133,0.34322,,,0.80870,0.57071,0.14047,-0.02376,
5.06250,0.31010,0.10799,-0.05699,-0.18849,0.92551,0.33836,,,0.80868,0.57073,0.14047,-0.02376,
5.07031,0.27576,0.03640,-0.09188,-0.19720,0.90902,0.32281,,,0.80867,0.57074,0.14048,-0.02377,
5.07813,0.31010,-0.10679,-0.05699,-0.20832,0.93085,0.33253,,,0.80866,0.57076,0.14048,-0.02378,
5.08594,0.34443,0.00060,-0.30124,-0.20107,0.92212,0.32767,,,0.80865,0.57078,0.14049,-0.02380,
5.09375,0.17275,0.07220,-0.44082,-0.19865,0.92309,0.33107,,,0.80864,0.57078,0.14051,-0.02382,
5.10156,0.31010,0.03640,-0.44082,-0.18704,0.91969,0.33934,,,0.80863,0.57079,0.14053,-0.02385,
5.10938,0.17275,-0.03520,-0.54549,-0.20494,0.92794,0.33934,,,0.80862,0.57080,0.14054,-0.02388,
5.11719,0.20709,-0.03520,-0.47571,-0.19816,0.91096,0.33204,,,0.80861,0.57081,0.14056,-0.02391,
5.12500,0.24142,-0.07100,-0.54549,-0.19961,0.91824,0.33642,,,0.80860,0.57081,0.14058,-0.02395,
5.13281,0.41310,0.00060,-0.54549,-0.19526,0.92018,0.33107,,,0.80858,0.57083,0.14060,-0.02398,
5.14063,0.37877,-0.10679,-0.47571,-0.19091,0.93522,0.34274,,,0.80857,0.57085,0.14061,-0.02401,
5.14844,0.24142,0.07220,-0.65017,-0.19236,0.92406,0.34225,,,0.80856,0.57085,0.14064,-0.02405,
5.15625,0.37877,0.10799,-0.54549,-0.19913,0.91678,0.33156,,,0.80854,0.57087,0.14067,-0.02408,
5.16406,0.31010,0.00060,-0.51060,-0.20107,0.91872,0.33204,,,0.80853,0.57088,0.14068,-0.02411,
5.17188,0.34443,0.00060,-0.40592,-0.19671,0.92988,0.33885,,,0.80852,0.57090,0.14070,-0.02414,
5.17969,0.27576,-0.03520,-0.44082,-0.19236,0.92406,0.33302,,,0.80850,0.57091,0.14071,-0.02416,
5.18750,0.27576,0.07220,-0.44082,-0.18946,0.92212,0.34906,,,0.80849,0.57092,0.14074,-0.02419,
5.19531,0.48177,0.03640,-0.33614,-0.20542,0.91096,0.33107,,,0.80847,0.57094,0.14075,-0.02421,
5.20313,0.37877,0.03640,-0.37103,-0.19575,0.91969,0.33350,,,0.80846,0.57096,0.14077,-0.02423,
5.21094,0.41310,0.03640,-0.54549,-0.20590,0.91290,0.32718,,,0.80844,0.57098,0.14079,-0.02427,
5.21875,0.34443,-0.03520,-0.54549,-0.18994,0.91775,0.34517,,,0.80843,0.57099,0.14081,-0.02430,
5.22656,0.37877,0.10799,-0.61528,-0.19188,0.92454,0.33156,,,0.80841,0.57101,0.14084,-0.02433,
5.23438,0.51611,0.03640,-0.92932,-0.19236,0.92503,0.34614,,,0.80839,0.57103,0.14087,-0.02439,
5.24219,0.34443,0.00060,-1.27825,-0.19381,0.91435,0.33496,,,0.80837,0.57103,0.14092,-0.02446,
5.25000,0.61912,0.14379,-1.55740,-0.22718,0.87263,0.34711,,,0.80834,0.57105,0.14099,-0.02455,
5.25781,0.89380,0.25118,-1.38293,-0.18849,0.97063,0.30191,,,0.80830,0.57109,0.14106,-0.02462,
5.26563,0.13842,-0.14259,-1.55740,-0.16334,0.92357,0.33496,,,0.80830,0.57108,0.14111,-0.02472,
5.27344,0.27576,0.07220,-2.42973,-0.19526,0.91629,0.34177,,,0.80828,0.57107,0.14121,-0.02485,
5.28125,0.41310,0.00060,-2.77866,-0.20590,0.90416,0.33982,,,0.80826,0.57107,0.14131,-0.02501,
5.28906,0.75646,-0.03520,-2.95312,-0.18317,0.93958,0.34128,,,0.80823,0.57108,0.14143,-0.02518,
5.29688,0.75646,0.07220,-3.89524,-0.18365,0.91581,0.31211,,,0.80819,0.57109,0.14158,-0.02540,
5.30469,0.34443,0.00060,-3.99992,-0.21026,0.90805,0.34079,,,0.80817,0.57107,0.14173,-0.02562,
5.31250,0.72212,0.10799,-3.61610,-0.24798,0.92648,0.34225,,,0.80813,0.57107,0.14188,-0.02582,
5.32031,0.68779,0.03640,-2.11569,-0.17882,0.93764,0.32816,,,0.80810,0.57109,0.14196,-0.02594,
5.32813,0.10408,0.07220,-3.23227,-0.16140,0.92406,0.34225,,,0.80809,0.57106,0.14209,-0.02612,
5.33594,0.06975,0.78815,-3.86035,-0.22332,0.94395,0.32767,,,0.80808,0.57103,0.14229,-0.02630,
5.34375,-0.41095,0.60916,-2.98802,-0.21413,0.91921,0.34274,,,0.80808,0.57098,0.14244,-0.02644,
5.35156,-0.30795,0.60916,-1.94122,-0.21413,0.92503,0.36072,,,0.80808,0.57095,0.14255,-0.02652,
5.35938,-0.27361,0.53757,-1.38293,-0.20348,0.89980,0.33885,,,0.80809,0.57092,0.14263,-0.02657,
5.36719,0.03541,0.75235,-0.82464,-0.23009,0.92357,0.34177,,,0.80808,0.57091,0.14270,-0.02659,
5.37500,-0.20494,0.96714,-0.47571,-0.20977,0.91726,0.33642,,,0.80807,0.57090,0.14278,-0.02658,
5.38281,-0.44529,1.14613,0.67577,-0.20348,0.92115,0.34322,,,0.80808,0.57088,0.14281,-0.02649,
5.39063,-0.51396,1.50411,1.09448,-0.19671,0.91532,0.32718,,,0.80809,0.57087,0.14285,-0.02637,
5.39844,-0.58263,1.64730,1.16427,-0.19720,0.92503,0.33836,,,0.80810,0.57085,0.14290,-0.02623,
5.40625,-1.23501,1.82628,0.39662,-0.17446,0.92600,0.31357,,,0.80813,0.57079,0.14299,-0.02613,
5.41406,-1.64704,2.11267,1.02470,-0.20300,0.91872,0.31649,,,0.80817,0.57071,0.14307,-0.02597,
5.42188,-1.99040,2.04107,1.19916,-0.23928,0.91338,0.32913,,,0.80823,0.57062,0.14314,-0.02581,
5.42969,-2.29942,1.86208,2.49021,-0.21509,0.91872,0.34371,,,0.80831,0.57052,0.14315,-0.02557,
5.43750,-2.53977,2.04107,3.92083,-0.21074,0.91872,0.34954,,,0.80839,0.57042,0.14311,-0.02525,
5.44531,-2.26508,1.89788,4.37444,-0.20832,0.91435,0.34809,,,0.80847,0.57034,0.14305,-0.02492,
5.45313,-1.40669,1.71889,4.82806,-0.19671,0.92551,0.32670,,,0.80852,0.57031,0.14296,-0.02457,
5.46094,-1.47536,1.64730,4.58380,-0.19188,0.92454,0.34177,,,0.80857,0.57028,0.14287,-0.02424,
5.46875,-1.37235,1.36091,3.18808,-0.17156,0.92745,0.33788,,,0.80861,0.57024,0.14283,-0.02400,
5.47656,-1.13200,1.18193,1.47831,-0.17591,0.92018,0.35683,,,0.80865,0.57019,0.14284,-0.02386,
5.48438,-0.82298,1.07453,0.98981,-0.19236,0.92697,0.33934,,,0.80867,0.57016,0.14286,-0.02375,
5.49219,-0.17060,0.43017,0.22216,-0.19042,0.92309,0.35100,,,0.80867,0.57015,0.14287,-0.02372,
5.50000,0.48177,0.00060,-0.65017,-0.18559,0.92406,0.35052,,,0.80865,0.57017,0.14290,-0.02376,
5.50781,1.03115,-0.03520,-0.99911,-0.18994,0.92260,0.35635,,,0.80861,0.57022,0.14293,-0.02383,
5.51563,1.54618,-0.42897,-1.55740,-0.19284,0.93425,0.35149,,,0.80855,0.57029,0.14297,-0.02395,
5.52344,2.02688,-0.53637,-2.22037,-0.19720,0.92357,0.32718,,,0.80848,0.57038,0.14302,-0.02411,
5.53125,2.16422,-0.57216,-2.56930,-0.20300,0.92648,0.33350,,,0.80839,0.57047,0.14308,-0.02430,
5.53906,2.23290,-0.64376,-2.88334,-0.20058,0.93328,0.33059,,,0.80831,0.57056,0.14316,-0.02450,
5.54688,2.12989,-0.57216,-2.98802,-0.19139,0.92697,0.33739,,,0.80823,0.57065,0.14324,-0.02471,
5.55469,2.02688,-0.50057,-3.23227,-0.19526,0.92794,0.32767,,,0.80815,0.57073,0.14333,-0.02493,
5.56250,1.47751,-0.46477,-3.51142,-0.19284,0.92018,0.33739,,,0.80809,0.57078,0.14344,-0.02515,
5.57031,1.37450,-0.21419,-3.58120,-0.21026,0.92018,0.32135,,,0.80803,0.57082,0.14357,-0.02537,
5.57813,1.51185,-0.21419,-3.37184,-0.17785,0.93231,0.31843,,,0.80797,0.57087,0.14368,-0.02558,
5.58594,0.68779,0.00060,-3.58120,-0.18172,0.93910,0.32086,,,0.80793,0.57087,0.14382,-0.02578,
5.59375,0.20709,0.50177,-4.06971,-0.19478,0.94540,0.34128,,,0.80791,0.57084,0.14401,-0.02599,
5.60156,-0.54830,0.53757,-4.31396,-0.19091,0.92745,0.31941,,,0.80792,0.57077,0.14421,-0.02620,
5.60938,-1.02900,0.64496,-3.82545,-0.20977,0.91678,0.34371,,,0.80795,0.57068,0.14439,-0.02638,
5.61719,-1.06333,0.82395,-3.40674,-0.20784,0.91144,0.32475,,,0.80798,0.57059,0.14457,-0.02652,
5.62500,-0.65130,0.96714,-2.91823,-0.20687,0.92163,0.33788,,,0.80799,0.57052,0.14474,-0.02664,
5.63281,-0.44529,1.03873,-2.91823,-0.20832,0.92406,0.33788,,,0.80799,0.57047,0.14491,-0.02675,
5.64063,-0.61697,0.96714,-2.84845,-0.20590,0.91193,0.33204,,,0.80800,0.57041,0.14508,-0.02687,
5.64844,-1.26935,1.14613,-2.67398,-0.21606,0.90950,0.32135,,,0.80803,0.57032,0.14525,-0.02696,
5.65625,-1.68138,1.07453,-2.25526,-0.22138,0.90562,0.33156,,,0.80808,0.57021,0.14540,-0.02702,
5.66406,-2.19641,1.14613,-1.45272,-0.21606,0.89543,0.32718,,,0.80815,0.57007,0.14552,-0.02704,
5.67188,-2.67711,1.36091,-0.05699,-0.21509,0.91338,0.33204,,,0.80824,0.56993,0.14560,-0.02696,
5.67969,-3.02047,1.61150,0.46641,-0.21026,0.91678,0.33885,,,0.80835,0.56977,0.14568,-0.02684,
5.68750,-3.02047,1.71889,1.02470,-0.19816,0.92066,0.34079,,,0.80845,0.56961,0.14574,-0.02669,
5.69531,-2.78012,1.57570,0.71066,-0.18897,0.92163,0.34711,,,0.80854,0.56947,0.14580,-0.02656,
5.70313,-2.74578,1.68309,0.04769,-0.19284,0.91435,0.34128,,,0.80863,0.56932,0.14590,-0.02647,
5.71094,-2.74578,1.43251,-0.75485,-0.20880,0.92018,0.33350,,,0.80872,0.56917,0.14601,-0.02642,
5.71875,-3.43250,1.68309,-0.71996,-0.21799,0.91581,0.33496,,,0.80884,0.56897,0.14614,-0.02636,
5.72656,-3.60418,1.82628,-0.44082,-0.22428,0.92066,0.34857,,,0.80896,0.56877,0.14626,-0.02628,
5.73438,-3.74152,1.93368,0.85023,-0.22235,0.91193,0.34079,,,0.80909,0.56858,0.14634,-0.02612,
5.74219,-3.70718,1.93368,1.86213,-0.23202,0.92745,0.34711,,,0.80921,0.56840,0.14638,-0.02591,
5.75000,-3.50117,1.96948,3.95573,-0.23396,0.90708,0.35343,,,0.80934,0.56825,0.14634,-0.02558,
5.75781,-2.81445,1.75469,5.77017,-0.20397,0.92794,0.34517,,,0.80944,0.56815,0.14622,-0.02516,
5.76563,-2.67711,2.07687,6.08421,-0.19816,0.92503,0.33739,,,0.80953,0.56807,0.14611,-0.02472,
5.77344,-2.16208,1.79049,6.01442,-0.18897,0.93328,0.35343,,,0.80961,0.56801,0.14598,-0.02430,
5.78125,-1.85305,1.86208,5.21188,-0.17688,0.92891,0.34371,,,0.80967,0.56796,0.14588,-0.02392,
5.78906,-1.54403,1.75469,4.30466,-0.17640,0.92600,0.34663,,,0.80972,0.56792,0.14581,-0.02360,
5.79688,-1.71571,1.71889,1.86213,-0.17156,0.92745,0.33982,,,0.80977,0.56785,0.14584,-0.02341,
5.80469,-1.81872,1.64730,-0.96421,-0.15947,0.93085,0.35732,,,0.80982,0.56774,0.14597,-0.02338,
5.81250,-1.64704,1.43251,-2.39483,-0.15850,0.92745,0.34517,,,0.80987,0.56763,0.14614,-0.02344,
5.82031,-0.92599,0.71655,-5.32586,-0.15657,0.95074,0.34857,,,0.80989,0.56753,0.14639,-0.02370,
5.82813,-0.10193,-0.35738,-9.23390,-0.14641,0.97112,0.34760,,,0.80988,0.56743,0.14673,-0.02422,
5.83594,0.51611,-1.03753,-11.43217,-0.14641,0.96481,0.34954,,,0.80985,0.56734,0.14711,-0.02490,
5.84375,1.68352,-2.29046,-17.04997,-0.11836,0.99974,0.34517,,,0.80978,0.56726,0.14764,-0.02595,
5.85156,1.92387,-2.64843,-20.53929,-0.10771,1.00508,0.34079,,,0.80970,0.56715,0.14828,-0.02720,
5.85938,1.58052,-3.47178,-29.54173,-0.09417,0.99392,0.33496,,,0.80961,0.56693,0.14923,-0.02898,
5.86719,1.82087,-3.32859,-39.73054,-0.08837,1.02206,0.33593,,,0.80950,0.56662,0.15058,-0.03132,
5.87500,1.44317,-3.14960,-44.82494,-0.07579,1.05700,0.34274,,,0.80937,0.56623,0.15213,-0.03393,
5.88281,-4.05054,-0.14259,-60.73624,0.21587,1.36945,0.45794,,,0.80938,0.56537,0.15448,-0.03725,
5.89063,-12.87482,31.25203,-97.19961,0.29955,1.47522,0.37482,,,0.80928,0.56371,0.15998,-0.04127,
5.89844,-19.94797,39.95088,-118.06574,0.25408,1.64357,0.34517,,,0.80925,0.56141,0.16677,-0.04603,
5.90625,-44.15465,53.48243,-166.88130,0.03159,1.95215,0.32816,,,0.80975,0.55720,0.17623,-0.05268,
5.91406,-76.05252,51.76414,-218.45342,-0.96094,2.18309,0.48711,,,0.81113,0.55049,0.18763,-0.06185,
5.92188,-88.51638,38.48318,-215.87133,-0.53529,2.07150,0.46378,,,0.81294,0.54293,0.19821,-0.07120,
5.92969,-105.03186,47.64740,-145.98028,-0.29538,1.43883,0.53231,,,0.81541,0.53532,0.20675,-0.07610,
5.93750,-102.18200,50.61861,-141.33949,-0.39986,1.32918,0.59016,,,0.81763,0.52787,0.21523,-0.08067,
5.94531,-87.52065,50.58281,-168.24213,0.15928,1.18120,0.39086,,,0.81904,0.52076,0.22457,-0.08693,
5.95313,-61.83754,67.90892,-201.94895,0.36823,1.20983,0.30871,,,0.81890,0.51456,0.23587,-0.09484,
5.96094,-47.82857,69.48402,-206.58974,0.43450,0.90271,-0.27168,,,0.81803,0.50896,0.24727,-0.10315,
5.96875,-14.24825,49.29410,-152.36574,0.30245,1.75322,0.09289,,,0.81658,0.50591,0.25539,-0.10969,
5.97656,-11.26104,10.38195,-34.98507,0.99654,1.15403,-0.21530,,,0.81652,0.50475,0.25726,-0.11108,
5.98438,-0.51396,7.84031,5.90974,0.89642,1.37576,-0.17204,,,0.81644,0.50489,0.25749,-0.11047,
5.99219,-1.88739,0.68076,30.57922,0.66715,1.52373,-0.12294,,,0.81672,0.50533,0.25649,-0.10871,
6.00000,-8.78887,-6.44299,25.03121,0.66183,1.15403,-0.23377,,,0.81732,0.50523,0.25533,-0.10739,
6.00781,-7.31243,-9.55740,31.66091,0.63861,1.05651,-0.28043,1021.723,24.5,0.81797,0.50530,0.25376,-0.10582,
6.01563,0.48177,-16.93173,65.08858,0.56171,0.81344,-0.40682,,,0.81871,0.50633,0.25057,-0.10278,
6.02344,7.52059,-20.08194,82.32582,0.48432,0.72902,-0.45543,,,0.81935,0.50801,0.24655,-0.09901,
6.03125,23.14334,-26.45393,102.11025,0.29955,0.60918,-0.51036,,,0.81966,0.51083,0.24137,-0.09460,
6.03906,40.34553,-34.25784,113.41564,0.18685,0.51069,-0.55070,,,0.81952,0.51471,0.23524,-0.09012,
6.04688,49.61617,-37.30065,118.37047,0.13848,0.46605,-0.56140,,,0.81907,0.51913,0.22868,-0.08561,
6.05469,69.42788,-43.70845,128.97800,0.05529,0.45392,-0.54487,,,0.81800,0.52474,0.22126,-0.08103,
6.06250,87.59147,-48.75593,137.10811,-0.01678,0.50147,-0.50307,,,0.81631,0.53139,0.21314,-0.07644,
6.07031,95.24833,-50.25944,139.37617,-0.05451,0.53786,-0.48702,,,0.81425,0.53841,0.20478,-0.07188,
6.07813,107.36884,-51.94193,140.45786,-0.14302,0.58104,-0.44085,,,0.81166,0.54604,0.19620,-0.06749,
6.08594,116.87983,-53.30224,139.72510,-0.26781,0.63344,-0.39126,,,0.80860,0.55408,0.18750,-0.06330,
6.09375,120.69109,-54.26878,138.57363,-0.33408,0.66255,-0.35918,,,0.80526,0.56223,0.17873,-0.05925,
6.10156,126.08180,-57.45478,134.03751,-0.47338,0.69797,-0.29016,,,0.80160,0.57050,0.16992,-0.05562,
6.10938,130.20208,-62.03689,126.43080,-0.53142,0.74551,-0.24738,,,0.79766,0.57880,0.16110,-0.05263,
6.11719,132.09055,-63.86258,121.89469,-0.52707,0.77608,-0.23766,,,0.79352,0.58704,0.15234,-0.04997,
6.12500,135.79880,-66.01044,113.79947,-0.50337,0.81441,-0.22842,,,0.78909,0.59530,0.14374,-0.04786,
6.13281,138.23664,-66.26103,111.74077,-0.50869,0.84109,-0.20606,,,0.78443,0.60356,0.13517,-0.04589,
6.14063,143.66168,-65.83145,110.86844,-0.53094,0.89058,-0.14627,,,0.77941,0.61201,0.12663,-0.04399,
6.14844,149.63609,-64.04157,109.47271,-0.55464,0.96578,-0.08114,,,0.77397,0.62066,0.11820,-0.04213,
6.15625,152.21127,-62.07269,107.58848,-0.55125,0.97549,-0.03544,,,0.76827,0.62932,0.10993,-0.04030,
6.16406,158.76939,-55.91548,100.29580,-0.54690,1.05894,0.05011,,,0.76209,0.63818,0.10225,-0.03864,
6.17188,162.88968,-46.03530,91.08400,-0.51111,1.15258,0.17017,,,0.75550,0.64710,0.09546,-0.03704,
6.17969,163.37038,-40.02128,86.16407,-0.52417,1.22293,0.23774,,,0.74870,0.65592,0.08918,-0.03543,
6.18750,159.52478,-28.45861,76.07994,-0.48015,1.27581,0.37920,,,0.74187,0.66441,0.08393,-0.03379,
6.19531,151.97092,-15.64302,62.92521,-0.46661,1.35392,0.55127,,,0.73518,0.67238,0.07994,-0.03218,
6.20313,147.16392,-9.62899,55.00445,-0.45258,1.36314,0.62516,,,0.72856,0.67999,0.07660,-0.03067,
6.21094,137.85895,1.21772,37.24382,-0.38148,1.33743,0.73988,,,0.72221,0.68700,0.07465,-0.02948,
6.21875,134.32237,6.15781,30.19540,-0.36600,1.32287,0.79626,,,0.71592,0.69375,0.07326,-0.02839,
6.22656,129.06900,12.92359,25.44993,-0.35343,1.34034,0.90515,,,0.70977,0.70017,0.07244,-0.02718,
6.23438,122.78557,14.78507,30.05583,-0.39551,1.34713,1.06264,,,0.70387,0.70626,0.07149,-0.02562,
6.24219,118.73396,13.56795,34.06854,-0.40857,1.33597,1.14868,,,0.69812,0.71212,0.07029,-0.02391,
6.25000,108.26156,8.19828,39.68635,-0.45500,1.35295,1.31493,,,0.69287,0.71745,0.06857,-0.02214,
6.25781,91.91777,0.39437,40.83782,-0.46564,1.37187,1.42041,,,0.68842,0.72196,0.06646,-0.02063,
6.26563,81.10202,-3.86556,40.45400,-0.47096,1.37915,1.45055,,,0.68450,0.72593,0.06417,-0.01928,
6.27344,55.96828,-12.77920,40.07017,-0.47967,1.34519,1.50013,,,0.68183,0.72869,0.06151,-0.01829,
6.28125,28.36237,-21.37065,40.07017,-0.47048,1.26028,1.52103,,,0.68056,0.73014,0.05850,-0.01761,
6.28906,14.62809,-24.98623,40.10506,-0.45355,1.21080,1.52783,,,0.67998,0.73094,0.05532,-0.01705,
6.29688,-11.63873,-29.71153,40.07017,-0.45113,1.11522,1.52540,,,0.68072,0.73051,0.05196,-0.01663,
6.30469,-34.95268,-32.25317,36.75532,-0.46709,0.99198,1.49770,,,0.68261,0.72897,0.04867,-0.01641,
6.31250,-45.28773,-32.75434,33.44047,-0.46322,0.94395,1.47923,,,0.68501,0.72693,0.04554,-0.01633,
6.32031,-63.41698,-32.36056,23.28655,-0.45113,0.83381,1.41555,,,0.68827,0.72399,0.04294,-0.01665,
6.32813,-70.97084,-31.35823,16.86620,-0.45790,0.80131,1.37909,,,0.69188,0.72066,0.04072,-0.01720,
6.33594,-82.67931,-28.49441,2.28085,-0.42695,0.67904,1.29451,,,0.69601,0.71672,0.03936,-0.01827,
6.34375,-88.07002,-23.66171,-12.51386,-0.39454,0.63780,1.21430,,,0.70035,0.71246,0.03896,-0.01978,
6.35156,-89.44345,-21.19167,-18.02698,-0.39019,0.59511,1.17931,,,0.70472,0.70810,0.03894,-0.02143,
6.35938,-87.38331,-17.50450,-23.67968,-0.36020,0.54125,1.07431,,,0.70893,0.70379,0.03937,-0.02318,
6.36719,-80.68784,-14.64068,-24.76136,-0.36939,0.58783,1.00528,,,0.71280,0.69979,0.03998,-0.02487,
6.37500,-77.70064,-14.28270,-24.37754,-0.35875,0.64799,0.97174,,,0.71649,0.69591,0.04058,-0.02652,
6.38281,-74.54175,-14.60488,-24.72647,-0.35149,0.77317,0.92168,,,0.72001,0.69216,0.04118,-0.02822,
6.39063,-76.67056,-15.67881,-29.78598,-0.35488,0.89640,0.87307,,,0.72361,0.68827,0.04196,-0.03020,
6.39844,-79.28008,-17.18232,-32.61233,-0.35536,0.92454,0.85022,,,0.72730,0.68422,0.04280,-0.03239,
6.40625,-84.77379,-21.44225,-35.78761,-0.31086,0.89495,0.78314,,,0.73122,0.67985,0.04360,-0.03492,
6.41406,-85.80386,-23.59011,-35.75272,-0.29974,0.84691,0.74571,,,0.73517,0.67539,0.04428,-0.03754,
6.42188,-109.80452,-28.95978,-91.65160,-0.70216,3.91129,0.78751,,,0.74005,0.66950,0.04733,-0.04313,
6.42969,-234.09979,-11.70526,-158.61162,1.08070,0.27101,-1.18457,,,0.75016,0.65702,0.05465,-0.05090,
6.43750,-168.24390,16.78974,-153.86614,0.76534,2.53533,-1.29443,,,0.75700,0.64783,0.06298,-0.05738,
6.44531,-223.79908,-0.50057,-190.50398,-0.42937,2.18843,-0.92888,,,0.76599,0.63534,0.07223,-0.06626,
6.45313,-241.44763,-26.41814,-180.62921,-0.15657,1.34082,0.15559,,,0.77560,0.62159,0.07975,-0.07563,
6.46094,-236.15993,-28.10063,-178.15180,-0.69975,0.89495,0.53669,,,0.78468,0.60786,0.08701,-0.08495,
6.46875,-197.46359,-42.38393,-126.82393,-1.15393,0.31079,0.69661,,,0.79227,0.59622,0.09113,-0.09230,
6.47656,-140.01995,-45.31935,-63.42301,-0.78826,0.22055,0.68932,,,0.79780,0.58794,0.09214,-0.09670,
6.48438,-109.39249,-44.74658,-38.89310,-0.38390,0.31662,0.70779,,,0.80218,0.58143,0.09199,-0.09992,
6.49219,-57.82026,-24.27027,-13.83980,-0.04338,0.74648,0.64120,,,0.80453,0.57801,0.09160,-0.10127,
6.50000,-42.43786,-14.56908,-9.72240,0.08092,0.89640,0.53766,,,0.80622,0.57551,0.09147,-0.10211,
6.50781,-30.62638,0.46597,-10.38537,-0.05161,1.06961,0.31260,,,0.80734,0.57377,0.09212,-0.10247,
6.51563,-33.81960,6.08622,-10.55984,-0.12271,0.82120,0.28489,,,0.80855,0.57188,0.09310,-0.10261,
6.52344,-32.51484,7.62552,-10.49005,-0.17253,0.67613,0.32281,,,0.80970,0.57007,0.09416,-0.10268,
6.53125,-23.41588,6.94536,-8.57093,-0.26636,0.61354,0.42537,,,0.81050,0.56877,0.09504,-0.10273,
6.53906,-18.40287,4.76170,-7.17520,-0.11932,0.72222,0.48079,,,0.81113,0.56774,0.09571,-0.10282,
6.54688,-16.99510,5.58505,-8.95475,-0.11400,0.80228,0.45794,,,0.81169,0.56678,0.09648,-0.10299,
6.55469,-15.48433,6.98116,-9.89687,-0.20397,0.89107,0.31795,,,0.81217,0.56591,0.09736,-0.10317,
6.56250,-16.51440,6.01462,-7.83817,-0.28619,0.88476,0.29753,,,0.81271,0.56498,0.09811,-0.10326,
6.57031,-15.69034,5.40606,-6.51223,-0.24508,0.91726,0.34663,,,0.81324,0.56411,0.09877,-0.10331,
6.57813,-14.79762,4.86909,-6.02372,-0.12996,0.93570,0.42635,,,0.81373,0.56328,0.09938,-0.10335,
6.58594,-11.63873,5.11968,-11.43217,-0.20445,0.98179,0.36850,,,0.81406,0.56259,0.10018,-0.10371,
6.59375,-11.15803,4.76170,-11.67642,-0.22815,0.95850,0.31892,,,0.81437,0.56193,0.10097,-0.10410,
6.60156,-10.09362,3.75936,-9.05943,-0.27894,0.92794,0.35683,,,0.81467,0.56133,0.10160,-0.10439,
6.60938,-9.88761,3.15080,-7.69860,-0.28087,0.90659,0.39378,,,0.81497,0.56075,0.10214,-0.10463,
6.61719,-7.10642,2.25586,-3.16248,-0.25814,0.89980,0.37531,,,0.81520,0.56035,0.10244,-0.10467,
6.62500,-5.38963,1.71889,-1.59229,-0.16044,0.93910,0.33788,,,0.81539,0.56005,0.10263,-0.10465,
6.63281,-4.46257,2.04107,-2.11569,-0.21316,0.98373,0.35829,,,0.81553,0.55980,0.10286,-0.10466,
6.64063,-5.18362,1.36091,-3.44163,-0.25040,0.90271,0.40058,,,0.81569,0.55950,0.10310,-0.10477,
6.64844,-3.19215,0.57336,-1.24336,-0.27265,0.90271,0.36947,,,0.81580,0.55932,0.10320,-0.10479,
6.65625,-3.19215,0.14379,0.64087,-0.26346,0.90562,0.39183,,,0.81593,0.55915,0.10321,-0.10473,
6.66406,-2.16208,-0.17839,2.49021,-0.23879,0.91241,0.38940,,,0.81603,0.55904,0.10312,-0.10458,
6.67188,-2.05907,-0.78695,3.15318,-0.18172,0.89301,0.43558,,,0.81613,0.55894,0.10297,-0.10442,
6.67969,-0.99466,-0.64376,1.72256,-0.18656,0.89204,0.40739,,,0.81619,0.55890,0.10288,-0.10434,
6.68750,0.27576,-1.00174,1.05959,-0.15125,0.94346,0.37725,,,0.81619,0.55891,0.10278,-0.10432,
6.69531,-0.13627,-1.00174,-0.16167,-0.17301,0.92454,0.35489,,,0.81620,0.55890,0.10273,-0.10437,
6.70313,-0.85732,-1.39551,-3.12759,-0.18075,0.88524,0.42829,,,0.81622,0.55882,0.10278,-0.10459,
6.71094,1.61485,-1.46711,-3.96503,-0.23831,0.87748,0.38357,,,0.81615,0.55887,0.10283,-0.10488,
6.71875,3.26297,-1.53870,-2.18547,-0.22718,0.95171,0.37531,,,0.81602,0.55902,0.10281,-0.10508,
6.72656,2.81660,-1.68189,-2.08079,-0.22332,0.92309,0.35440,,,0.81591,0.55915,0.10277,-0.10528,
6.73438,1.51185,-2.18306,-1.34804,-0.21461,0.90125,0.40544,,,0.81585,0.55921,0.10269,-0.10545,
6.74219,1.75220,-1.71769,-1.34804,-0.25234,0.87748,0.41808,,,0.81579,0.55929,0.10264,-0.10560,
6.75000,3.26297,-1.82509,0.11748,-0.23299,0.91144,0.37433,,,0.81568,0.55946,0.10251,-0.10569,
6.75781,2.78227,-1.82509,0.04769,-0.19961,0.92503,0.38260,,,0.81559,0.55960,0.10238,-0.10577,
6.76563,1.75220,-2.07567,-0.99911,-0.15270,0.87797,0.42149,,,0.81553,0.55967,0.10229,-0.10592,
6.77344,2.91961,-1.39551,-2.77866,-0.21461,0.85904,0.41857,,,0.81540,0.55981,0.10230,-0.10615,
6.78125,4.46472,-1.03753,-1.06889,-0.21316,0.86390,0.37871,,,0.81523,0.56004,0.10225,-0.10628,
6.78906,3.09129,-1.43131,-1.73186,-0.17350,0.88621,0.33885,,,0.81511,0.56019,0.10221,-0.10645,
6.79688,2.71360,-0.93014,-2.84845,-0.18946,0.93764,0.36267,,,0.81500,0.56031,0.10225,-0.10666,
6.80469,1.40884,-0.75115,-2.56930,-0.21848,0.91144,0.39718,,,0.81493,0.56037,0.10230,-0.10684,
6.81250,2.57625,-0.75115,-2.95312,-0.24218,0.87845,0.34711,,,0.81481,0.56049,0.10235,-0.10705,
6.82031,2.98828,-1.03753,-1.20847,-0.20203,0.91241,0.32572,,,0.81470,0.56064,0.10232,-0.10718,
6.82813,2.81660,-0.57216,-1.34804,-0.21461,0.95365,0.37774,,,0.81458,0.56078,0.10231,-0.10730,
6.83594,1.95821,-0.53637,-2.18547,-0.23202,0.87797,0.42343,,,0.81450,0.56087,0.10235,-0.10745,
6.84375,4.36171,-0.67956,-0.99911,-0.22960,0.87166,0.35246,,,0.81433,0.56110,0.10232,-0.10757,
6.85156,5.18577,-0.46477,-0.54549,-0.22428,0.91096,0.35781,,,0.81413,0.56138,0.10228,-0.10765,
6.85938,4.56772,-0.24998,-0.02210,-0.23347,0.93036,0.37725,,,0.81396,0.56163,0.10223,-0.10769,
6.86719,3.88101,-0.46477,0.60598,-0.22670,0.91387,0.41468,,,0.81381,0.56185,0.10215,-0.10770,
6.87500,3.60632,-0.78695,0.08258,-0.18704,0.86923,0.34614,,,0.81368,0.56204,0.10208,-0.10775,
6.88281,3.64066,-0.53637,-0.05699,-0.17882,0.92745,0.33059,,,0.81355,0.56224,0.10203,-0.10780,
6.89063,2.26723,-0.32158,0.29194,-0.21267,0.95414,0.35829,,,0.81346,0.56236,0.10198,-0.10781,
6.89844,0.06975,-0.75115,-1.34804,-0.18365,0.86729,0.41274,,,0.81346,0.56235,0.10199,-0.10792,
6.90625,1.95821,-0.67956,-2.63909,-0.20252,0.89155,0.33204,,,0.81337,0.56244,0.10204,-0.10810,
6.91406,2.98828,0.03640,-2.15058,-0.24895,0.99586,0.35538,,,0.81324,0.56259,0.10210,-0.10824,
6.92188,1.13415,-0.32158,-2.29015,-0.23057,0.96578,0.35975,,,0.81318,0.56263,0.10216,-0.10839,
6.92969,0.41310,-0.50057,-2.56930,-0.24024,0.91047,0.40107,,,0.81315,0.56263,0.10223,-0.10855,
6.93750,1.64919,-0.42897,-2.46462,-0.23541,0.88330,0.33788,,,0.81307,0.56271,0.10229,-0.10872,
6.94531,2.64492,-0.60796,-1.10379,-0.22815,0.94783,0.36656,,,0.81296,0.56284,0.10228,-0.10882,
6.95313,3.29730,-0.64376,-0.96421,-0.24798,1.00217,0.39329,,,0.81283,0.56301,0.10225,-0.10892,
6.96094,1.23716,-1.57450,-0.12678,-0.17688,0.87117,0.41128,,,0.81280,0.56307,0.10216,-0.10900,
6.96875,2.88527,-1.14493,-1.55740,-0.18075,0.90999,0.35003,,,0.81268,0.56321,0.10214,-0.10915,
6.97656,2.61059,-0.96594,-0.19656,-0.22380,0.91096,0.30823,,,0.81259,0.56334,0.10207,-0.10921,
6.98438,1.23716,-0.64376,-1.24336,-0.18510,0.90368,0.33399,,,0.81253,0.56340,0.10207,-0.10932,
6.99219,-0.96033,-1.25232,-0.82464,-0.22525,0.93133,0.36121,,,0.81257,0.56333,0.10204,-0.10940,
7.00000,0.55045,-0.75115,-0.26635,-0.21654,0.88767,0.37045,,,0.81256,0.56335,0.10201,-0.10945,
7.00781,1.37450,-0.96594,-0.51060,-0.23202,0.92842,0.36170,1021.706,24.5,0.81251,0.56342,0.10196,-0.10952,
7.01563,-1.26935,-1.82509,1.16427,-0.17204,0.90611,0.32232,,,0.81258,0.56334,0.10183,-0.10952,
7.02344,-2.26508,-1.35971,-0.02210,-0.21848,1.05069,0.45843,,,0.81267,0.56321,0.10177,-0.10956,
7.03125,-2.78012,-1.21652,-0.37103,-0.25185,0.94443,0.41274,,,0.81279,0.56304,0.10173,-0.10961,
7.03906,-2.53977,-2.43365,-0.12678,-0.25089,1.08465,0.32864,,,0.81290,0.56288,0.10162,-0.10969,
7.04688,-8.78887,-3.79396,-2.74377,-0.16576,0.91241,0.31260,,,0.81324,0.56235,0.10158,-0.10993,
7.05469,-11.26104,-4.40252,-3.65099,-0.22477,1.02691,0.34565,,,0.81368,0.56167,0.10156,-0.11022,
7.06250,-18.19685,-6.29980,-1.17357,-0.48112,1.07155,0.40690,,,0.81441,0.56060,0.10140,-0.11040,
7.07031,-20.15399,-10.70293,3.78126,-0.46129,1.16276,0.32718,,,0.81528,0.55943,0.10081,-0.11046,
7.07813,-30.11134,-17.03913,10.06203,-0.49950,1.39613,0.38357,,,0.81662,0.55769,0.09971,-0.11034,
7.08594,-31.17575,-19.83135,13.58624,-0.40325,1.20934,0.34760,,,0.81804,0.55590,0.09832,-0.11013,
7.09375,-44.25765,-22.94576,14.66793,-0.35730,1.18945,0.47350,,,0.81997,0.55335,0.09681,-0.10988,
7.10156,-45.87143,-25.59479,16.93599,-0.42743,1.73624,0.40301,,,0.82199,0.55071,0.09509,-0.10960,
7.10938,-54.55837,-27.02670,17.25003,-0.35923,1.13753,0.35489,,,0.82434,0.54755,0.09333,-0.10929,
7.11719,-60.46411,-29.35355,11.28329,-0.25137,1.30249,0.42440,,,0.82686,0.54400,0.09171,-0.10937,
7.12500,-69.49440,-28.88818,12.39988,-0.30022,1.28939,0.44628,,,0.82969,0.53994,0.09014,-0.10930,
7.13281,-73.03098,-30.24850,10.13182,-0.25814,1.26125,0.37774,,,0.83263,0.53564,0.08860,-0.10939,
7.14063,-83.88106,-32.21737,12.74881,-0.23879,1.41797,0.43169,,,0.83597,0.53070,0.08693,-0.10933,
7.14844,-92.53366,-32.32476,9.46885,-0.25669,1.48055,0.53718,,,0.83956,0.52523,0.08543,-0.10941,
7.15625,-99.50381,-32.64694,8.07312,-0.24556,1.43737,0.55079,,,0.84335,0.51933,0.08401,-0.10954,
7.16406,-108.08774,-32.86173,10.23650,-0.30603,1.54072,0.44336,,,0.84742,0.51291,0.08256,-0.10949,
7.17188,-115.50425,-33.61348,9.01524,-0.29345,1.56449,0.36024,,,0.85168,0.50603,0.08117,-0.10949,
7.17969,-131.57336,-35.68975,9.74799,-0.28958,1.57807,0.35197,,,0.85645,0.49815,0.07974,-0.10942,
7.18750,-147.53947,-38.19559,11.00415,-0.30312,1.70082,0.41274,,,0.86171,0.48929,0.07823,-0.10927,
7.19531,-154.81864,-39.44852,13.76071,-0.32344,1.82940,0.42246,,,0.86713,0.47995,0.07660,-0.10894,
7.20313,-173.18824,-41.66798,17.42449,-0.29297,1.99339,0.36364,,,0.87308,0.46946,0.07485,-0.10836,
7.21094,-196.19317,-43.67265,20.94871,-0.36020,2.18212,0.36364,,,0.87965,0.45752,0.07302,-0.10750,
7.21875,-210.51116,-45.60573,25.38014,-0.38583,2.23937,0.44044,,,0.88653,0.44465,0.07103,-0.10634,
7.22656,-238.25441,-48.93492,31.31198,-0.41679,2.40967,0.27517,,,0.89409,0.42999,0.06884,-0.10476,
7.23438,-270.59865,-53.94660,39.72124,-0.41195,2.48002,0.21198,,,0.90239,0.41323,0.06630,-0.10263,
7.24219,-287.80084,-56.91782,42.68716,-0.33166,2.46401,0.21247,,,0.91087,0.39524,0.06360,-0.10029,
7.25000,-319.87039,-59.67424,46.17648,-0.10578,2.38298,0.33010,,,0.91983,0.37508,0.06082,-0.09762,
7.25781,-332.09390,-58.13494,48.30496,-0.10965,2.43684,0.42586,,,0.92863,0.35398,0.05813,-0.09467,
7.26563,-354.48079,-59.92483,50.99174,-0.18414,2.17387,0.42829,,,0.93746,0.33126,0.05538,-0.09146,
7.27344,-368.69577,-65.75986,58.52866,-0.26491,2.14913,0.31260,,,0.94609,0.30741,0.05214,-0.08778,
7.28125,-378.68746,-68.65948,60.16864,-0.28619,2.08605,0.30823,,,0.95429,0.28269,0.04870,-0.08396,
7.28906,-394.82524,-67.47815,55.84189,-0.29200,1.77651,0.12448,,,0.96207,0.25671,0.04547,-0.08029,
7.29688,-410.48233,-66.54741,38.29062,-0.44823,1.72799,0.18719,,,0.96928,0.22946,0.04267,-0.07763,
7.30469,-419.47828,-68.62368,28.17159,-0.37132,1.65667,0.13032,,,0.97578,0.20138,0.03990,-0.07559,
7.31250,-424.45696,-71.02213,6.92165,-0.21413,1.07058,-0.11759,,,0.98141,0.17272,0.03725,-0.07492,
7.32031,-386.41299,-61.53572,0.39662,0.13848,0.47236,-0.50647,,,0.98577,0.14650,0.03509,-0.07461,
7.32813,-354.10309,-48.39795,2.90893,0.35711,0.11042,-0.75195,,,0.98914,0.12243,0.03360,-0.07403,
7.33594,-270.52998,5.29867,10.65522,0.70149,-0.72069,-0.85743,,,0.99127,0.10422,0.03522,-0.07264,
7.34375,-148.22618,41.88396,-41.44031,0.16944,-0.89002,-0.63431,,,0.99196,0.09430,0.03908,-0.07478,
7.35156,-79.96679,49.54468,-41.64966,-0.01436,-0.15352,-0.54390,,,0.99211,0.08903,0.04310,-0.07706,
7.35938,-4.73725,59.10268,-45.20877,0.21684,0.01435,-0.59591,,,0.99171,0.08889,0.04740,-0.07975,
7.36719,25.68418,67.90892,-52.95506,0.15299,0.16961,-0.58667,,,0.99103,0.09082,0.05217,-0.08300,
7.37500,67.47074,76.53618,-61.32942,0.07512,0.65284,-0.44765,,,0.98996,0.09560,0.05734,-0.08690,
7.38281,78.76719,80.18755,-51.59422,0.15589,0.72465,-0.42335,,,0.98879,0.10119,0.06261,-0.09017,
7.39063,80.20929,82.51440,-43.84794,0.17669,0.65915,-0.42286,,,0.98758,0.10691,0.06798,-0.09289,
7.39844,84.81028,86.16577,-24.65668,0.16895,0.57036,-0.40925,,,0.98637,0.11305,0.07342,-0.09431,
7.40625,90.51000,87.45449,-6.23308,0.10124,0.51748,-0.38932,,,0.98516,0.11967,0.07877,-0.09451,
7.41406,94.04658,87.02492,0.74555,0.04900,0.48255,-0.38689,,,0.98389,0.12655,0.08400,-0.09425,
7.42188,104.34729,84.51908,7.86376,-0.06999,0.37823,-0.38057,,,0.98252,0.13413,0.08893,-0.09359,
7.42969,120.51941,78.43346,6.64250,-0.20639,0.29187,-0.39126,,,0.98094,0.14274,0.09335,-0.09315,
7.43750,130.51110,73.88715,3.04850,-0.24508,0.26810,-0.39369,,,0.97916,0.15195,0.09743,-0.09305,
7.44531,154.37442,62.32447,-7.66370,-0.29587,0.25306,-0.39515,,,0.97704,0.16259,0.10068,-0.09394,
7.45313,167.14731,56.05987,-12.72322,-0.29297,0.26664,-0.40099,,,0.97465,0.17399,0.10348,-0.09530,
7.46094,192.79608,42.85050,-17.60826,-0.27652,0.33699,-0.39126,,,0.97185,0.18694,0.10528,-0.09732,
7.46875,216.93408,29.06837,-13.77001,-0.23976,0.42239,-0.38494,,,0.96868,0.20139,0.10593,-0.09940,
7.47656,228.26487,22.37419,-9.68751,-0.20832,0.47867,-0.37522,,,0.96520,0.21652,0.10598,-0.10137,
7.48438,247.90489,10.41774,1.05959,-0.16817,0.58832,-0.33779,,,0.96133,0.23288,0.10492,-0.10293,
7.49219,264.00834,0.96714,9.15481,-0.08450,0.67807,-0.29064,,,0.95704,0.25022,0.10297,-0.10418,
7.50000,271.01282,-1.75349,10.72500,-0.07531,0.72174,-0.25807,,,0.95234,0.26793,0.10073,-0.10540,
7.50781,283.85438,-5.94183,12.57434,-0.03419,0.83187,-0.18662,,,0.94711,0.28635,0.09806,-0.10662,
7.51563,293.53705,-5.65544,14.77261,0.06448,0.94929,-0.13849,,,0.94134,0.30530,0.09525,-0.10771,
7.52344,297.62300,-3.40019,14.98197,0.08915,0.99150,-0.12051,,,0.93508,0.32441,0.09251,-0.10873,
7.53125,305.24553,2.86442,14.14454,0.12204,1.09629,-0.07676,,,0.92821,0.34391,0.09010,-0.10967,
7.53906,312.04400,12.02864,15.99387,0.17814,1.19236,-0.05732,,,0.92073,0.36377,0.08813,-0.11026,
7.54688,315.34023,17.32671,18.19214,0.19507,1.24524,-0.00774,,,0.91273,0.38372,0.08637,-0.11056,
7.55469,321.07429,29.42635,24.68228,0.18830,1.37915,0.04379,,,0.90412,0.40397,0.08512,-0.11012,
7.56250,323.34045,35.33297,28.48563,0.17282,1.45727,0.08365,,,0.89500,0.42423,0.08406,-0.10923,
7.57031,325.29758,46.53767,35.49916,0.11236,1.59312,0.15073,,,0.88536,0.44452,0.08343,-0.10756,
7.57813,324.98856,55.37971,39.82592,0.07270,1.74449,0.22073,,,0.87527,0.46466,0.08316,-0.10529,
7.58594,323.85548,59.28167,41.22165,0.06061,1.81581,0.26253,,,0.86474,0.48452,0.08304,-0.10277,
7.59375,319.90687,66.76340,44.43182,0.06690,1.94438,0.37336,,,0.85389,0.50398,0.08324,-0.09972,
7.60156,314.61918,74.06614,50.18919,0.01466,2.02056,0.51093,,,0.84279,0.52295,0.08367,-0.09602,
7.60938,312.04400,76.50038,53.88787,-0.01968,2.03026,0.58530,,,0.83138,0.54156,0.08408,-0.09195,
7.61719,309.22847,77.18054,58.17973,-0.17688,2.01134,0.76370,,,0.81968,0.55977,0.08434,-0.08755,
7.62500,308.19840,69.51982,61.11076,-0.30506,2.04481,0.96640,,,0.80769,0.57762,0.08403,-0.08324,
7.63281,307.23700,62.68245,62.68095,-0.30361,2.03414,1.08452,,,0.79540,0.59511,0.08325,-0.07906,
7.64063,303.35706,50.40383,69.38044,-0.24750,2.08266,1.32027,,,0.78300,0.61208,0.08152,-0.07495,
7.64844,298.68741,45.64273,73.84677,-0.18220,2.10692,1.42381,,,0.77049,0.62852,0.07933,-0.07075,
7.65625,283.68270,40.09407,79.42968,-0.11110,2.05549,1.61485,,,0.75835,0.64391,0.07664,-0.06638,
7.66406,263.87100,38.19679,80.47648,-0.05354,1.99581,1.76602,,,0.74681,0.65802,0.07387,-0.06191,
7.67188,252.02518,38.76956,79.11564,-0.04290,1.93468,1.82289,,,0.73552,0.67130,0.07122,-0.05740,
7.67969,227.57815,40.20147,76.32419,-0.11884,1.75225,1.87539,,,0.72512,0.68314,0.06884,-0.05283,
7.68750,204.05819,37.62403,79.95308,-0.32489,1.58293,1.92935,,,0.71565,0.69365,0.06624,-0.04808,
7.69531,192.83042,33.61468,83.86112,-0.41727,1.50918,1.93081,,,0.70659,0.70346,0.06327,-0.04326,
7.70313,168.14304,26.27615,88.60659,-0.60446,1.18266,1.92886,,,0.69862,0.71195,0.05979,-0.03846,
7.71094,152.41729,13.85433,80.72073,-0.74231,1.12832,2.05184,,,0.69134,0.71952,0.05613,-0.03456,
7.71875,142.21958,8.55626,71.78807,-0.75730,1.09144,2.10045,,,0.68446,0.72647,0.05267,-0.03131,
7.72656,119.97004,-0.93014,44.22246,-0.70894,0.95511,2.13983,,,0.67860,0.73218,0.05018,-0.02972,
7.73438,109.11996,-4.58151,28.93924,-0.66395,0.95608,2.15247,,,0.67322,0.73729,0.04831,-0.02899,
7.74219,82.75013,-11.34729,2.97872,-0.54061,1.00896,2.18163,,,0.66910,0.74106,0.04747,-0.02970,
7.75000,51.50464,-18.61423,-10.31559,-0.37616,1.04341,2.16122,,,0.66655,0.74332,0.04704,-0.03127,
7.75781,34.61147,-21.58544,-12.54875,-0.30119,1.01284,2.12719,,,0.66484,0.74480,0.04662,-0.03305,
7.76563,2.74793,-26.48973,-10.83898,-0.22525,0.98179,2.03580,,,0.66477,0.74482,0.04596,-0.03490,
7.77344,-25.23567,-31.17924,-5.77947,-0.20058,0.95608,1.92643,,,0.66614,0.74357,0.04490,-0.03666,
7.78125,-37.59653,-33.21971,-4.10460,-0.19478,1.19818,1.82873,,,0.66814,0.74175,0.04370,-0.03842,
7.78906,-122.81776,-45.42674,-45.55770,-0.59769,1.34762,2.31142,,,0.67435,0.73586,0.04425,-0.04243,
7.79688,-250.82128,-57.45478,-129.33623,-0.63155,1.31074,2.11406,,,0.68661,0.72363,0.04882,-0.05049,
7.80469,-299.78400,-55.02054,-156.30867,0.24247,1.04826,1.60075,,,0.70086,0.70868,0.05497,-0.05951,
7.81250,-337.55328,-37.08586,-178.84966,-0.05983,0.78433,0.91341,,,0.71634,0.69149,0.06318,-0.06856,
7.82031,-330.75481,-44.56759,-175.29056,-0.39551,0.96190,-0.14190,,,0.73106,0.67415,0.07080,-0.07777,
7.82813,-318.73731,-48.79173,-166.63705,-0.50869,1.06379,-0.40974,,,0.74484,0.65701,0.07769,-0.08675,
7.83594,-286.56475,-64.75752,-129.78985,-0.40034,1.16956,-0.41508,,,0.75706,0.64123,0.08189,-0.09470,
7.84375,-278.90789,-63.86258,-118.69381,-0.40712,1.14966,-0.07044,,,0.76867,0.62562,0.08557,-0.10204,
7.85156,-262.73577,-57.81276,-94.09412,-0.31570,0.75182,0.50315,,,0.77942,0.61079,0.08836,-0.10789,
7.85938,-237.43035,-38.91155,-70.36675,-0.36068,0.73872,0.53669,,,0.78891,0.59737,0.09096,-0.11180,
7.86719,-221.60159,-30.71387,-57.49117,-0.25572,0.60287,0.47350,,,0.79759,0.58479,0.09332,-0.11475,
7.87500,-175.86643,-4.25933,-32.89148,-0.00227,0.49710,0.60863,,,0.80431,0.57494,0.09577,-0.11559,
7.88281,-111.65865,25.95397,-21.55119,-0.19961,0.34379,0.69321,,,0.80832,0.56886,0.09892,-0.11502,
7.89063,-79.41742,32.18277,-18.27123,-0.35488,0.38066,0.70293,,,0.81103,0.56460,0.10202,-0.11424,
7.89844,-38.00856,20.97808,-18.82952,-0.50482,0.45974,0.72870,,,0.81220,0.56252,0.10420,-0.11421,
7.90625,-12.29111,8.52046,-19.49249,-0.21799,0.88476,0.45600,,,0.81246,0.56177,0.10552,-0.11487,
7.91406,-7.51845,7.58972,-17.32912,-0.16237,1.04584,0.29996,,,0.81255,0.56129,0.10666,-0.11549,
7.92188,-12.87482,11.02631,-11.81599,-0.23831,0.81538,0.37093,,,0.81287,0.56057,0.10782,-0.11563,
7.92969,-14.21391,11.95705,-7.90796,-0.38777,0.65381,0.48468,,,0.81326,0.55982,0.10890,-0.11551,
7.93750,-4.97760,6.65898,1.68767,-0.27168,0.74503,0.50509,,,0.81342,0.55961,0.10924,-0.11512,
7.94531,-1.81872,4.00995,-0.85953,0.00305,1.03031,0.36656,,,0.81345,0.55953,0.10951,-0.11500,
7.95313,-4.59991,4.40372,-6.30287,-0.00517,1.02449,0.35343,,,0.81355,0.55927,0.11003,-0.11515,
7.96094,-7.96481,5.08388,-15.54956,-0.20058,0.84449,0.43121,,,0.81369,0.55875,0.11097,-0.11576,
7.96875,-2.26508,3.72357,-15.34020,-0.31280,0.89301,0.37385,,,0.81362,0.55853,0.11178,-0.11645,
7.97656,-1.37235,3.00761,-11.29260,-0.30457,0.93182,0.33593,,,0.81356,0.55840,0.11238,-0.11695,
7.98438,-4.15355,2.50644,-3.44163,-0.34617,0.81392,0.44822,,,0.81368,0.55816,0.11269,-0.11701,
7.99219,-0.96033,1.61150,5.14209,-0.31183,0.84788,0.40885,,,0.81374,0.55816,0.11259,-0.11666,
8.00000,1.30583,0.85975,9.32928,-0.27072,0.98810,0.40544,,,0.81376,0.55831,0.11227,-0.11612,
8.00781,-0.10193,-0.53637,9.53864,-0.21509,0.94152,0.39281,1021.679,24.5,0.81384,0.55837,0.11188,-0.11561,
8.01563,0.24142,-1.00174,8.49184,-0.22912,0.90319,0.40885,,,0.81391,0.55844,0.11150,-0.11518,
8.02344,0.44744,-2.11147,8.07312,-0.23541,0.83478,0.46766,,,0.81397,0.55851,0.11107,-0.11481,
8.03125,4.36171,-2.57684,9.85267,-0.25959,0.93376,0.38357,,,0.81390,0.55881,0.11051,-0.11440,
8.03906,4.05269,-3.50758,11.03904,-0.18317,0.92503,0.36315,,,0.81386,0.55909,0.10987,-0.11395,
8.04688,3.53765,-3.57917,9.39906,-0.17688,0.89204,0.42197,,,0.81382,0.55933,0.10928,-0.11359,
8.05469,4.70507,-3.54338,7.79398,-0.18123,0.88379,0.41274,,,0.81373,0.55962,0.10875,-0.11333,
8.06250,5.39178,-3.36439,7.34036,-0.17156,0.93036,0.38794,,,0.81361,0.55994,0.10824,-0.11309,
8.07031,3.81234,-3.14960,4.37444,-0.15221,0.92115,0.35829,,,0.81352,0.56016,0.10787,-0.11299,
8.07813,2.85094,-2.75583,0.71066,-0.14931,0.90416,0.38551,,,0.81344,0.56031,0.10767,-0.11308,
8.08594,2.19856,-2.32625,-0.65017,-0.16576,0.87069,0.41322,,,0.81336,0.56040,0.10755,-0.11322,
8.09375,3.84667,-1.43131,-2.29015,-0.24218,0.84206,0.35683,,,0.81321,0.56059,0.10752,-0.11343,
8.10156,3.67499,-1.75349,-1.34804,-0.18849,0.88961,0.35343,,,0.81307,0.56077,0.10745,-0.11360,
8.10938,3.74367,-1.21652,-1.52250,-0.20010,0.93813,0.41371,,,0.81293,0.56096,0.10741,-0.11375,
8.11719,2.95395,-0.93014,-3.12759,-0.23831,0.87166,0.41565,,,0.81280,0.56109,0.10746,-0.11398,
8.12500,4.22437,-0.60796,-3.82545,-0.21316,0.86487,0.35343,,,0.81261,0.56129,0.10753,-0.11425,
8.13281,3.43465,-1.03753,-2.08079,-0.20010,0.91435,0.35003,,,0.81247,0.56146,0.10753,-0.11443,
8.14063,3.15996,-0.17839,-3.44163,-0.23154,0.94249,0.39281,,,0.81232,0.56161,0.10763,-0.11465,
8.14844,0.92814,-1.32392,-2.49951,-0.20010,0.84934,0.41176,,,0.81228,0.56163,0.10764,-0.11485,
8.15625,3.22863,-0.89434,-2.67398,-0.21026,0.85953,0.34371,,,0.81214,0.56178,0.10767,-0.11505,
8.16406,1.82087,-0.67956,-1.59229,-0.18559,0.81150,0.32427,,,0.81206,0.56187,0.10768,-0.11518,
8.17188,2.85094,-0.28578,-0.92932,-0.23928,0.95947,0.40836,,,0.81195,0.56201,0.10767,-0.11526,
8.17969,0.58478,-0.07100,-2.08079,-0.26491,0.79937,0.43412,,,0.81191,0.56203,0.10774,-0.11538,
8.18750,2.23290,-1.71769,-0.58039,-0.22718,0.93619,0.35489,,,0.81183,0.56214,0.10765,-0.11550,
8.19531,3.15996,-0.39318,-0.61528,-0.23541,0.97112,0.37725,,,0.81171,0.56230,0.10763,-0.11557,
8.20313,1.82087,-1.18073,-0.05699,-0.25814,1.00363,0.35100,,,0.81165,0.56239,0.10755,-0.11563,
8.21094,1.16849,-1.93248,-0.09188,-0.19284,0.91581,0.37142,,,0.81162,0.56244,0.10744,-0.11572,
8.21875,0.65345,-1.35971,-0.33614,-0.22380,0.84594,0.33934,,,0.81160,0.56247,0.10737,-0.11579,
8.22656,1.95821,-1.35971,1.02470,-0.21122,0.93473,0.32864,,,0.81154,0.56257,0.10724,-0.11580,
8.23438,-0.41095,-1.53870,2.28085,-0.22428,0.90125,0.39621,,,0.81159,0.56255,0.10707,-0.11573,
8.24219,-2.12774,-1.89668,1.54810,-0.20300,0.86098,0.40496,,,0.81170,0.56243,0.10692,-0.11570,
8.25000,-1.95606,-2.93482,0.36173,-0.18607,0.94152,0.33156,,,0.81180,0.56230,0.10676,-0.11578,
8.25781,-0.58263,-1.61030,0.36173,-0.21316,0.99392,0.34468,,,0.81183,0.56226,0.10666,-0.11582,
8.26563,-3.77585,-1.28812,-2.88334,-0.15028,0.85371,0.40253,,,0.81196,0.56202,0.10673,-0.11600,
8.27344,-3.46683,-0.35738,-4.10460,-0.15898,0.85807,0.40496,,,0.81207,0.56180,0.10689,-0.11622,
8.28125,-4.08488,0.10799,-4.87225,-0.15802,0.83915,0.41905,,,0.81219,0.56153,0.10712,-0.11645,
8.28906,-1.02900,0.07220,-4.80246,-0.31425,1.05894,0.34468,,,0.81219,0.56144,0.10731,-0.11671,
8.29688,-4.94327,-0.96594,-1.31314,-0.26249,0.80956,0.42586,,,0.81237,0.56115,0.10735,-0.11678,
8.30469,-5.93900,-1.78929,-1.52250,-0.36939,1.13365,0.48127,,,0.81260,0.56080,0.10736,-0.11689,
8.31250,-3.91320,-2.14726,2.90893,-0.23783,0.86584,0.46961,,,0.81279,0.56058,0.10716,-0.11678,
8.32031,-8.20516,-4.97529,5.03741,-0.32682,1.07155,0.45843,,,0.81318,0.56013,0.10675,-0.11663,
8.32813,-10.26530,-5.54805,6.99143,-0.16769,0.84158,0.35975,,,0.81367,0.55956,0.10626,-0.11638,
8.33594,-11.29537,-5.61965,7.27058,-0.35052,1.22001,0.46426,,,0.81420,0.55894,0.10576,-0.11611,
8.34375,-8.92621,-4.61731,9.18970,-0.34762,0.87700,0.37288,,,0.81464,0.55848,0.10522,-0.11571,
8.35156,-14.24825,-8.73405,11.21351,-0.27846,0.67856,0.26788,,,0.81533,0.55770,0.10443,-0.11532,
8.35938,-13.14950,-10.84612,14.03986,-0.26636,0.92260,0.30725,,,0.81602,0.55698,0.10339,-0.11486,
8.36719,-17.44147,-12.24223,13.13263,-0.17640,1.07980,0.48030,,,0.81687,0.55601,0.10235,-0.11447,
8.37500,-25.95672,-13.53095,11.59733,-0.16189,0.73581,-0.00968,,,0.81804,0.55454,0.10136,-0.11415,
8.38281,-24.10259,-13.13717,11.59733,-0.28619,0.91047,0.35246,,,0.81913,0.55317,0.10037,-0.11384,
8.39063,-22.69483,-14.71227,8.94545,-0.21606,1.08271,0.40690,,,0.82015,0.55185,0.09939,-0.11374,
8.39844,-26.36875,-15.35663,10.96926,-0.36020,1.56837,0.44142,,,0.82133,0.55033,0.09832,-0.11352,
8.40625,-29.35596,-15.67881,10.27139,-0.27168,0.96772,0.36364,,,0.82261,0.54863,0.09728,-0.11334,
8.41406,-34.84967,-17.39710,7.27058,-0.21606,0.96287,0.56780,,,0.82409,0.54659,0.09631,-0.11335,
8.42188,-35.81107,-17.03913,9.67821,-0.37084,1.36314,0.50315,,,0.82560,0.54451,0.09526,-0.11320,
8.42969,-49.40801,-20.72629,4.89784,-0.30264,1.22196,0.49294,,,0.82761,0.54159,0.09430,-0.11337,
8.43750,-55.58844,-22.33719,9.32928,-0.42163,1.17392,0.46037,,,0.82987,0.53834,0.09312,-0.11332,
8.44531,-68.15531,-31.35823,11.70201,-0.34859,1.49220,0.58141,,,0.83265,0.53431,0.09144,-0.11337,
8.45313,-62.83327,-28.99557,14.94708,-0.43807,1.41991,0.49148,,,0.83522,0.53061,0.08973,-0.11318,
8.46094,-75.74350,-34.90220,11.10883,-0.31715,1.45435,0.51044,,,0.83825,0.52608,0.08793,-0.11335,
8.46875,-87.31463,-35.90454,15.74962,-0.33940,1.43349,0.47593,,,0.84170,0.52090,0.08598,-0.11321,
8.47656,-92.43065,-37.26485,12.50456,-0.26008,1.41117,0.41808,,,0.84527,0.51537,0.08411,-0.11327,
8.48438,-104.79151,-37.65863,15.54026,-0.27120,1.49511,0.43801,,,0.84926,0.50912,0.08220,-0.11309,
8.49219,-111.93334,-38.05240,15.29601,-0.28039,1.53538,0.46378,,,0.85345,0.50242,0.08033,-0.11290,
8.50000,-130.16560,-39.30532,14.14454,-0.39115,1.50190,0.50947,,,0.85820,0.49460,0.07855,-0.11270,
8.50781,-142.08009,-43.56526,13.72582,-0.49128,1.67268,0.39183,,,0.86328,0.48600,0.07663,-0.11260,
8.51563,-149.46227,-48.64854,14.00496,-0.38245,1.84153,0.39718,,,0.86854,0.47688,0.07445,-0.11260,
8.52344,-166.83614,-51.40496,11.91137,-0.24556,1.95748,0.30774,,,0.87425,0.46664,0.07229,-0.11271,
8.53125,-189.77239,-52.58629,16.83131,-0.15898,2.10109,0.36704,,,0.88060,0.45497,0.07007,-0.11243,
8.53906,-203.36933,-52.01352,17.11046,-0.11545,2.08120,0.32961,,,0.88719,0.44241,0.06797,-0.11203,
8.54688,-229.01810,-51.01119,19.48319,-0.03178,2.30923,0.33107,,,0.89436,0.42821,0.06603,-0.11132,
8.55469,-259.33654,-46.25009,21.15807,0.10027,2.59015,0.38454,,,0.90215,0.41208,0.06455,-0.11019,
8.56250,-278.28985,-42.24074,23.77505,0.04126,2.56880,0.33156,,,0.91016,0.39469,0.06336,-0.10866,
8.57031,-312.31653,-37.55124,31.31198,-0.06708,2.66778,0.26107,,,0.91874,0.37509,0.06248,-0.10636,
8.57813,-344.45476,-36.44151,35.28980,0.09882,2.64595,0.21344,,,0.92770,0.35331,0.06177,-0.10358,
8.58594,-359.35646,-34.00726,41.50079,0.05045,2.61878,0.24260,,,0.93650,0.33043,0.06114,-0.10023,
8.59375,-384.73054,-32.28897,49.10750,-0.38825,2.40579,0.33691,,,0.94530,0.30576,0.06058,-0.09618,
8.60156,-394.44755,-38.44618,48.65389,-0.41244,2.38929,0.41128,,,0.95364,0.28019,0.05965,-0.09218,
8.60938,-415.22065,-46.57227,49.03772,-0.33747,2.15932,0.22996,,,0.96167,0.25301,0.05827,-0.08816,
8.61719,-436.71481,-53.40964,48.33985,-0.35681,2.02492,0.09483,,,0.96927,0.22416,0.05654,-0.08413,
8.62500,-450.38042,-57.99175,47.57220,-0.32924,1.91818,0.02872,,,0.97617,0.19417,0.05453,-0.08010,
8.63281,-474.41542,-62.18008,25.97332,-0.41244,1.58681,-0.25078,,,0.98230,0.16228,0.05262,-0.07739,
8.64063,-483.82340,-65.79566,-4.90714,-0.25040,1.04098,-0.49480,,,0.98731,0.12945,0.05079,-0.07667,
8.64844,-471.22220,-61.42833,-9.33858,-0.12996,0.60675,-0.73736,,,0.99111,0.09733,0.04918,-0.07617,
8.65625,-407.70113,-42.09755,23.25166,0.10656,0.56551,-0.81368,,,0.99369,0.06962,0.04828,-0.07348,
8.66406,-341.19287,1.50411,76.11483,0.87465,-0.98705,-1.01006,,,0.99541,0.04674,0.04971,-0.06717,
8.67188,-289.51762,37.19446,77.44077,0.51672,-2.53913,-1.07714,,,0.99635,0.02750,0.05330,-0.06081,
8.67969,-82.09561,64.11436,29.25328,-0.20348,-2.01611,-0.76264,,,0.99636,0.02228,0.05794,-0.05840,
8.68750,6.93689,68.87546,5.52592,-0.24992,-1.12824,-0.70042,,,0.99609,0.02304,0.06258,-0.05795,
8.69531,115.23171,78.86303,-63.59748,-0.30699,-0.37233,-0.62848,,,0.99527,0.03090,0.06758,-0.06263,
8.70313,178.06606,82.90818,-127.38222,-0.31667,0.31759,-0.53029,,,0.99384,0.04275,0.07271,-0.07191,
8.71094,193.55147,82.97977,-141.37438,-0.28039,0.51117,-0.50355,,,0.99202,0.05557,0.07779,-0.08220,
8.71875,205.77498,79.25681,-138.33868,-0.13770,0.67225,-0.48265,,,0.98989,0.06919,0.08251,-0.09233,
8.72656,204.77924,73.38598,-108.50500,-0.04242,0.74988,-0.45105,,,0.98769,0.08285,0.08667,-0.10044,
8.73438,201.17399,69.09025,-88.40653,-0.01243,0.76443,-0.43453,,,0.98542,0.09635,0.09043,-0.10718,
8.74219,192.31538,59.71124,-47.68619,0.03497,0.67662,-0.39418,,,0.98334,0.10940,0.09334,-0.11117,
8.75000,186.54698,51.79994,-16.70104,0.04368,0.57764,-0.35043,,,0.98141,0.12219,0.09552,-0.11308,
8.75781,185.68859,49.11511,-7.69860,0.02869,0.52039,-0.33002,,,0.97940,0.13494,0.09743,-0.11438,
8.76563,188.67579,46.21549,-2.70887,-0.04532,0.41947,-0.31154,,,0.97725,0.14787,0.09906,-0.11538,
8.77344,193.03643,44.81938,-5.81437,-0.12271,0.38163,-0.30328,,,0.97486,0.16103,0.10058,-0.11661,
8.78125,206.94239,41.41859,-17.95719,-0.13577,0.34427,-0.30134,,,0.97206,0.17498,0.10187,-0.11875,
8.78906,225.20899,36.87228,-31.80979,-0.11062,0.34864,-0.29016,,,0.96874,0.18996,0.10286,-0.12197,
8.79688,235.54404,34.50963,-36.55526,-0.08208,0.36028,-0.27509,,,0.96501,0.20552,0.10364,-0.12557,
8.80469,257.24421,30.60767,-36.83441,0.00305,0.43888,-0.22551,,,0.96072,0.22242,0.10395,-0.12936,
8.81250,277.57095,29.24736,-27.16899,0.11962,0.58783,-0.17592,,,0.95589,0.24062,0.10381,-0.13264,
8.82031,285.74284,30.21390,-20.12057,0.15444,0.67516,-0.14384,,,0.95062,0.25933,0.10350,-0.13545,
8.82813,298.30971,34.00846,-5.67479,0.19556,0.82411,-0.08211,,,0.94486,0.27889,0.10303,-0.13729,
8.83594,306.20693,39.80769,5.38635,0.19459,0.95365,-0.01114,,,0.93860,0.29896,0.10260,-0.13831,
8.84375,308.71343,42.81470,9.43396,0.19507,1.03177,0.02435,,,0.93188,0.31912,0.10221,-0.13896,
8.85156,310.49889,49.04351,14.98197,0.18492,1.17247,0.11039,,,0.92471,0.33934,0.10203,-0.13907,
8.85938,309.88085,55.91668,22.34443,0.19604,1.27678,0.20226,,,0.91715,0.35949,0.10207,-0.13849,
8.86719,309.02245,59.63964,26.70608,0.20958,1.31899,0.24260,,,0.90920,0.37948,0.10220,-0.13747,
8.87500,307.64903,68.08791,36.30171,0.21636,1.42282,0.33788,,,0.90090,0.39935,0.10257,-0.13557,
8.88281,307.03098,72.70582,41.67526,0.20136,1.47231,0.38308,,,0.89221,0.41908,0.10304,-0.13314,
8.89063,306.24126,81.36888,52.56193,0.13123,1.58729,0.46718,,,0.88315,0.43871,0.10368,-0.12974,
8.89844,304.18112,88.34944,61.07587,0.07125,1.67462,0.54447,,,0.87375,0.45813,0.10445,-0.12553,
8.90625,302.97937,91.32065,64.94901,0.04513,1.72848,0.58822,,,0.86399,0.47731,0.10524,-0.12094,
8.91406,298.24104,95.11521,71.09021,-0.04580,1.85462,0.68057,,,0.85398,0.49606,0.10604,-0.11577,
8.92188,290.54984,94.07708,77.05694,-0.12368,1.96767,0.78994,,,0.84389,0.51416,0.10659,-0.11017,
8.92969,285.39949,92.32299,79.67393,-0.17301,2.00891,0.85168,,,0.83362,0.53173,0.10694,-0.10440,
8.93750,273.93136,85.19923,82.43050,-0.28765,2.07053,0.97126,,,0.82349,0.54840,0.10682,-0.09860,
8.94531,263.11561,72.56263,83.54708,-0.39986,2.03705,1.09327,,,0.81353,0.56415,0.10598,-0.09309,
8.95313,258.23994,64.47234,85.67556,-0.43227,1.95457,1.14820,,,0.80353,0.57940,0.10460,-0.08771,
8.96094,252.26553,46.28708,100.29580,-0.49563,1.86870,1.28041,,,0.79370,0.59410,0.10164,-0.08217,
8.96875,250.13671,36.47850,110.69397,-0.43082,1.87549,1.32902,,,0.78380,0.60849,0.09772,-0.07643,
8.97656,241.93048,25.63179,124.44189,-0.43082,1.77991,1.41458,,,0.77411,0.62227,0.09264,-0.07031,
8.98438,234.47963,18.83021,128.41971,-0.40857,1.64697,1.49721,,,0.76454,0.63543,0.08705,-0.06421,
8.99219,231.08040,17.97107,127.44270,-0.40566,1.58632,1.51909,,,0.75487,0.64820,0.08144,-0.05815,
9.00000,224.11025,20.33372,115.40455,-0.52320,1.42961,1.51520,,,0.74520,0.66035,0.07649,-0.05255,
9.00781,217.65513,23.09015,91.50272,-0.74376,1.28260,1.48652,1021.738,24.5,0.73552,0.67187,0.07276,-0.04799,
9.01563,214.39324,22.62478,76.35908,-0.85694,1.28454,1.44909,,,0.72576,0.68298,0.06969,-0.04419,
9.02344,204.64190,17.93527,44.78075,-0.92950,1.14142,1.49867,,,0.71622,0.69329,0.06787,-0.04211,
9.03125,193.27678,7.94770,12.29520,-0.81873,1.18411,1.63478,,,0.70703,0.70274,0.06712,-0.04203,
9.03906,184.04047,4.08154,-3.02291,-0.69733,1.14821,1.68922,,,0.69814,0.71154,0.06693,-0.04282,
9.04688,164.74381,-2.57684,-26.36645,-0.47435,1.05554,1.79567,,,0.69005,0.71920,0.06760,-0.04496,
9.05469,143.93637,-8.55506,-31.04214,-0.41340,0.99538,1.88171,,,0.68291,0.72575,0.06827,-0.04750,
9.06250,133.18929,-13.49515,-25.31966,-0.42453,0.95171,1.90067,,,0.67628,0.73175,0.06847,-0.04997,
9.07031,110.69940,-26.74032,-6.23308,-0.49176,0.89834,1.88609,,,0.67086,0.73670,0.06717,-0.05211,
9.07813,99.19694,-34.50843,3.36254,-0.55416,0.87602,1.87296,,,0.66604,0.74110,0.06507,-0.05414,
9.08594,75.26495,-51.19018,14.10964,-0.64848,0.88767,1.83893,,,0.66252,0.74436,0.06175,-0.05642,
9.09375,49.16981,-64.86492,5.77017,-0.65815,0.86972,1.77526,,,0.66032,0.74634,0.05834,-0.05967,
9.10156,36.15658,-69.87660,-3.82545,-0.61268,0.87263,1.73929,,,0.65874,0.74764,0.05524,-0.06354,
9.10938,10.26745,-75.64004,-26.15709,-0.47241,0.90174,1.65227,,,0.65839,0.74766,0.05314,-0.06861,
9.11719,-14.79762,-75.89062,-42.31264,-0.27313,0.89446,1.53610,,,0.65922,0.74646,0.05195,-0.07433,
9.12500,-26.26574,-74.17233,-46.29046,-0.17301,0.89640,1.46853,,,0.66058,0.74472,0.05111,-0.08009,
9.13281,-46.66115,-66.47581,-46.60450,-0.01291,0.89107,1.33680,,,0.66293,0.74207,0.05073,-0.08540,
9.14063,-63.34831,-54.69836,-44.16197,0.14042,0.90562,1.21673,,,0.66606,0.73871,0.05086,-0.08994,
9.14844,-70.86783,-46.96604,-43.46411,0.19701,0.89640,1.16083,,,0.66952,0.73503,0.05135,-0.09403,
9.15625,-107.50403,-28.92398,-35.19443,-0.02452,3.48530,1.34166,,,0.67477,0.72978,0.05247,-0.09670,
9.16406,-208.41668,-30.06951,-15.93339,-0.65041,4.05053,1.44423,,,0.68508,0.71985,0.05325,-0.09818,
9.17188,-274.37558,-18.93641,-59.72433,1.16245,1.65231,-0.49383,,,0.69809,0.70657,0.05711,-0.10087,
9.17969,-297.86120,29.60534,-110.49392,0.11720,1.79398,-1.34401,,,0.71138,0.69201,0.06587,-0.10351,
9.18750,-302.11883,24.05668,-118.48445,-0.17785,1.90508,-1.09172,,,0.72451,0.67684,0.07474,-0.10674,
9.19531,-303.38925,-5.22587,-113.87855,-0.28184,1.30977,-0.27703,,,0.73752,0.66108,0.08193,-0.11103,
9.20313,-290.44469,-13.88893,-102.15444,-0.49902,0.57619,0.55224,,,0.74975,0.64565,0.08801,-0.11515,
9.21094,-278.94223,-14.28270,-90.22098,-0.61800,0.45247,0.73161,,,0.76126,0.63061,0.09343,-0.11869,
9.21875,-240.69225,-22.26560,-62.20175,-0.67556,0.46508,0.47009,,,0.77114,0.61745,0.09688,-0.12133,
9.22656,-200.65681,-40.70144,-38.09056,-0.42405,0.70767,0.43510,,,0.77946,0.60625,0.09800,-0.12371,
9.23438,-183.04259,-42.95669,-30.34427,-0.10046,0.80325,0.52988,,,0.78699,0.59590,0.09850,-0.12587,
9.24219,-153.27353,-26.02436,-30.55363,-0.12609,0.82266,0.57120,,,0.79309,0.58721,0.09966,-0.12752,
9.25000,-136.07134,-13.85313,-27.51793,-0.23251,0.80179,0.51238,,,0.79835,0.57952,0.10119,-0.12864,
9.25781,-102.93738,2.90022,-11.60663,-0.20880,0.67080,0.54349,,,0.80228,0.57385,0.10270,-0.12844,
9.26563,-67.98363,20.33372,-0.65017,-0.24847,0.67419,0.58967,,,0.80478,0.57029,0.10444,-0.12720,
9.27344,-59.36537,22.26680,1.37363,-0.34279,0.57182,0.53572,,,0.80694,0.56723,0.10612,-0.12584,
9.28125,-34.60932,18.11426,6.67739,-0.39986,0.65527,0.46135,,,0.80820,0.56553,0.10715,-0.12452,
9.28906,-19.67329,13.03098,4.61870,-0.09659,0.80179,0.47884,,,0.80891,0.56459,0.10786,-0.12362,
9.29688,-18.50587,11.49168,-0.16167,-0.07579,0.79257,0.48371,,,0.80953,0.56366,0.10865,-0.12305,
9.30469,-14.93496,10.59673,-8.08242,-0.17398,0.82848,0.35683,,,0.80996,0.56286,0.10967,-0.12298,
9.31250,-15.58734,8.91424,-8.53603,-0.17156,0.85904,0.34614,,,0.81042,0.56201,0.11062,-0.12299,
9.32031,-14.66027,8.37727,-8.81518,-0.20300,0.91144,0.40982,,,0.81084,0.56121,0.11154,-0.12304,
9.32813,-11.60440,6.51579,-11.67642,-0.19768,0.86001,0.42683,,,0.81114,0.56053,0.11245,-0.12335,
9.33594,-6.24802,4.51112,-12.26960,-0.25089,0.92794,0.39524,,,0.81124,0.56013,0.11322,-0.12381,
9.34375,-5.08061,3.65197,-11.43217,-0.28232,0.90028,0.38746,,,0.81131,0.55979,0.11390,-0.12426,
9.35156,-2.47110,1.82628,-8.29178,-0.27023,0.92745,0.45989,,,0.81132,0.55960,0.11434,-0.12463,
9.35938,-1.71571,0.64496,-6.82627,-0.24315,0.89980,0.47204,,,0.81132,0.55946,0.11465,-0.12497,
9.36719,2.71360,0.60916,-4.13949,-0.27507,0.89204,0.40156,,,0.81118,0.55958,0.11481,-0.12520,
9.37500,4.73940,0.82395,1.23406,-0.29006,0.88767,0.39232,,,0.81100,0.55986,0.11477,-0.12514,
9.38281,5.66647,1.28932,4.54891,-0.31570,0.92891,0.44287,,,0.81082,0.56022,0.11462,-0.12488,
9.39063,5.46045,1.11033,9.81778,-0.30603,0.89689,0.45989,,,0.81068,0.56061,0.11426,-0.12434,
9.39844,6.11283,0.14379,13.58624,-0.21654,0.90368,0.41031,,,0.81056,0.56105,0.11370,-0.12363,
9.40625,6.83388,0.32278,13.48156,-0.24218,0.94007,0.36996,,,0.81041,0.56153,0.11314,-0.12292,
9.41406,4.56772,-1.00174,12.50456,-0.20832,0.93813,0.40010,,,0.81035,0.56187,0.11257,-0.12230,
9.42188,4.25870,-1.75349,11.45776,-0.23686,0.89204,0.42003,,,0.81030,0.56218,0.11200,-0.12177,
9.42969,4.67073,-2.39785,11.56244,-0.18607,0.86923,0.38017,,,0.81023,0.56251,0.11138,-0.12126,
9.43750,5.52912,-2.68423,10.06203,-0.16963,0.90708,0.37628,,,0.81012,0.56287,0.11080,-0.12085,
9.44531,4.70507,-2.57684,9.32928,-0.17688,0.87700,0.36656,,,0.81004,0.56318,0.11026,-0.12047,
9.45313,4.15569,-2.72003,6.36336,-0.15221,0.84788,0.44773,,,0.80995,0.56343,0.10983,-0.12025,
9.46094,6.18150,-2.18306,4.06041,-0.16817,0.87748,0.36607,,,0.80977,0.56378,0.10950,-0.12015,
9.46875,6.45619,-1.93248,4.44423,-0.17156,0.92697,0.35489,,,0.80957,0.56416,0.10917,-0.12003,
9.47656,4.87674,-2.07567,1.37363,-0.19284,0.88864,0.37433,,,0.80941,0.56442,0.10896,-0.12007,
9.48438,4.12136,-2.25466,0.46641,-0.19091,0.84691,0.42975,,,0.80927,0.56463,0.10878,-0.12016,
9.49219,5.18577,-1.78929,0.60598,-0.23299,0.88136,0.40253,,,0.80909,0.56491,0.10862,-0.12024,
9.50000,5.83814,-1.68189,1.54810,-0.22670,0.94152,0.37385,,,0.80889,0.56523,0.10842,-0.12026,
9.50781,4.77374,-1.64610,1.33874,-0.22767,0.97160,0.37871,,,0.80873,0.56549,0.10823,-0.12028,
9.51563,3.26297,-2.03987,0.39662,-0.18365,0.88718,0.42197,,,0.80862,0.56565,0.10808,-0.12036,
9.52344,3.70933,-1.46711,-1.17357,-0.22380,0.88088,0.38600,,,0.80848,0.56584,0.10801,-0.12051,
9.53125,4.05269,-1.50291,0.81534,-0.20203,0.96772,0.35975,,,0.80834,0.56605,0.10786,-0.12055,
9.53906,1.61485,-2.07567,0.01280,-0.16431,0.86729,0.34031,,,0.80830,0.56612,0.10773,-0.12064,
9.54688,0.03541,-2.00407,-1.24336,-0.14883,0.84400,0.39572,,,0.80830,0.56610,0.10767,-0.12079,
9.55469,0.72212,-1.03753,-1.73186,-0.19961,0.89834,0.41760,,,0.80826,0.56612,0.10767,-0.12093,
9.56250,1.78653,-0.64376,-3.44163,-0.21945,0.90368,0.37433,,,0.80817,0.56619,0.10776,-0.12116,
9.57031,1.20282,-0.89434,-2.98802,-0.21074,0.90999,0.38892,,,0.80811,0.56622,0.10781,-0.12136,
9.57813,1.54618,-0.39318,-3.93013,-0.17591,0.92648,0.44676,,,0.80802,0.56628,0.10793,-0.12161,
9.58594,1.82087,0.57336,-6.23308,-0.23154,0.90174,0.44871,,,0.80789,0.56633,0.10818,-0.12194,
9.59375,2.67926,0.10799,-5.22118,-0.23976,0.97888,0.36413,,,0.80775,0.56644,0.10837,-0.12224,
9.60156,1.34017,-0.28578,-5.18629,-0.18172,0.88912,0.35489,,,0.80765,0.56648,0.10854,-0.12255,
9.60938,1.78653,0.43017,-6.44244,-0.19623,0.94395,0.37725,,,0.80753,0.56653,0.10880,-0.12290,
9.61719,0.37877,-0.35738,-6.51223,-0.19671,0.89543,0.36267,,,0.80746,0.56650,0.10902,-0.12327,
9.62500,1.58052,-0.39318,-6.75648,-0.18365,0.92648,0.33204,,,0.80735,0.56653,0.10925,-0.12367,
9.63281,0.65345,0.28698,-7.41945,-0.17688,0.89398,0.33593,,,0.80726,0.56652,0.10955,-0.12407,
9.64063,0.31010,0.00060,-8.50114,-0.21848,1.00217,0.40107,,,0.80717,0.56647,0.10987,-0.12454,
9.64844,0.13842,0.78815,-7.94285,-0.27942,0.83381,0.41225,,,0.80710,0.56642,0.11022,-0.12495,
9.65625,-0.58263,-2.32625,-5.63990,-0.28329,0.96530,0.35732,,,0.80709,0.56633,0.11031,-0.12535,
9.66406,1.37450,-0.89434,-4.13949,-0.24121,0.97403,0.35683,,,0.80701,0.56637,0.11041,-0.12562,
9.67188,-2.43676,-2.50524,-3.72077,-0.26153,1.02837,0.43121,,,0.80709,0.56618,0.11044,-0.12590,
9.67969,-3.32949,-2.89902,-2.49951,-0.24170,0.95074,0.36413,,,0.80722,0.56596,0.11040,-0.12612,
9.68750,-0.58263,-2.86322,-2.04590,-0.26104,0.91775,0.31454,,,0.80724,0.56588,0.11033,-0.12634,
9.69531,-3.22648,-3.79396,-1.06889,-0.22477,1.04390,0.35489,,,0.80739,0.56567,0.11019,-0.12652,
9.70313,-5.76732,-3.32859,-0.47571,-0.21316,1.00266,0.40496,,,0.80763,0.56532,0.11007,-0.12663,
9.71094,-4.11921,-2.29046,1.23406,-0.22815,0.83915,0.39718,,,0.80782,0.56508,0.10993,-0.12662,
9.71875,-2.33375,-2.61264,1.75746,-0.32295,1.03177,0.30968,,,0.80794,0.56494,0.10974,-0.12661,
9.72656,-5.93900,-3.32859,4.06041,-0.27652,0.91581,0.33739,,,0.80823,0.56462,0.10945,-0.12647,
9.73438,-9.54425,-4.15194,5.00252,-0.25766,0.92357,0.33059,,,0.80867,0.56409,0.10911,-0.12628,
9.74219,-12.84048,-5.22587,7.06122,-0.32150,0.98956,0.42975,,,0.80926,0.56339,0.10866,-0.12600,
9.75000,-14.28258,-6.87257,7.68930,-0.30312,0.93473,0.34517,,,0.80993,0.56260,0.10811,-0.12573,
9.75781,-16.92643,-9.73639,9.71310,-0.38583,1.07980,0.43267,,,0.81073,0.56165,0.10734,-0.12544,
9.76563,-21.66476,-14.35430,10.93436,-0.30506,1.32336,0.47398,,,0.81176,0.56041,0.10632,-0.12523,
9.77344,-34.36897,-17.18232,12.26030,-0.25959,0.90174,0.53426,,,0.81330,0.55845,0.10519,-0.12496,
9.78125,-32.10281,-17.82668,9.88757,-0.39793,1.20546,0.37968,,,0.81473,0.55659,0.10410,-0.12486,
9.78906,-43.15891,-22.33719,9.88757,-0.27991,1.01042,0.62273,,,0.81661,0.55407,0.10285,-0.12485,
