Gait Up - Physilog data export
Created on: YYYY-MM-DD hh:mm:ss
Total data points: 20693

Time [128 hz],Gyro [128 hz],,,Accel [128 hz],,,Baro [1 hz],,Event [128 hz],Quaternion [128 hz],,,,
Time,Gyro X,Gyro Y,Gyro Z,Accel X,Accel Y,Accel Z,Pressure,Temperature,Quat W,Quat X,Quat Y,Quat Z,
[s],[deg/s],[deg/s],[deg/s],[g],[g],[g],[mBar],[degree C],[],[],[],[],
0.00781,0.06621,-0.30248,-0.71273,-0.17390,0.97429,0.11874,1022.104,26.6,0.74694,0.65393,0.12020,-0.00214,
0.01563,0.10067,-0.01978,-0.88698,-0.17487,0.97622,0.11825,,,0.74693,0.65393,0.12024,-0.00219,
0.02344,0.06621,-0.09045,-0.85213,-0.17101,0.97188,0.12510,,,0.74693,0.65393,0.12027,-0.00224,
0.03125,0.20404,-0.62052,-0.74758,-0.17101,0.96802,0.12070,,,0.74693,0.65393,0.12028,-0.00230,
0.03906,0.13513,-0.05512,-0.74758,-0.17825,0.97670,0.12070,,,0.74692,0.65393,0.12031,-0.00235,
0.04688,0.13513,-0.23180,-0.74758,-0.17632,0.96898,0.12168,,,0.74692,0.65393,0.12033,-0.00240,
0.05469,0.10067,-0.12579,-0.78243,-0.17342,0.96850,0.12461,,,0.74691,0.65393,0.12036,-0.00244,
0.06250,0.23849,-0.40849,-0.74758,-0.17197,0.96850,0.12363,,,0.74691,0.65394,0.12037,-0.00250,
0.07031,0.23849,-0.30248,-0.88698,-0.17197,0.97429,0.12021,,,0.74690,0.65394,0.12039,-0.00256,
0.07813,0.03176,-0.16113,-0.85213,-0.16859,0.97284,0.12266,,,0.74690,0.65394,0.12042,-0.00261,
0.08594,0.16958,-0.19647,-0.78243,-0.16859,0.97236,0.11825,,,0.74689,0.65394,0.12045,-0.00266,
0.09375,0.03176,0.05090,-0.92183,-0.17390,0.97429,0.11776,,,0.74689,0.65393,0.12049,-0.00271,
0.10156,0.16958,-0.01978,-0.95667,-0.17535,0.97043,0.11336,,,0.74688,0.65394,0.12053,-0.00276,
0.10938,0.20404,-0.19647,-0.95667,-0.17439,0.97188,0.11972,,,0.74687,0.65394,0.12056,-0.00282,
0.11719,0.03176,-0.16113,-0.81728,-0.16811,0.97525,0.12266,,,0.74687,0.65393,0.12059,-0.00287,
0.12500,-0.10607,-0.16113,-0.78243,-0.16714,0.97381,0.12363,,,0.74688,0.65392,0.12062,-0.00291,
0.13281,-0.10607,-0.01978,-0.81728,-0.17487,0.97381,0.11385,,,0.74688,0.65391,0.12065,-0.00295,
0.14063,-0.07161,0.15691,-0.78243,-0.18067,0.96995,0.11825,,,0.74689,0.65390,0.12070,-0.00299,
0.14844,-0.07161,-0.09045,-0.67788,-0.17390,0.96802,0.12314,,,0.74689,0.65389,0.12072,-0.00302,
0.15625,-0.10607,0.01556,-0.67788,-0.17197,0.96609,0.12217,,,0.74689,0.65388,0.12075,-0.00306,
0.16406,-0.07161,-0.19647,-0.60818,-0.17197,0.96657,0.12168,,,0.74690,0.65387,0.12077,-0.00310,
0.17188,-0.10607,0.05090,-0.74758,-0.17004,0.97381,0.12804,,,0.74690,0.65386,0.12081,-0.00313,
0.17969,-0.07161,-0.16113,-0.64303,-0.17197,0.96753,0.12314,,,0.74691,0.65385,0.12083,-0.00317,
0.18750,0.06621,-0.09045,-0.78243,-0.16617,0.97670,0.11972,,,0.74691,0.65385,0.12086,-0.00321,
0.19531,0.10067,0.19225,-0.78243,-0.17245,0.97139,0.12168,,,0.74690,0.65385,0.12090,-0.00325,
0.20313,0.06621,0.40427,-0.95667,-0.17632,0.97670,0.12070,,,0.74689,0.65384,0.12097,-0.00328,
0.21094,0.03176,0.26292,-0.95667,-0.17390,0.97960,0.11825,,,0.74689,0.65383,0.12102,-0.00332,
0.21875,0.03176,0.29826,-0.95667,-0.16472,0.97670,0.12266,,,0.74688,0.65383,0.12108,-0.00335,
0.22656,0.03176,0.22758,-0.85213,-0.17390,0.97525,0.11287,,,0.74688,0.65382,0.12113,-0.00338,
0.23438,-0.10607,0.65164,-0.99152,-0.18067,0.97718,0.12021,,,0.74688,0.65381,0.12121,-0.00340,
0.24219,0.03176,-0.01978,-0.81728,-0.16762,0.97284,0.12266,,,0.74688,0.65380,0.12124,-0.00345,
0.25000,0.03176,0.15691,-0.81728,-0.17197,0.97332,0.12070,,,0.74688,0.65380,0.12129,-0.00348,
0.25781,-0.14052,0.12157,-0.95667,-0.17825,0.97139,0.11776,,,0.74688,0.65378,0.12134,-0.00352,
0.26563,-0.03715,0.05090,-0.85213,-0.17874,0.97236,0.11972,,,0.74688,0.65378,0.12138,-0.00357,
0.27344,-0.00270,-0.05512,-0.81728,-0.17390,0.97284,0.12119,,,0.74688,0.65377,0.12141,-0.00361,
0.28125,0.03176,0.08623,-0.78243,-0.16569,0.97863,0.12706,,,0.74688,0.65376,0.12145,-0.00365,
0.28906,-0.07161,0.19225,-0.71273,-0.16907,0.97718,0.12608,,,0.74688,0.65375,0.12149,-0.00367,
0.29688,-0.03715,0.05090,-0.78243,-0.17149,0.97525,0.11776,,,0.74688,0.65375,0.12153,-0.00371,
0.30469,-0.14052,0.01556,-0.81728,-0.17149,0.97429,0.12363,,,0.74689,0.65373,0.12157,-0.00375,
0.31250,-0.17498,0.12157,-0.81728,-0.16859,0.97960,0.12119,,,0.74690,0.65372,0.12161,-0.00378,
0.32031,0.03176,0.01556,-0.74758,-0.17922,0.97815,0.12070,,,0.74689,0.65371,0.12164,-0.00382,
0.32813,-0.07161,0.08623,-0.81728,-0.17535,0.97043,0.11385,,,0.74690,0.65370,0.12168,-0.00386,
0.33594,0.06621,-0.19647,-0.67788,-0.17245,0.96898,0.12363,,,0.74689,0.65370,0.12170,-0.00390,
0.34375,-0.00270,0.01556,-0.67788,-0.17294,0.96946,0.12217,,,0.74689,0.65369,0.12173,-0.00394,
0.35156,-0.10607,-0.05512,-0.60818,-0.17680,0.97477,0.11434,,,0.74690,0.65368,0.12176,-0.00397,
0.35938,-0.03715,0.08623,-0.57333,-0.17680,0.97574,0.12021,,,0.74690,0.65368,0.12179,-0.00399,
0.36719,-0.07161,-0.12579,-0.60818,-0.17487,0.97139,0.12119,,,0.74690,0.65367,0.12181,-0.00403,
0.37500,-0.10607,-0.12579,-0.46878,-0.16617,0.97670,0.12706,,,0.74691,0.65366,0.12182,-0.00406,
0.38281,-0.14052,-0.05512,-0.50363,-0.16762,0.97477,0.11874,,,0.74692,0.65365,0.12184,-0.00409,
0.39063,-0.03715,-0.23180,-0.46878,-0.18115,0.97091,0.11727,,,0.74692,0.65364,0.12185,-0.00412,
0.39844,-0.03715,-0.09045,-0.57333,-0.16811,0.97477,0.12363,,,0.74692,0.65363,0.12187,-0.00415,
0.40625,-0.00270,-0.12579,-0.53848,-0.17004,0.96898,0.12608,,,0.74692,0.65363,0.12189,-0.00419,
0.41406,-0.03715,0.01556,-0.50363,-0.17197,0.97188,0.12461,,,0.74692,0.65362,0.12191,-0.00421,
0.42188,-0.14052,-0.01978,-0.64303,-0.17004,0.97236,0.12217,,,0.74693,0.65361,0.12194,-0.00424,
0.42969,0.13513,-0.19647,-0.57333,-0.17149,0.96802,0.12168,,,0.74693,0.65361,0.12196,-0.00428,
0.43750,-0.14052,-0.12579,-0.53848,-0.17004,0.96898,0.11972,,,0.74693,0.65360,0.12197,-0.00431,
0.44531,-0.00270,-0.09045,-0.50363,-0.17052,0.97718,0.11923,,,0.74693,0.65360,0.12199,-0.00434,
0.45313,0.03176,-0.12579,-0.57333,-0.17294,0.97043,0.11678,,,0.74693,0.65359,0.12201,-0.00438,
0.46094,0.06621,-0.01978,-0.50363,-0.18309,0.96995,0.12168,,,0.74693,0.65359,0.12203,-0.00441,
0.46875,-0.10607,-0.01978,-0.43393,-0.17101,0.97429,0.12119,,,0.74694,0.65358,0.12205,-0.00443,
0.47656,0.06621,-0.26714,-0.32939,-0.18067,0.97429,0.11825,,,0.74693,0.65358,0.12205,-0.00446,
0.48438,-0.07161,0.05090,-0.36424,-0.17294,0.96995,0.12657,,,0.74694,0.65358,0.12207,-0.00447,
0.49219,-0.14052,-0.19647,-0.36424,-0.17535,0.97477,0.11874,,,0.74694,0.65357,0.12208,-0.00450,
0.50000,0.03176,-0.19647,-0.50363,-0.17294,0.97284,0.12461,,,0.74694,0.65356,0.12209,-0.00453,
0.50781,-0.03715,-0.51451,-0.39909,-0.16376,0.96657,0.11825,,,0.74695,0.65356,0.12208,-0.00458,
0.51563,-0.00270,-0.30248,-0.36424,-0.17294,0.96898,0.11972,,,0.74695,0.65356,0.12208,-0.00461,
0.52344,-0.10607,0.01556,-0.57333,-0.17439,0.97381,0.11483,,,0.74696,0.65355,0.12211,-0.00464,
0.53125,-0.07161,0.12157,-0.57333,-0.17004,0.97767,0.12168,,,0.74696,0.65354,0.12214,-0.00466,
0.53906,0.06621,0.05090,-0.53848,-0.16907,0.97284,0.12461,,,0.74696,0.65354,0.12217,-0.00469,
0.54688,0.03176,-0.09045,-0.50363,-0.17487,0.97236,0.11385,,,0.74696,0.65353,0.12219,-0.00471,
0.55469,0.06621,0.29826,-0.88698,-0.16714,0.97525,0.12657,,,0.74695,0.65353,0.12224,-0.00475,
0.56250,-0.17498,0.19225,-0.85213,-0.17342,0.97718,0.11825,,,0.74696,0.65351,0.12229,-0.00478,
0.57031,-0.07161,-0.09045,-0.64303,-0.16666,0.97429,0.12706,,,0.74696,0.65351,0.12231,-0.00482,
0.57813,0.13513,-0.16113,-0.67788,-0.18309,0.96850,0.12168,,,0.74695,0.65351,0.12233,-0.00486,
0.58594,-0.03715,-0.09045,-0.74758,-0.17825,0.97284,0.11727,,,0.74696,0.65350,0.12236,-0.00490,
0.59375,0.06621,-0.26714,-0.67788,-0.17487,0.97381,0.12266,,,0.74696,0.65350,0.12238,-0.00495,
0.60156,0.06621,-0.23180,-0.57333,-0.16956,0.97429,0.12070,,,0.74695,0.65349,0.12239,-0.00499,
0.60938,-0.10607,-0.05512,-0.53848,-0.16956,0.97091,0.11678,,,0.74696,0.65348,0.12241,-0.00502,
0.61719,0.03176,0.12157,-0.74758,-0.17777,0.97718,0.12070,,,0.74696,0.65348,0.12245,-0.00505,
0.62500,-0.07161,-0.05512,-0.78243,-0.17922,0.97477,0.12070,,,0.74696,0.65347,0.12249,-0.00509,
0.63281,0.03176,-0.12579,-0.67788,-0.17294,0.97236,0.11972,,,0.74696,0.65347,0.12251,-0.00513,
0.64063,0.03176,-0.01978,-0.81728,-0.16859,0.97622,0.12314,,,0.74696,0.65346,0.12254,-0.00518,
0.64844,-0.00270,-0.12579,-0.78243,-0.17294,0.97718,0.11581,,,0.74696,0.65345,0.12257,-0.00522,
0.65625,-0.14052,0.26292,-0.95667,-0.17632,0.97767,0.12168,,,0.74696,0.65344,0.12263,-0.00526,
0.66406,-0.10607,-0.19647,-0.88698,-0.17245,0.97236,0.12461,,,0.74697,0.65343,0.12266,-0.00531,
0.67188,0.06621,-0.09045,-0.81728,-0.17197,0.97574,0.12021,,,0.74697,0.65342,0.12269,-0.00536,
0.67969,-0.14052,0.05090,-0.95667,-0.17439,0.97332,0.11678,,,0.74697,0.65341,0.12274,-0.00540,
0.68750,-0.03715,-0.05512,-0.85213,-0.17825,0.97718,0.12021,,,0.74697,0.65340,0.12277,-0.00545,
0.69531,-0.10607,0.26292,-0.88698,-0.17584,0.97767,0.11923,,,0.74698,0.65338,0.12282,-0.00548,
0.70313,-0.07161,-0.23180,-0.74758,-0.17487,0.97767,0.11923,,,0.74698,0.65338,0.12285,-0.00553,
0.71094,-0.07161,-0.09045,-0.64303,-0.17439,0.97670,0.11678,,,0.74698,0.65337,0.12287,-0.00556,
0.71875,-0.10607,0.01556,-0.74758,-0.18309,0.97043,0.12266,,,0.74699,0.65335,0.12290,-0.00560,
0.72656,-0.03715,-0.26714,-0.71273,-0.17245,0.96802,0.12363,,,0.74699,0.65335,0.12292,-0.00565,
0.73438,-0.03715,0.15691,-0.81728,-0.17390,0.97332,0.11727,,,0.74699,0.65334,0.12297,-0.00568,
0.74219,-0.00270,0.12157,-0.74758,-0.16762,0.97429,0.12706,,,0.74699,0.65333,0.12301,-0.00571,
0.75000,0.03176,-0.01978,-0.74758,-0.17535,0.97284,0.12314,,,0.74699,0.65333,0.12304,-0.00575,
0.75781,-0.00270,0.08623,-0.81728,-0.17245,0.96753,0.12021,,,0.74699,0.65332,0.12308,-0.00579,
0.76563,-0.03715,0.01556,-0.71273,-0.17342,0.96946,0.12021,,,0.74699,0.65331,0.12311,-0.00583,
0.77344,0.13513,0.05090,-0.81728,-0.17294,0.97139,0.12559,,,0.74698,0.65331,0.12315,-0.00587,
0.78125,0.10067,-0.01978,-0.78243,-0.16956,0.97670,0.11825,,,0.74698,0.65331,0.12318,-0.00591,
0.78906,0.10067,-0.05512,-0.99152,-0.17535,0.97429,0.11434,,,0.74697,0.65331,0.12323,-0.00596,
0.79688,0.06621,0.12157,-0.88698,-0.17149,0.97332,0.12314,,,0.74697,0.65330,0.12327,-0.00600,
0.80469,0.10067,-0.26714,-0.67788,-0.16956,0.97332,0.11483,,,0.74697,0.65330,0.12329,-0.00605,
0.81250,0.06621,0.26292,-0.74758,-0.17439,0.97381,0.11972,,,0.74696,0.65330,0.12333,-0.00608,
0.82031,0.03176,-0.05512,-0.81728,-0.16859,0.97043,0.12412,,,0.74696,0.65329,0.12337,-0.00612,
0.82813,0.03176,0.12157,-0.74758,-0.17535,0.97622,0.12461,,,0.74696,0.65329,0.12341,-0.00615,
0.83594,-0.07161,0.29826,-0.81728,-0.17342,0.97429,0.11727,,,0.74696,0.65328,0.12346,-0.00618,
0.84375,0.10067,0.08623,-0.74758,-0.17584,0.97718,0.11776,,,0.74695,0.65328,0.12350,-0.00622,
0.85156,0.06621,0.26292,-0.74758,-0.17729,0.96898,0.13048,,,0.74695,0.65328,0.12354,-0.00624,
0.85938,0.06621,-0.47917,-0.74758,-0.17294,0.97381,0.12070,,,0.74695,0.65327,0.12355,-0.00630,
0.86719,-0.00270,-0.09045,-0.81728,-0.17584,0.97767,0.11532,,,0.74695,0.65327,0.12358,-0.00635,
0.87500,0.13513,-0.23180,-0.67788,-0.17487,0.97429,0.11483,,,0.74694,0.65327,0.12360,-0.00640,
0.88281,-0.00270,-0.26714,-0.81728,-0.17149,0.97188,0.12755,,,0.74695,0.65326,0.12362,-0.00645,
0.89063,0.03176,-0.47917,-0.60818,-0.17101,0.96705,0.12217,,,0.74695,0.65326,0.12363,-0.00650,
0.89844,-0.03715,-0.05512,-0.71273,-0.17342,0.97284,0.12021,,,0.74695,0.65325,0.12366,-0.00654,
0.90625,0.06621,-0.26714,-0.64303,-0.17970,0.97284,0.12119,,,0.74695,0.65325,0.12367,-0.00659,
0.91406,-0.03715,-0.05512,-0.67788,-0.17729,0.98346,0.12021,,,0.74695,0.65324,0.12370,-0.00662,
0.92188,-0.10607,0.01556,-0.67788,-0.17825,0.97960,0.11923,,,0.74696,0.65323,0.12373,-0.00665,
0.92969,-0.07161,-0.33782,-0.60818,-0.17245,0.97139,0.12314,,,0.74696,0.65322,0.12374,-0.00670,
0.93750,-0.03715,-0.30248,-0.57333,-0.17922,0.97525,0.12021,,,0.74696,0.65321,0.12375,-0.00674,
0.94531,-0.03715,-0.30248,-0.64303,-0.17777,0.97960,0.11874,,,0.74697,0.65320,0.12376,-0.00679,
0.95313,-0.00270,-0.12579,-0.53848,-0.16956,0.97188,0.12168,,,0.74697,0.65320,0.12378,-0.00682,
0.96094,-0.17498,-0.30248,-0.57333,-0.17680,0.97622,0.12363,,,0.74698,0.65318,0.12379,-0.00686,
0.96875,-0.10607,-0.09045,-0.60818,-0.17487,0.97574,0.12168,,,0.74699,0.65317,0.12381,-0.00690,
0.97656,-0.10607,-0.30248,-0.53848,-0.16811,0.96705,0.12314,,,0.74699,0.65316,0.12382,-0.00694,
0.98438,-0.00270,-0.19647,-0.39909,-0.16714,0.96898,0.11532,,,0.74699,0.65316,0.12383,-0.00697,
0.99219,-0.17498,0.08623,-0.53848,-0.17680,0.97525,0.11825,,,0.74700,0.65315,0.12386,-0.00699,
1.00000,-0.14052,-0.12579,-0.57333,-0.17487,0.97477,0.11972,,,0.74701,0.65313,0.12388,-0.00702,
1.00781,-0.10607,0.08623,-0.67788,-0.17245,0.97429,0.11874,1022.082,26.6,0.74701,0.65312,0.12391,-0.00705,
1.01563,-0.07161,-0.16113,-0.60818,-0.17197,0.97525,0.12168,,,0.74702,0.65311,0.12393,-0.00709,
1.02344,-0.07161,-0.30248,-0.60818,-0.16859,0.97525,0.12314,,,0.74702,0.65311,0.12394,-0.00713,
1.03125,-0.03715,-0.19647,-0.57333,-0.17245,0.97622,0.11385,,,0.74702,0.65310,0.12396,-0.00717,
1.03906,0.03176,0.01556,-0.64303,-0.17535,0.97332,0.11727,,,0.74702,0.65310,0.12399,-0.00720,
1.04688,-0.00270,0.12157,-0.71273,-0.16617,0.97525,0.12559,,,0.74702,0.65309,0.12403,-0.00723,
1.05469,-0.00270,0.05090,-0.78243,-0.16859,0.97332,0.12314,,,0.74702,0.65308,0.12406,-0.00727,
1.06250,-0.07161,0.33360,-0.81728,-0.17004,0.97284,0.12314,,,0.74702,0.65307,0.12412,-0.00730,
1.07031,0.06621,0.19225,-0.88698,-0.17777,0.97429,0.11923,,,0.74702,0.65307,0.12417,-0.00733,
1.07813,0.16958,0.15691,-0.85213,-0.17777,0.97332,0.12217,,,0.74701,0.65307,0.12421,-0.00737,
1.08594,0.13513,0.22758,-0.88698,-0.17245,0.97332,0.12266,,,0.74700,0.65307,0.12426,-0.00741,
1.09375,0.10067,-0.01978,-0.85213,-0.17535,0.97767,0.12363,,,0.74699,0.65307,0.12430,-0.00745,
1.10156,0.06621,0.15691,-0.85213,-0.17101,0.97332,0.12608,,,0.74699,0.65306,0.12434,-0.00749,
1.10938,0.06621,0.36894,-0.99152,-0.17584,0.97477,0.12168,,,0.74698,0.65306,0.12441,-0.00753,
1.11719,-0.10607,0.22758,-0.85213,-0.17922,0.97863,0.12314,,,0.74698,0.65305,0.12446,-0.00756,
1.12500,0.03176,0.22758,-0.81728,-0.17342,0.97622,0.11776,,,0.74698,0.65304,0.12451,-0.00759,
1.13281,0.16958,0.19225,-0.92183,-0.17777,0.97236,0.11630,,,0.74697,0.65304,0.12456,-0.00763,
1.14063,0.10067,0.15691,-0.99152,-0.18164,0.97139,0.12021,,,0.74696,0.65304,0.12461,-0.00767,
1.14844,-0.07161,-0.19647,-0.92183,-0.17294,0.97043,0.11923,,,0.74697,0.65303,0.12464,-0.00773,
1.15625,0.06621,0.12157,-0.81728,-0.17535,0.97381,0.11336,,,0.74696,0.65302,0.12468,-0.00777,
1.16406,0.06621,0.01556,-0.81728,-0.17874,0.97381,0.12021,,,0.74696,0.65302,0.12472,-0.00781,
1.17188,0.06621,0.05090,-0.88698,-0.18212,0.97381,0.12266,,,0.74696,0.65302,0.12476,-0.00785,
1.17969,0.10067,-0.19647,-0.74758,-0.17342,0.97525,0.11678,,,0.74695,0.65301,0.12478,-0.00790,
1.18750,0.10067,-0.05512,-0.78243,-0.17922,0.97091,0.11630,,,0.74695,0.65301,0.12482,-0.00794,
1.19531,0.13513,-0.05512,-0.85213,-0.17535,0.97574,0.12119,,,0.74694,0.65301,0.12485,-0.00799,
1.20313,0.06621,-0.16113,-0.74758,-0.17390,0.97332,0.11189,,,0.74694,0.65301,0.12488,-0.00803,
1.21094,-0.10607,0.01556,-0.74758,-0.17729,0.97429,0.11825,,,0.74695,0.65300,0.12491,-0.00807,
1.21875,0.13513,-0.12579,-0.78243,-0.16666,0.97525,0.12510,,,0.74694,0.65300,0.12494,-0.00812,
1.22656,-0.03715,-0.12579,-0.88698,-0.17197,0.97236,0.12412,,,0.74694,0.65299,0.12497,-0.00817,
1.23438,0.03176,-0.23180,-0.81728,-0.17970,0.97284,0.13097,,,0.74694,0.65298,0.12500,-0.00822,
1.24219,-0.27834,-0.40849,-0.81728,-0.16617,0.97670,0.12755,,,0.74696,0.65296,0.12501,-0.00828,
1.25000,-0.27834,0.36894,-0.92183,-0.17874,0.96802,0.11042,,,0.74697,0.65294,0.12507,-0.00830,
1.25781,-0.03715,0.72231,-0.95667,-0.18260,0.96271,0.10553,,,0.74696,0.65293,0.12515,-0.00832,
1.26563,0.20404,0.36894,-0.85213,-0.18260,0.96753,0.11923,,,0.74695,0.65293,0.12521,-0.00835,
1.27344,0.06621,-0.86788,-0.74758,-0.17101,0.97284,0.12314,,,0.74695,0.65293,0.12520,-0.00843,
1.28125,-0.00270,-0.83254,-0.78243,-0.17197,0.97477,0.12119,,,0.74696,0.65292,0.12519,-0.00850,
1.28906,-0.03715,-0.16113,-0.71273,-0.17584,0.97477,0.11483,,,0.74696,0.65291,0.12521,-0.00855,
1.29688,0.06621,0.15691,-0.78243,-0.17342,0.97236,0.11874,,,0.74696,0.65291,0.12526,-0.00858,
1.30469,0.10067,0.40427,-0.81728,-0.16714,0.97429,0.12314,,,0.74695,0.65291,0.12531,-0.00861,
1.31250,0.10067,0.40427,-0.85213,-0.17825,0.97960,0.12021,,,0.74694,0.65291,0.12537,-0.00863,
1.32031,-0.00270,0.22758,-0.85213,-0.17632,0.97670,0.11727,,,0.74694,0.65290,0.12542,-0.00866,
1.32813,0.16958,-0.19647,-0.85213,-0.18212,0.96995,0.11727,,,0.74693,0.65290,0.12545,-0.00872,
1.33594,0.06621,-0.19647,-0.88698,-0.16521,0.97429,0.12755,,,0.74693,0.65290,0.12548,-0.00877,
1.34375,0.10067,-0.19647,-0.99152,-0.16569,0.97574,0.12266,,,0.74693,0.65289,0.12551,-0.00883,
1.35156,-0.10607,0.36894,-0.85213,-0.17245,0.97381,0.12217,,,0.74693,0.65288,0.12557,-0.00886,
1.35938,-0.03715,0.29826,-1.02637,-0.18212,0.96898,0.11923,,,0.74693,0.65287,0.12563,-0.00890,
1.36719,0.13513,0.15691,-1.02637,-0.18067,0.97429,0.11923,,,0.74692,0.65287,0.12568,-0.00894,
1.37500,0.06621,-0.09045,-0.85213,-0.16762,0.97574,0.12608,,,0.74692,0.65286,0.12572,-0.00899,
1.38281,-0.00270,0.43961,-0.78243,-0.17487,0.98105,0.11874,,,0.74691,0.65286,0.12577,-0.00901,
1.39063,0.03176,0.43961,-0.81728,-0.18212,0.97236,0.11972,,,0.74691,0.65285,0.12583,-0.00903,
1.39844,-0.00270,0.08623,-0.92183,-0.17245,0.97139,0.12559,,,0.74690,0.65284,0.12588,-0.00908,
1.40625,0.03176,-0.05512,-0.71273,-0.16907,0.97525,0.12657,,,0.74690,0.65284,0.12591,-0.00912,
1.41406,0.03176,-0.09045,-0.67788,-0.17729,0.98153,0.12217,,,0.74690,0.65284,0.12593,-0.00916,
1.42188,0.03176,-0.23180,-0.78243,-0.17825,0.97863,0.12119,,,0.74690,0.65283,0.12595,-0.00921,
1.42969,0.10067,-0.05512,-0.81728,-0.17922,0.98105,0.12119,,,0.74690,0.65283,0.12599,-0.00925,
1.43750,0.16958,-0.05512,-0.78243,-0.16666,0.97332,0.12363,,,0.74689,0.65283,0.12602,-0.00929,
1.44531,-0.14052,0.12157,-0.74758,-0.17294,0.97284,0.11581,,,0.74689,0.65282,0.12606,-0.00933,
1.45313,0.03176,0.12157,-0.81728,-0.18309,0.96609,0.11630,,,0.74689,0.65281,0.12610,-0.00936,
1.46094,0.06621,0.08623,-0.92183,-0.18164,0.97188,0.12266,,,0.74689,0.65281,0.12615,-0.00941,
1.46875,0.03176,-0.09045,-0.81728,-0.17342,0.97477,0.11189,,,0.74689,0.65280,0.12618,-0.00945,
1.47656,-0.03715,-0.01978,-0.74758,-0.17922,0.97574,0.11678,,,0.74689,0.65279,0.12621,-0.00949,
1.48438,0.06621,0.08623,-0.71273,-0.18260,0.97332,0.12021,,,0.74688,0.65279,0.12625,-0.00952,
1.49219,-0.07161,0.54562,-0.85213,-0.18164,0.96464,0.12168,,,0.74688,0.65278,0.12631,-0.00954,
1.50000,0.03176,0.01556,-0.78243,-0.17487,0.97139,0.12412,,,0.74688,0.65277,0.12635,-0.00958,
1.50781,-0.03715,-0.09045,-0.71273,-0.17680,0.97863,0.12266,,,0.74688,0.65277,0.12638,-0.00962,
1.51563,0.06621,-0.12579,-0.71273,-0.17825,0.97188,0.11630,,,0.74688,0.65276,0.12640,-0.00966,
1.52344,-0.00270,-0.19647,-0.64303,-0.17632,0.97381,0.11532,,,0.74688,0.65276,0.12642,-0.00971,
1.53125,-0.10607,-0.01978,-0.74758,-0.17777,0.97525,0.11678,,,0.74688,0.65275,0.12645,-0.00974,
1.53906,-0.00270,-0.26714,-0.60818,-0.17149,0.97477,0.12363,,,0.74689,0.65274,0.12647,-0.00979,
1.54688,0.10067,-0.33782,-0.60818,-0.17294,0.96898,0.11825,,,0.74689,0.65274,0.12648,-0.00983,
1.55469,-0.03715,-0.12579,-0.71273,-0.17825,0.97574,0.11238,,,0.74689,0.65273,0.12650,-0.00987,
1.56250,-0.00270,-0.12579,-0.78243,-0.17632,0.97574,0.11630,,,0.74689,0.65273,0.12653,-0.00992,
1.57031,0.03176,0.15691,-0.88698,-0.17874,0.98153,0.11972,,,0.74688,0.65272,0.12658,-0.00996,
1.57813,-0.07161,-0.33782,-0.71273,-0.18019,0.97236,0.11727,,,0.74689,0.65271,0.12659,-0.01001,
1.58594,-0.07161,0.08623,-0.67788,-0.17970,0.97477,0.12021,,,0.74689,0.65270,0.12663,-0.01004,
1.59375,-0.00270,-0.09045,-0.53848,-0.17535,0.97236,0.12412,,,0.74689,0.65270,0.12665,-0.01007,
1.60156,0.06621,-0.12579,-0.57333,-0.17729,0.97043,0.12510,,,0.74689,0.65269,0.12666,-0.01011,
1.60938,0.03176,0.05090,-0.64303,-0.17970,0.97332,0.12266,,,0.74689,0.65269,0.12670,-0.01014,
1.61719,0.13513,0.05090,-0.53848,-0.17922,0.96802,0.11727,,,0.74688,0.65269,0.12672,-0.01016,
1.62500,0.03176,-0.16113,-0.74758,-0.17439,0.97043,0.12412,,,0.74688,0.65269,0.12675,-0.01021,
1.63281,-0.00270,-0.26714,-0.57333,-0.17439,0.97381,0.12314,,,0.74688,0.65268,0.12676,-0.01025,
1.64063,-0.10607,-0.12579,-0.57333,-0.17825,0.98105,0.12119,,,0.74689,0.65267,0.12678,-0.01028,
1.64844,0.06621,-0.37315,-0.71273,-0.18115,0.96850,0.11727,,,0.74689,0.65267,0.12679,-0.01034,
1.65625,-0.00270,-0.33782,-0.67788,-0.17680,0.97477,0.11678,,,0.74689,0.65266,0.12680,-0.01039,
1.66406,-0.07161,-0.05512,-0.67788,-0.17487,0.97525,0.11972,,,0.74689,0.65265,0.12683,-0.01042,
1.67188,-0.03715,0.12157,-0.71273,-0.17052,0.96995,0.12266,,,0.74689,0.65264,0.12687,-0.01045,
1.67969,-0.07161,0.29826,-0.60818,-0.17825,0.96802,0.11776,,,0.74689,0.65264,0.12691,-0.01047,
1.68750,-0.14052,0.22758,-0.71273,-0.18019,0.97284,0.12363,,,0.74690,0.65262,0.12695,-0.01050,
1.69531,-0.00270,-0.09045,-0.60818,-0.17922,0.97718,0.12119,,,0.74690,0.65262,0.12698,-0.01053,
1.70313,-0.07161,-0.05512,-0.53848,-0.17970,0.97381,0.11776,,,0.74690,0.65261,0.12700,-0.01056,
1.71094,-0.00270,-0.12579,-0.64303,-0.17439,0.97574,0.11727,,,0.74690,0.65260,0.12702,-0.01060,
1.71875,-0.03715,0.54562,-0.64303,-0.18695,0.96705,0.12266,,,0.74690,0.65260,0.12708,-0.01061,
1.72656,-0.17498,0.19225,-0.74758,-0.18115,0.96995,0.12314,,,0.74690,0.65258,0.12712,-0.01063,
1.73438,-0.03715,-0.47917,-0.50363,-0.17487,0.97284,0.11874,,,0.74691,0.65257,0.12712,-0.01068,
1.74219,-0.07161,-0.09045,-0.57333,-0.18019,0.97815,0.12021,,,0.74691,0.65257,0.12714,-0.01071,
1.75000,-0.14052,-0.16113,-0.60818,-0.17390,0.97236,0.12217,,,0.74692,0.65255,0.12716,-0.01075,
1.75781,0.03176,-0.19647,-0.50363,-0.17584,0.97670,0.12363,,,0.74692,0.65255,0.12717,-0.01078,
1.76563,-0.00270,-0.30248,-0.57333,-0.17342,0.97284,0.12510,,,0.74692,0.65254,0.12718,-0.01083,
1.77344,0.13513,-0.51451,-0.50363,-0.18067,0.97477,0.11678,,,0.74692,0.65255,0.12718,-0.01088,
1.78125,0.06621,-0.30248,-0.60818,-0.17632,0.98056,0.11776,,,0.74692,0.65255,0.12719,-0.01092,
1.78906,0.06621,-0.47917,-0.53848,-0.17197,0.97960,0.11874,,,0.74692,0.65254,0.12719,-0.01097,
1.79688,0.06621,-0.33782,-0.46878,-0.17439,0.97525,0.11483,,,0.74692,0.65254,0.12719,-0.01101,
1.80469,-0.10607,0.26292,-0.43393,-0.17245,0.97381,0.12266,,,0.74692,0.65253,0.12722,-0.01102,
1.81250,0.03176,-0.26714,-0.43393,-0.18019,0.97043,0.11238,,,0.74692,0.65253,0.12723,-0.01105,
1.82031,-0.14052,0.15691,-0.43393,-0.18405,0.97429,0.12119,,,0.74693,0.65252,0.12726,-0.01107,
1.82813,-0.20943,-0.40849,-0.36424,-0.16714,0.97091,0.11630,,,0.74694,0.65251,0.12725,-0.01110,
1.83594,-0.03715,-0.26714,-0.29454,-0.17342,0.96898,0.11825,,,0.74694,0.65250,0.12725,-0.01113,
1.84375,-0.07161,0.26292,-0.36424,-0.17825,0.97477,0.12314,,,0.74694,0.65249,0.12728,-0.01114,
1.85156,-0.03715,-0.23180,-0.43393,-0.17970,0.97863,0.12021,,,0.74695,0.65249,0.12729,-0.01117,
1.85938,0.03176,-0.16113,-0.36424,-0.18019,0.97718,0.12119,,,0.74695,0.65249,0.12730,-0.01119,
1.86719,-0.20943,-0.26714,-0.50363,-0.17487,0.97236,0.11336,,,0.74696,0.65247,0.12731,-0.01123,
1.87500,-0.07161,0.01556,-0.46878,-0.17680,0.96946,0.11727,,,0.74696,0.65246,0.12733,-0.01125,
1.88281,0.10067,0.29826,-0.50363,-0.17342,0.97429,0.12119,,,0.74695,0.65247,0.12737,-0.01127,
1.89063,-0.07161,-0.09045,-0.46878,-0.17632,0.98008,0.11972,,,0.74696,0.65246,0.12738,-0.01129,
1.89844,-0.10607,0.15691,-0.53848,-0.17439,0.97912,0.11776,,,0.74696,0.65245,0.12741,-0.01131,
1.90625,-0.10607,-0.01978,-0.53848,-0.17390,0.97525,0.11972,,,0.74696,0.65244,0.12744,-0.01134,
1.91406,-0.27834,0.43961,-0.64303,-0.18164,0.97429,0.12119,,,0.74697,0.65242,0.12749,-0.01135,
1.92188,-0.17498,0.29826,-0.57333,-0.17922,0.97477,0.12021,,,0.74698,0.65240,0.12753,-0.01136,
1.92969,-0.24389,0.40427,-0.74758,-0.17970,0.97477,0.11825,,,0.74698,0.65239,0.12758,-0.01138,
1.93750,-0.20943,-0.01978,-0.36424,-0.18260,0.96995,0.11727,,,0.74699,0.65237,0.12760,-0.01140,
1.94531,-0.10607,0.12157,-0.57333,-0.17680,0.97284,0.12363,,,0.74700,0.65236,0.12763,-0.01142,
1.95313,-0.20943,-0.12579,-0.36424,-0.17101,0.97767,0.11581,,,0.74701,0.65235,0.12764,-0.01145,
1.96094,-0.10607,0.05090,-0.32939,-0.17439,0.97574,0.12070,,,0.74701,0.65234,0.12766,-0.01146,
1.96875,-0.20943,0.22758,-0.43393,-0.17874,0.97188,0.12314,,,0.74702,0.65233,0.12769,-0.01147,
1.97656,-0.17498,0.12157,-0.46878,-0.17632,0.96802,0.12657,,,0.74702,0.65231,0.12771,-0.01149,
1.98438,-0.20943,0.01556,-0.46878,-0.17294,0.97429,0.12168,,,0.74703,0.65230,0.12774,-0.01151,
1.99219,-0.07161,0.05090,-0.46878,-0.17294,0.97429,0.12168,,,0.74704,0.65229,0.12776,-0.01153,
2.00000,-0.00270,0.08623,-0.39909,-0.17342,0.96995,0.12559,,,0.74703,0.65229,0.12778,-0.01154,
2.00781,-0.10607,-0.01978,-0.53848,-0.17439,0.97091,0.12412,1022.055,26.6,0.74704,0.65228,0.12781,-0.01157,
2.01563,-0.24389,-0.23180,-0.46878,-0.17245,0.97188,0.12217,,,0.74705,0.65226,0.12781,-0.01160,
2.02344,-0.14052,-0.01978,-0.43393,-0.17439,0.97429,0.12070,,,0.74706,0.65225,0.12783,-0.01163,
2.03125,0.03176,-0.09045,-0.46878,-0.17825,0.96802,0.11678,,,0.74706,0.65225,0.12785,-0.01165,
2.03906,-0.00270,0.33360,-0.46878,-0.17729,0.97574,0.12070,,,0.74705,0.65224,0.12789,-0.01166,
2.04688,-0.07161,-0.12579,-0.39909,-0.18115,0.97043,0.11727,,,0.74706,0.65224,0.12790,-0.01169,
2.05469,-0.10607,-0.23180,-0.29454,-0.17439,0.97332,0.12266,,,0.74706,0.65223,0.12790,-0.01171,
2.06250,-0.17498,-0.12579,-0.43393,-0.17439,0.97574,0.11727,,,0.74707,0.65221,0.12791,-0.01174,
2.07031,-0.17498,-0.05512,-0.39909,-0.17294,0.97381,0.11776,,,0.74708,0.65220,0.12793,-0.01176,
2.07813,0.10067,-0.09045,-0.43393,-0.17487,0.97284,0.12217,,,0.74708,0.65220,0.12794,-0.01179,
2.08594,0.06621,-0.12579,-0.46878,-0.17052,0.97284,0.12559,,,0.74707,0.65220,0.12796,-0.01182,
2.09375,-0.00270,-0.01978,-0.39909,-0.17439,0.97767,0.12070,,,0.74707,0.65220,0.12797,-0.01184,
2.10156,0.06621,-0.33782,-0.39909,-0.18164,0.97477,0.11776,,,0.74707,0.65220,0.12797,-0.01187,
2.10938,0.13513,-0.19647,-0.50363,-0.17777,0.97381,0.12119,,,0.74707,0.65220,0.12799,-0.01191,
2.11719,0.03176,-0.44383,-0.50363,-0.17245,0.97477,0.12021,,,0.74707,0.65220,0.12799,-0.01196,
2.12500,0.06621,-0.37315,-0.43393,-0.17535,0.97863,0.12217,,,0.74707,0.65220,0.12799,-0.01199,
2.13281,-0.10607,-0.16113,-0.46878,-0.17245,0.97284,0.12363,,,0.74708,0.65219,0.12800,-0.01202,
2.14063,-0.14052,-0.19647,-0.53848,-0.18309,0.97188,0.12217,,,0.74708,0.65217,0.12801,-0.01206,
2.14844,-0.07161,-0.01978,-0.53848,-0.17584,0.96657,0.12314,,,0.74709,0.65217,0.12804,-0.01209,
2.15625,-0.10607,-0.05512,-0.46878,-0.17632,0.97188,0.11630,,,0.74709,0.65216,0.12805,-0.01211,
2.16406,-0.07161,0.08623,-0.39909,-0.18212,0.96946,0.11189,,,0.74709,0.65215,0.12808,-0.01213,
2.17188,-0.17498,-0.01978,-0.43393,-0.17874,0.97332,0.11874,,,0.74710,0.65214,0.12809,-0.01215,
2.17969,-0.07161,-0.23180,-0.43393,-0.17390,0.96995,0.12217,,,0.74711,0.65213,0.12810,-0.01218,
2.18750,-0.03715,-0.16113,-0.46878,-0.16666,0.97429,0.12266,,,0.74711,0.65212,0.12811,-0.01221,
2.19531,-0.00270,-0.23180,-0.39909,-0.16617,0.97525,0.12657,,,0.74711,0.65212,0.12812,-0.01224,
2.20313,-0.20943,0.43961,-0.46878,-0.18067,0.97381,0.12070,,,0.74712,0.65211,0.12816,-0.01225,
2.21094,-0.03715,-0.37315,-0.57333,-0.17729,0.97381,0.11972,,,0.74712,0.65210,0.12817,-0.01229,
2.21875,-0.03715,-0.09045,-0.57333,-0.17584,0.98249,0.11972,,,0.74712,0.65209,0.12819,-0.01232,
2.22656,-0.17498,0.08623,-0.53848,-0.17970,0.97477,0.12314,,,0.74713,0.65208,0.12822,-0.01235,
2.23438,-0.14052,0.08623,-0.74758,-0.18212,0.96898,0.11972,,,0.74713,0.65206,0.12826,-0.01238,
2.24219,-0.20943,0.12157,-0.78243,-0.17680,0.97574,0.11972,,,0.74714,0.65205,0.12830,-0.01241,
2.25000,-0.14052,-0.01978,-0.60818,-0.17390,0.97622,0.11483,,,0.74715,0.65203,0.12832,-0.01244,
2.25781,-0.03715,0.15691,-0.57333,-0.17922,0.97670,0.12168,,,0.74715,0.65203,0.12836,-0.01246,
2.26563,-0.20943,0.01556,-0.60818,-0.18019,0.96705,0.11483,,,0.74716,0.65201,0.12839,-0.01249,
2.27344,-0.17498,0.15691,-0.57333,-0.17245,0.97091,0.12363,,,0.74716,0.65200,0.12842,-0.01251,
2.28125,0.03176,-0.12579,-0.53848,-0.17680,0.97767,0.12461,,,0.74716,0.65199,0.12844,-0.01255,
2.28906,-0.10607,-0.05512,-0.43393,-0.17729,0.97188,0.11483,,,0.74717,0.65199,0.12845,-0.01257,
2.29688,-0.17498,0.01556,-0.50363,-0.17197,0.96705,0.11630,,,0.74717,0.65197,0.12848,-0.01259,
2.30469,-0.17498,-0.05512,-0.57333,-0.16811,0.97284,0.12510,,,0.74718,0.65196,0.12850,-0.01262,
2.31250,-0.10607,0.01556,-0.53848,-0.17149,0.97670,0.12363,,,0.74719,0.65195,0.12852,-0.01265,
2.32031,-0.07161,0.15691,-0.50363,-0.17632,0.97718,0.12217,,,0.74719,0.65194,0.12856,-0.01267,
2.32813,-0.07161,0.01556,-0.64303,-0.17632,0.97188,0.11581,,,0.74719,0.65193,0.12858,-0.01270,
2.33594,-0.07161,-0.09045,-0.53848,-0.17970,0.97332,0.11825,,,0.74719,0.65192,0.12860,-0.01273,
2.34375,-0.20943,0.01556,-0.50363,-0.17729,0.98056,0.12266,,,0.74720,0.65191,0.12863,-0.01275,
2.35156,-0.14052,-0.05512,-0.60818,-0.17535,0.97332,0.12168,,,0.74721,0.65189,0.12865,-0.01278,
2.35938,-0.10607,0.22758,-0.57333,-0.18550,0.97236,0.12168,,,0.74721,0.65188,0.12869,-0.01280,
2.36719,-0.03715,-0.16113,-0.57333,-0.18019,0.97284,0.11581,,,0.74721,0.65188,0.12871,-0.01284,
2.37500,-0.14052,-0.05512,-0.50363,-0.17680,0.97863,0.11678,,,0.74722,0.65187,0.12873,-0.01287,
2.38281,-0.14052,0.01556,-0.64303,-0.17197,0.97091,0.12412,,,0.74722,0.65185,0.12876,-0.01290,
2.39063,-0.10607,-0.16113,-0.53848,-0.17632,0.97284,0.11385,,,0.74723,0.65184,0.12877,-0.01293,
2.39844,-0.07161,0.08623,-0.50363,-0.18067,0.96946,0.11776,,,0.74723,0.65183,0.12880,-0.01295,
2.40625,-0.03715,-0.33782,-0.43393,-0.17052,0.97188,0.12363,,,0.74724,0.65183,0.12880,-0.01299,
2.41406,-0.17498,-0.09045,-0.25969,-0.17342,0.97381,0.12070,,,0.74724,0.65182,0.12881,-0.01300,
2.42188,-0.03715,-0.12579,-0.29454,-0.17777,0.97525,0.11972,,,0.74725,0.65181,0.12881,-0.01302,
2.42969,-0.17498,-0.26714,-0.32939,-0.17777,0.97670,0.12168,,,0.74726,0.65180,0.12881,-0.01305,
2.43750,-0.07161,-0.19647,-0.53848,-0.17197,0.97332,0.12314,,,0.74726,0.65179,0.12883,-0.01309,
2.44531,-0.14052,0.08623,-0.46878,-0.17439,0.97718,0.11727,,,0.74727,0.65178,0.12885,-0.01311,
2.45313,0.03176,-0.12579,-0.39909,-0.18067,0.97429,0.11776,,,0.74727,0.65178,0.12887,-0.01313,
2.46094,0.03176,-0.12579,-0.46878,-0.18019,0.97284,0.12021,,,0.74726,0.65178,0.12888,-0.01316,
2.46875,-0.14052,-0.19647,-0.53848,-0.17439,0.97332,0.11874,,,0.74727,0.65176,0.12889,-0.01320,
2.47656,-0.17498,-0.09045,-0.29454,-0.17777,0.97622,0.12461,,,0.74728,0.65175,0.12890,-0.01321,
2.48438,-0.03715,-0.23180,-0.36424,-0.17584,0.97863,0.11825,,,0.74728,0.65175,0.12891,-0.01324,
2.49219,0.03176,-0.37315,-0.22484,-0.17729,0.97284,0.11483,,,0.74729,0.65175,0.12890,-0.01327,
2.50000,-0.24389,0.01556,-0.25969,-0.17584,0.97525,0.12021,,,0.74730,0.65173,0.12891,-0.01328,
2.50781,-0.14052,-0.33782,-0.25969,-0.17149,0.97477,0.12070,,,0.74731,0.65172,0.12890,-0.01331,
2.51563,-0.00270,-0.19647,-0.25969,-0.17970,0.97381,0.11581,,,0.74731,0.65172,0.12891,-0.01333,
2.52344,-0.14052,-0.47917,-0.25969,-0.17535,0.97188,0.11140,,,0.74732,0.65171,0.12889,-0.01336,
2.53125,-0.14052,-0.47917,-0.12029,-0.17729,0.97622,0.12070,,,0.74733,0.65170,0.12887,-0.01339,
2.53906,-0.17498,-0.26714,-0.32939,-0.17149,0.97960,0.12657,,,0.74734,0.65169,0.12888,-0.01342,
2.54688,-0.20943,-0.05512,-0.22484,-0.17245,0.97236,0.12070,,,0.74735,0.65168,0.12888,-0.01343,
2.55469,-0.03715,-0.16113,-0.25969,-0.17874,0.97043,0.11532,,,0.74735,0.65167,0.12889,-0.01345,
2.56250,-0.20943,0.22758,-0.39909,-0.17970,0.97332,0.12070,,,0.74736,0.65166,0.12892,-0.01346,
2.57031,-0.14052,-0.09045,-0.36424,-0.17535,0.98201,0.12217,,,0.74736,0.65165,0.12893,-0.01348,
2.57813,-0.07161,-0.05512,-0.46878,-0.17729,0.97574,0.11678,,,0.74737,0.65164,0.12895,-0.01350,
2.58594,-0.14052,-0.19647,-0.39909,-0.18454,0.96705,0.12266,,,0.74737,0.65163,0.12895,-0.01353,
2.59375,-0.07161,-0.33782,-0.32939,-0.17632,0.97381,0.12021,,,0.74738,0.65162,0.12895,-0.01356,
2.60156,-0.14052,-0.23180,-0.15514,-0.16811,0.97332,0.12510,,,0.74739,0.65161,0.12895,-0.01358,
2.60938,-0.20943,-0.16113,-0.15514,-0.17777,0.97670,0.11874,,,0.74740,0.65160,0.12894,-0.01359,
2.61719,-0.17498,0.12157,-0.22484,-0.17487,0.97236,0.12461,,,0.74741,0.65159,0.12896,-0.01360,
2.62500,-0.20943,-0.05512,-0.25969,-0.17535,0.97236,0.12021,,,0.74741,0.65158,0.12897,-0.01361,
2.63281,-0.07161,-0.16113,-0.05059,-0.17632,0.97622,0.12461,,,0.74742,0.65157,0.12896,-0.01362,
2.64063,-0.24389,-0.23180,-0.08544,-0.17632,0.97188,0.12461,,,0.74743,0.65156,0.12896,-0.01363,
2.64844,-0.14052,-0.30248,-0.05059,-0.17439,0.97670,0.11874,,,0.74744,0.65155,0.12894,-0.01365,
2.65625,-0.31280,0.12157,-0.18999,-0.18164,0.97767,0.12363,,,0.74745,0.65153,0.12896,-0.01365,
2.66406,-0.24389,-0.44383,-0.01574,-0.17487,0.97574,0.11678,,,0.74747,0.65152,0.12894,-0.01367,
2.67188,-0.17498,-0.09045,-0.12029,-0.17729,0.97188,0.11483,,,0.74748,0.65151,0.12894,-0.01368,
2.67969,-0.07161,-0.37315,-0.15514,-0.17874,0.97622,0.11727,,,0.74748,0.65151,0.12893,-0.01370,
2.68750,-0.20943,-0.19647,-0.05059,-0.17680,0.97236,0.11385,,,0.74749,0.65149,0.12892,-0.01371,
2.69531,-0.17498,-0.23180,-0.08544,-0.17101,0.97236,0.12217,,,0.74750,0.65148,0.12891,-0.01372,
2.70313,-0.27834,0.05090,0.12366,-0.17825,0.98056,0.12412,,,0.74752,0.65147,0.12891,-0.01371,
2.71094,-0.31280,0.12157,-0.01574,-0.17487,0.97043,0.12363,,,0.74753,0.65146,0.12891,-0.01370,
2.71875,-0.24389,-0.19647,0.01911,-0.17825,0.97139,0.11678,,,0.74754,0.65144,0.12890,-0.01371,
2.72656,-0.38171,0.08623,-0.05059,-0.17052,0.97670,0.12706,,,0.74756,0.65142,0.12891,-0.01371,
2.73438,-0.24389,0.01556,0.05396,-0.17342,0.97236,0.12706,,,0.74757,0.65141,0.12891,-0.01370,
2.74219,-0.20943,-0.26714,0.05396,-0.18019,0.97477,0.11923,,,0.74758,0.65140,0.12889,-0.01371,
2.75000,-0.20943,-0.30248,-0.05059,-0.17729,0.97574,0.12412,,,0.74759,0.65139,0.12888,-0.01372,
2.75781,-0.31280,-0.40849,0.01911,-0.17101,0.97525,0.11678,,,0.74761,0.65137,0.12886,-0.01374,
2.76563,-0.17498,-0.12579,-0.08544,-0.17004,0.97912,0.12706,,,0.74762,0.65136,0.12886,-0.01374,
2.77344,-0.17498,-0.16113,-0.15514,-0.17052,0.97525,0.11630,,,0.74763,0.65135,0.12886,-0.01376,
2.78125,-0.27834,-0.01978,-0.12029,-0.17101,0.97332,0.11825,,,0.74764,0.65134,0.12886,-0.01376,
2.78906,-0.31280,0.19225,-0.32939,-0.16907,0.97236,0.12412,,,0.74765,0.65132,0.12888,-0.01377,
2.79688,-0.20943,0.15691,-0.29454,-0.17294,0.97139,0.12510,,,0.74766,0.65131,0.12891,-0.01377,
2.80469,-0.17498,0.05090,-0.25969,-0.17680,0.97381,0.12021,,,0.74767,0.65130,0.12892,-0.01378,
2.81250,-0.27834,0.01556,-0.25969,-0.18115,0.96995,0.11825,,,0.74768,0.65128,0.12893,-0.01379,
2.82031,-0.27834,-0.19647,-0.25969,-0.17342,0.97284,0.12021,,,0.74769,0.65126,0.12893,-0.01381,
2.82813,-0.24389,-0.47917,-0.22484,-0.16859,0.97477,0.12314,,,0.74771,0.65125,0.12892,-0.01384,
2.83594,-0.34726,-0.09045,-0.12029,-0.17197,0.97236,0.12217,,,0.74772,0.65123,0.12892,-0.01385,
2.84375,-0.27834,-0.05512,-0.22484,-0.17487,0.97043,0.11972,,,0.74774,0.65121,0.12893,-0.01386,
2.85156,-0.14052,-0.05512,-0.36424,-0.16956,0.97188,0.12657,,,0.74774,0.65120,0.12894,-0.01388,
2.85938,-0.31280,-0.16113,-0.05059,-0.16811,0.97525,0.12755,,,0.74776,0.65119,0.12894,-0.01389,
2.86719,-0.20943,-0.16113,-0.12029,-0.17052,0.97284,0.12363,,,0.74777,0.65117,0.12893,-0.01390,
2.87500,-0.14052,-0.23180,-0.29454,-0.17535,0.97381,0.11532,,,0.74778,0.65116,0.12893,-0.01392,
2.88281,-0.14052,-0.26714,-0.29454,-0.17294,0.97332,0.12217,,,0.74778,0.65115,0.12893,-0.01395,
2.89063,-0.27834,0.01556,-0.36424,-0.16859,0.97622,0.12461,,,0.74780,0.65114,0.12895,-0.01396,
2.89844,-0.10607,0.01556,-0.32939,-0.17390,0.96946,0.12363,,,0.74780,0.65113,0.12897,-0.01398,
2.90625,-0.14052,0.05090,-0.36424,-0.17584,0.97236,0.12217,,,0.74781,0.65112,0.12899,-0.01399,
2.91406,-0.17498,0.01556,-0.46878,-0.17294,0.97718,0.11630,,,0.74781,0.65110,0.12901,-0.01402,
2.92188,-0.17498,-0.01978,-0.36424,-0.16424,0.97477,0.12559,,,0.74782,0.65109,0.12902,-0.01403,
2.92969,-0.24389,0.22758,-0.46878,-0.17584,0.97574,0.11923,,,0.74783,0.65108,0.12906,-0.01405,
2.93750,-0.14052,-0.23180,-0.39909,-0.17197,0.97525,0.11874,,,0.74784,0.65106,0.12906,-0.01408,
2.94531,-0.20943,0.08623,-0.29454,-0.17584,0.97332,0.11972,,,0.74784,0.65105,0.12908,-0.01408,
2.95313,-0.17498,-0.05512,-0.32939,-0.17439,0.97815,0.12021,,,0.74785,0.65104,0.12909,-0.01410,
2.96094,-0.17498,-0.01978,-0.22484,-0.17487,0.97574,0.12119,,,0.74786,0.65103,0.12910,-0.01411,
2.96875,0.03176,-0.16113,-0.12029,-0.17729,0.97863,0.12266,,,0.74786,0.65103,0.12910,-0.01413,
2.97656,-0.03715,-0.12579,-0.36424,-0.16907,0.97767,0.12755,,,0.74786,0.65102,0.12911,-0.01415,
2.98438,0.03176,-0.40849,-0.25969,-0.16666,0.97332,0.12314,,,0.74786,0.65102,0.12910,-0.01418,
2.99219,0.06621,-0.01978,-0.29454,-0.17197,0.97284,0.12119,,,0.74786,0.65102,0.12911,-0.01420,
3.00000,-0.10607,-0.12579,-0.25969,-0.17439,0.97188,0.12070,,,0.74787,0.65102,0.12912,-0.01422,
3.00781,-0.03715,-0.23180,-0.39909,-0.17101,0.97091,0.12168,1022.115,26.6,0.74787,0.65101,0.12912,-0.01425,
3.01563,-0.03715,-0.26714,-0.43393,-0.17149,0.97332,0.11972,,,0.74787,0.65100,0.12913,-0.01428,
3.02344,0.03176,0.01556,-0.32939,-0.17680,0.98105,0.12461,,,0.74787,0.65100,0.12914,-0.01430,
3.03125,-0.07161,-0.01978,-0.46878,-0.17439,0.97525,0.12070,,,0.74788,0.65100,0.12916,-0.01432,
3.03906,-0.14052,0.19225,-0.50363,-0.17922,0.98249,0.12119,,,0.74788,0.65098,0.12919,-0.01434,
3.04688,-0.00270,0.19225,-0.50363,-0.17390,0.97574,0.11923,,,0.74788,0.65098,0.12923,-0.01435,
3.05469,-0.07161,0.05090,-0.43393,-0.16956,0.97284,0.12510,,,0.74788,0.65097,0.12925,-0.01437,
3.06250,0.03176,0.12157,-0.46878,-0.17390,0.97091,0.12363,,,0.74788,0.65097,0.12928,-0.01439,
3.07031,-0.14052,0.12157,-0.64303,-0.17149,0.96995,0.12510,,,0.74788,0.65096,0.12931,-0.01442,
3.07813,-0.03715,0.05090,-0.60818,-0.17004,0.97574,0.12951,,,0.74788,0.65095,0.12934,-0.01445,
3.08594,-0.14052,0.12157,-0.43393,-0.17294,0.97863,0.12168,,,0.74789,0.65094,0.12937,-0.01446,
3.09375,-0.14052,0.05090,-0.57333,-0.17197,0.96802,0.12412,,,0.74789,0.65093,0.12939,-0.01449,
3.10156,-0.03715,0.12157,-0.60818,-0.17342,0.97139,0.12314,,,0.74789,0.65092,0.12943,-0.01451,
3.10938,-0.17498,0.22758,-0.53848,-0.17680,0.97960,0.12755,,,0.74790,0.65091,0.12946,-0.01453,
3.11719,-0.00270,0.19225,-0.60818,-0.16762,0.97574,0.12755,,,0.74789,0.65090,0.12950,-0.01455,
3.12500,0.03176,0.26292,-0.67788,-0.16376,0.97284,0.12168,,,0.74789,0.65090,0.12954,-0.01457,
3.13281,0.13513,0.08623,-0.71273,-0.17874,0.97332,0.11727,,,0.74788,0.65090,0.12958,-0.01461,
3.14063,0.03176,0.36894,-0.74758,-0.17680,0.97381,0.12412,,,0.74788,0.65089,0.12963,-0.01463,
3.14844,-0.10607,0.12157,-0.78243,-0.17052,0.96705,0.12412,,,0.74788,0.65088,0.12967,-0.01466,
3.15625,-0.00270,0.47495,-0.88698,-0.17390,0.97912,0.12070,,,0.74788,0.65087,0.12973,-0.01469,
3.16406,-0.07161,0.40427,-0.88698,-0.17245,0.96995,0.12559,,,0.74787,0.65086,0.12979,-0.01471,
3.17188,-0.10607,-0.05512,-0.64303,-0.17149,0.96705,0.12021,,,0.74788,0.65085,0.12982,-0.01475,
3.17969,-0.10607,0.33360,-0.81728,-0.17390,0.97332,0.12168,,,0.74788,0.65084,0.12987,-0.01477,
3.18750,-0.17498,0.33360,-0.88698,-0.17052,0.96946,0.12510,,,0.74788,0.65082,0.12993,-0.01480,
3.19531,-0.00270,0.08623,-0.78243,-0.17874,0.96609,0.11776,,,0.74788,0.65082,0.12997,-0.01484,
3.20313,0.06621,-0.12579,-0.81728,-0.17825,0.97236,0.11825,,,0.74788,0.65081,0.13000,-0.01489,
3.21094,-0.14052,-0.09045,-0.60818,-0.17004,0.97429,0.12119,,,0.74789,0.65080,0.13002,-0.01492,
3.21875,-0.03715,-0.30248,-0.67788,-0.17245,0.97284,0.11581,,,0.74789,0.65079,0.13004,-0.01497,
3.22656,-0.03715,-0.26714,-0.64303,-0.17004,0.97477,0.12168,,,0.74789,0.65078,0.13005,-0.01501,
3.23438,-0.27834,-0.05512,-0.64303,-0.17535,0.97332,0.11923,,,0.74791,0.65076,0.13008,-0.01505,
3.24219,-0.07161,-0.37315,-0.67788,-0.16617,0.97477,0.12804,,,0.74791,0.65075,0.13009,-0.01510,
3.25000,-0.07161,-0.40849,-0.53848,-0.17004,0.97574,0.12070,,,0.74792,0.65074,0.13009,-0.01514,
3.25781,-0.07161,-0.26714,-0.57333,-0.17584,0.97525,0.11532,,,0.74792,0.65073,0.13010,-0.01518,
3.26563,-0.14052,-0.37315,-0.64303,-0.17197,0.97043,0.12510,,,0.74793,0.65072,0.13011,-0.01523,
3.27344,-0.14052,-0.44383,-0.46878,-0.17439,0.96946,0.12217,,,0.74794,0.65071,0.13011,-0.01527,
3.28125,-0.07161,-0.30248,-0.39909,-0.17052,0.97284,0.12755,,,0.74795,0.65070,0.13011,-0.01530,
3.28906,-0.17498,-0.51451,-0.36424,-0.17101,0.97670,0.11581,,,0.74796,0.65069,0.13010,-0.01534,
3.29688,-0.07161,-0.54984,-0.36424,-0.17487,0.97284,0.11874,,,0.74797,0.65068,0.13009,-0.01539,
3.30469,-0.07161,-0.26714,-0.39909,-0.16762,0.97525,0.12608,,,0.74797,0.65067,0.13010,-0.01542,
3.31250,-0.10607,-0.51451,-0.29454,-0.17052,0.97767,0.12119,,,0.74798,0.65067,0.13008,-0.01546,
3.32031,-0.14052,-0.44383,-0.39909,-0.16907,0.97043,0.12510,,,0.74799,0.65065,0.13008,-0.01549,
3.32813,-0.00270,-0.37315,-0.46878,-0.17825,0.97429,0.11483,,,0.74799,0.65065,0.13008,-0.01553,
3.33594,-0.07161,-0.30248,-0.53848,-0.16714,0.97863,0.12608,,,0.74800,0.65064,0.13009,-0.01557,
3.34375,0.03176,-0.47917,-0.50363,-0.16472,0.98056,0.12559,,,0.74800,0.65064,0.13009,-0.01562,
3.35156,-0.10607,0.05090,-0.57333,-0.16762,0.97477,0.12314,,,0.74800,0.65063,0.13011,-0.01565,
3.35938,-0.00270,-0.16113,-0.64303,-0.17294,0.96946,0.12559,,,0.74800,0.65062,0.13013,-0.01569,
3.36719,0.13513,-0.12579,-0.67788,-0.17052,0.96512,0.12021,,,0.74800,0.65062,0.13016,-0.01573,
3.37500,-0.00270,0.12157,-0.78243,-0.16907,0.97574,0.12510,,,0.74800,0.65062,0.13020,-0.01576,
3.38281,-0.00270,0.01556,-0.81728,-0.17197,0.97429,0.11727,,,0.74800,0.65061,0.13024,-0.01580,
3.39063,0.20404,-0.05512,-0.57333,-0.17197,0.97622,0.11874,,,0.74799,0.65061,0.13026,-0.01584,
3.39844,-0.03715,0.22758,-0.74758,-0.17874,0.97622,0.12510,,,0.74799,0.65060,0.13030,-0.01587,
3.40625,-0.10607,0.05090,-0.71273,-0.16714,0.96657,0.11825,,,0.74799,0.65059,0.13034,-0.01590,
3.41406,-0.03715,0.33360,-0.74758,-0.17487,0.97525,0.11972,,,0.74799,0.65059,0.13039,-0.01592,
3.42188,-0.07161,-0.09045,-0.71273,-0.17439,0.96802,0.12217,,,0.74799,0.65058,0.13041,-0.01596,
3.42969,0.03176,0.01556,-0.57333,-0.17487,0.97236,0.12070,,,0.74799,0.65057,0.13044,-0.01599,
3.43750,-0.03715,0.12157,-0.67788,-0.16666,0.97622,0.12608,,,0.74799,0.65056,0.13048,-0.01602,
3.44531,0.06621,0.22758,-0.74758,-0.17101,0.96705,0.11972,,,0.74798,0.65056,0.13052,-0.01605,
3.45313,0.03176,0.19225,-0.74758,-0.17439,0.97525,0.11630,,,0.74798,0.65056,0.13056,-0.01608,
3.46094,0.10067,0.08623,-0.88698,-0.17245,0.97091,0.12314,,,0.74797,0.65055,0.13061,-0.01612,
3.46875,-0.07161,0.22758,-0.81728,-0.16714,0.97718,0.12657,,,0.74797,0.65054,0.13066,-0.01615,
3.47656,-0.07161,0.15691,-0.74758,-0.16424,0.97863,0.12706,,,0.74797,0.65053,0.13070,-0.01618,
3.48438,0.03176,0.54562,-0.81728,-0.17922,0.97429,0.12070,,,0.74797,0.65053,0.13076,-0.01620,
3.49219,-0.03715,0.36894,-0.95667,-0.18164,0.97381,0.12070,,,0.74796,0.65052,0.13082,-0.01623,
3.50000,-0.14052,0.26292,-0.95667,-0.17825,0.97815,0.11923,,,0.74797,0.65050,0.13088,-0.01627,
3.50781,-0.07161,0.05090,-0.74758,-0.17439,0.97236,0.12461,,,0.74797,0.65049,0.13091,-0.01630,
3.51563,0.06621,-0.23180,-0.74758,-0.17342,0.97236,0.12070,,,0.74797,0.65049,0.13094,-0.01635,
3.52344,0.06621,-0.01978,-0.74758,-0.17922,0.97670,0.12266,,,0.74796,0.65048,0.13097,-0.01639,
3.53125,-0.10607,0.01556,-0.67788,-0.17729,0.97574,0.11972,,,0.74797,0.65047,0.13100,-0.01642,
3.53906,-0.03715,0.05090,-0.64303,-0.17197,0.97236,0.12021,,,0.74797,0.65047,0.13103,-0.01645,
3.54688,-0.00270,-0.16113,-0.46878,-0.17632,0.97477,0.11385,,,0.74797,0.65046,0.13104,-0.01648,
3.55469,0.06621,-0.19647,-0.53848,-0.17197,0.97139,0.12461,,,0.74797,0.65046,0.13106,-0.01652,
3.56250,-0.07161,0.01556,-0.57333,-0.17101,0.97429,0.13048,,,0.74797,0.65045,0.13108,-0.01655,
3.57031,-0.10607,-0.26714,-0.60818,-0.16617,0.97381,0.12314,,,0.74798,0.65044,0.13110,-0.01659,
3.57813,-0.03715,0.01556,-0.60818,-0.17294,0.97284,0.11825,,,0.74798,0.65043,0.13112,-0.01662,
3.58594,-0.00270,-0.12579,-0.60818,-0.17922,0.97091,0.11385,,,0.74798,0.65043,0.13114,-0.01666,
3.59375,0.03176,-0.09045,-0.60818,-0.16956,0.97332,0.12266,,,0.74798,0.65042,0.13117,-0.01669,
3.60156,-0.03715,-0.12579,-0.78243,-0.17439,0.97332,0.12510,,,0.74798,0.65041,0.13119,-0.01674,
3.60938,-0.07161,0.12157,-0.71273,-0.17197,0.97574,0.11972,,,0.74798,0.65040,0.13123,-0.01677,
3.61719,-0.07161,-0.19647,-0.43393,-0.17390,0.97622,0.11727,,,0.74798,0.65040,0.13124,-0.01680,
3.62500,-0.14052,0.29826,-0.64303,-0.17632,0.97718,0.12951,,,0.74799,0.65038,0.13128,-0.01682,
3.63281,-0.17498,0.01556,-0.60818,-0.16376,0.97381,0.12363,,,0.74799,0.65037,0.13131,-0.01684,
3.64063,-0.00270,0.15691,-0.50363,-0.17294,0.97477,0.12363,,,0.74799,0.65036,0.13134,-0.01686,
3.64844,-0.24389,0.08623,-0.67788,-0.17294,0.96995,0.12461,,,0.74800,0.65035,0.13138,-0.01689,
3.65625,-0.07161,-0.16113,-0.71273,-0.16811,0.97188,0.12608,,,0.74800,0.65034,0.13140,-0.01693,
3.66406,-0.00270,-0.05512,-0.60818,-0.17439,0.97381,0.11581,,,0.74800,0.65033,0.13143,-0.01697,
3.67188,-0.10607,-0.26714,-0.57333,-0.16956,0.97139,0.11678,,,0.74801,0.65032,0.13144,-0.01701,
3.67969,-0.00270,-0.33782,-0.43393,-0.17245,0.97332,0.11727,,,0.74801,0.65032,0.13144,-0.01705,
3.68750,-0.14052,-0.09045,-0.64303,-0.17197,0.96898,0.12951,,,0.74802,0.65030,0.13146,-0.01708,
3.69531,-0.07161,-0.09045,-0.60818,-0.17632,0.97912,0.12412,,,0.74802,0.65029,0.13149,-0.01712,
3.70313,-0.03715,-0.05512,-0.78243,-0.17245,0.96609,0.12363,,,0.74802,0.65028,0.13152,-0.01716,
3.71094,-0.07161,-0.12579,-0.60818,-0.17197,0.97043,0.12559,,,0.74803,0.65028,0.13154,-0.01719,
3.71875,-0.03715,0.19225,-0.64303,-0.17584,0.97091,0.12119,,,0.74803,0.65027,0.13158,-0.01722,
3.72656,-0.17498,0.15691,-0.74758,-0.17197,0.96946,0.12461,,,0.74803,0.65025,0.13162,-0.01725,
3.73438,-0.10607,0.15691,-0.71273,-0.16859,0.97381,0.12217,,,0.74803,0.65024,0.13166,-0.01728,
3.74219,0.06621,-0.05512,-0.67788,-0.16907,0.97236,0.12706,,,0.74803,0.65024,0.13168,-0.01731,
3.75000,0.23849,-0.01978,-0.85213,-0.17390,0.97429,0.11630,,,0.74802,0.65024,0.13172,-0.01736,
3.75781,0.03176,-0.01978,-0.85213,-0.17439,0.97091,0.12168,,,0.74802,0.65024,0.13176,-0.01740,
3.76563,0.13513,-0.05512,-0.67788,-0.17101,0.97284,0.12363,,,0.74801,0.65024,0.13178,-0.01744,
3.77344,-0.07161,-0.09045,-0.71273,-0.16714,0.97477,0.12706,,,0.74801,0.65023,0.13181,-0.01748,
3.78125,0.13513,-0.12579,-0.88698,-0.17439,0.97188,0.11678,,,0.74801,0.65023,0.13184,-0.01753,
3.78906,0.03176,0.08623,-0.71273,-0.17149,0.97332,0.11972,,,0.74801,0.65022,0.13188,-0.01757,
3.79688,0.06621,-0.01978,-0.67788,-0.17004,0.97429,0.12217,,,0.74800,0.65022,0.13191,-0.01760,
3.80469,0.10067,-0.12579,-0.67788,-0.17197,0.97236,0.12412,,,0.74800,0.65022,0.13193,-0.01764,
3.81250,-0.07161,-0.19647,-0.60818,-0.17197,0.97381,0.11776,,,0.74800,0.65021,0.13195,-0.01768,
3.82031,0.06621,-0.16113,-0.85213,-0.17294,0.97139,0.12755,,,0.74800,0.65020,0.13198,-0.01773,
3.82813,-0.00270,-0.33782,-0.67788,-0.17632,0.98008,0.12412,,,0.74800,0.65020,0.13199,-0.01778,
3.83594,0.10067,-0.33782,-0.60818,-0.16859,0.97139,0.12461,,,0.74800,0.65020,0.13200,-0.01783,
3.84375,0.13513,-0.23180,-0.67788,-0.17584,0.97622,0.11825,,,0.74799,0.65020,0.13202,-0.01788,
3.85156,0.20404,-0.26714,-0.88698,-0.17439,0.96995,0.12119,,,0.74799,0.65020,0.13204,-0.01793,
3.85938,0.13513,-0.09045,-0.74758,-0.17004,0.97574,0.12119,,,0.74798,0.65020,0.13207,-0.01798,
3.86719,-0.00270,-0.05512,-0.64303,-0.16859,0.97381,0.12559,,,0.74798,0.65019,0.13210,-0.01801,
3.87500,0.03176,0.12157,-0.78243,-0.18067,0.97767,0.11581,,,0.74798,0.65019,0.13214,-0.01805,
3.88281,-0.00270,0.22758,-0.74758,-0.18502,0.96705,0.12119,,,0.74797,0.65018,0.13218,-0.01808,
3.89063,-0.03715,-0.19647,-0.60818,-0.16762,0.97622,0.12608,,,0.74798,0.65017,0.13220,-0.01812,
3.89844,0.06621,0.01556,-0.57333,-0.17245,0.97477,0.11385,,,0.74797,0.65017,0.13223,-0.01814,
3.90625,-0.00270,-0.09045,-0.57333,-0.18067,0.97139,0.12168,,,0.74797,0.65017,0.13225,-0.01818,
3.91406,-0.00270,-0.16113,-0.60818,-0.17584,0.97381,0.12119,,,0.74797,0.65016,0.13227,-0.01822,
3.92188,-0.03715,-0.26714,-0.50363,-0.17197,0.97332,0.11874,,,0.74798,0.65015,0.13228,-0.01825,
3.92969,-0.00270,0.05090,-0.57333,-0.17487,0.97863,0.12314,,,0.74798,0.65015,0.13230,-0.01828,
3.93750,-0.03715,-0.01978,-0.64303,-0.17729,0.97670,0.12021,,,0.74798,0.65014,0.13233,-0.01831,
3.94531,-0.03715,-0.05512,-0.64303,-0.17825,0.97815,0.12119,,,0.74798,0.65013,0.13236,-0.01835,
3.95313,-0.00270,0.08623,-0.64303,-0.16956,0.97332,0.12314,,,0.74798,0.65013,0.13239,-0.01838,
3.96094,-0.10607,-0.01978,-0.67788,-0.17390,0.97236,0.11727,,,0.74798,0.65012,0.13242,-0.01841,
3.96875,0.16958,-0.01978,-0.53848,-0.18019,0.97574,0.11874,,,0.74797,0.65012,0.13244,-0.01844,
3.97656,-0.03715,0.05090,-0.67788,-0.17922,0.96609,0.11874,,,0.74797,0.65011,0.13247,-0.01847,
3.98438,-0.00270,-0.19647,-0.50363,-0.17729,0.98105,0.12314,,,0.74798,0.65011,0.13249,-0.01851,
3.99219,0.03176,-0.01978,-0.53848,-0.16956,0.97574,0.12755,,,0.74797,0.65010,0.13251,-0.01854,
4.00000,-0.00270,0.08623,-0.60818,-0.17680,0.97622,0.11483,,,0.74797,0.65010,0.13254,-0.01856,
4.00781,-0.03715,0.12157,-0.64303,-0.18212,0.96898,0.12119,1022.113,26.6,0.74797,0.65009,0.13257,-0.01859,
4.01563,-0.17498,0.01556,-0.57333,-0.17535,0.97284,0.12168,,,0.74798,0.65008,0.13260,-0.01862,
4.02344,-0.03715,0.01556,-0.43393,-0.16714,0.97574,0.12755,,,0.74798,0.65007,0.13262,-0.01864,
4.03125,-0.00270,-0.16113,-0.50363,-0.17584,0.97718,0.11776,,,0.74798,0.65007,0.13264,-0.01867,
4.03906,-0.07161,-0.01978,-0.64303,-0.17680,0.97091,0.11434,,,0.74798,0.65006,0.13266,-0.01870,
4.04688,-0.07161,0.22758,-0.71273,-0.16521,0.97815,0.12755,,,0.74798,0.65005,0.13271,-0.01873,
4.05469,0.03176,-0.01978,-0.74758,-0.16714,0.97670,0.12461,,,0.74798,0.65004,0.13274,-0.01877,
4.06250,-0.00270,0.12157,-0.60818,-0.17487,0.97767,0.11923,,,0.74798,0.65004,0.13277,-0.01879,
4.07031,-0.03715,0.33360,-0.92183,-0.18019,0.97284,0.12168,,,0.74798,0.65003,0.13283,-0.01883,
4.07813,-0.07161,-0.01978,-0.71273,-0.17149,0.97091,0.12755,,,0.74798,0.65002,0.13286,-0.01886,
4.08594,0.06621,0.12157,-0.71273,-0.17245,0.97091,0.12461,,,0.74797,0.65001,0.13290,-0.01889,
4.09375,0.03176,0.15691,-0.64303,-0.17729,0.97718,0.11972,,,0.74797,0.65001,0.13293,-0.01892,
4.10156,-0.03715,-0.05512,-0.71273,-0.18067,0.97332,0.12119,,,0.74797,0.65000,0.13296,-0.01896,
4.10938,-0.14052,0.01556,-0.71273,-0.17487,0.97188,0.12657,,,0.74798,0.64999,0.13299,-0.01899,
4.11719,-0.07161,-0.16113,-0.46878,-0.16956,0.96657,0.11972,,,0.74798,0.64998,0.13301,-0.01902,
4.12500,0.06621,0.01556,-0.57333,-0.17535,0.97477,0.11630,,,0.74798,0.64998,0.13303,-0.01905,
4.13281,-0.20943,0.43961,-0.67788,-0.17149,0.97043,0.12706,,,0.74798,0.64996,0.13309,-0.01907,
4.14063,0.03176,0.01556,-0.57333,-0.17342,0.97622,0.11678,,,0.74798,0.64996,0.13311,-0.01909,
4.14844,-0.03715,0.01556,-0.60818,-0.16762,0.97574,0.12657,,,0.74798,0.64995,0.13314,-0.01912,
4.15625,-0.00270,-0.23180,-0.60818,-0.17101,0.97091,0.12217,,,0.74798,0.64994,0.13316,-0.01917,
4.16406,0.06621,0.01556,-0.71273,-0.18019,0.97188,0.11776,,,0.74798,0.64994,0.13319,-0.01920,
4.17188,-0.00270,0.08623,-0.78243,-0.17439,0.97477,0.12070,,,0.74798,0.64993,0.13323,-0.01924,
4.17969,-0.03715,0.01556,-0.57333,-0.17197,0.97863,0.12168,,,0.74798,0.64993,0.13325,-0.01927,
4.18750,-0.00270,-0.09045,-0.60818,-0.17197,0.97284,0.12021,,,0.74798,0.64992,0.13327,-0.01930,
4.19531,0.13513,-0.19647,-0.60818,-0.18019,0.97718,0.12021,,,0.74797,0.64992,0.13329,-0.01934,
4.20313,-0.10607,0.12157,-0.57333,-0.18405,0.96946,0.12217,,,0.74797,0.64991,0.13332,-0.01936,
4.21094,-0.03715,-0.12579,-0.60818,-0.17052,0.97139,0.12461,,,0.74798,0.64990,0.13334,-0.01940,
4.21875,-0.17498,-0.09045,-0.50363,-0.17149,0.97429,0.12119,,,0.74798,0.64989,0.13336,-0.01943,
4.22656,0.03176,-0.09045,-0.50363,-0.18115,0.97381,0.12168,,,0.74798,0.64989,0.13338,-0.01946,
4.23438,-0.17498,0.01556,-0.53848,-0.17874,0.96898,0.11923,,,0.74799,0.64987,0.13340,-0.01948,
4.24219,0.03176,-0.30248,-0.46878,-0.16811,0.97091,0.11581,,,0.74799,0.64987,0.13341,-0.01952,
4.25000,-0.10607,-0.23180,-0.43393,-0.17149,0.97091,0.12412,,,0.74800,0.64986,0.13342,-0.01955,
4.25781,-0.00270,-0.01978,-0.53848,-0.17922,0.97767,0.11923,,,0.74800,0.64985,0.13344,-0.01958,
4.26563,-0.10607,0.01556,-0.53848,-0.17535,0.97429,0.11972,,,0.74800,0.64984,0.13346,-0.01961,
4.27344,-0.10607,-0.01978,-0.60818,-0.17245,0.97381,0.12559,,,0.74800,0.64983,0.13349,-0.01964,
4.28125,0.06621,-0.09045,-0.53848,-0.17004,0.97381,0.12510,,,0.74800,0.64983,0.13351,-0.01967,
4.28906,0.10067,-0.19647,-0.57333,-0.17390,0.97381,0.12119,,,0.74800,0.64983,0.13352,-0.01971,
4.29688,0.03176,-0.26714,-0.64303,-0.18067,0.97477,0.11874,,,0.74800,0.64983,0.13354,-0.01975,
4.30469,0.06621,0.05090,-0.64303,-0.17439,0.97863,0.12266,,,0.74799,0.64982,0.13357,-0.01978,
4.31250,-0.14052,-0.16113,-0.60818,-0.17439,0.97139,0.12021,,,0.74800,0.64981,0.13359,-0.01982,
4.32031,-0.10607,0.15691,-0.60818,-0.18019,0.97960,0.12314,,,0.74800,0.64980,0.13362,-0.01984,
4.32813,-0.07161,-0.12579,-0.64303,-0.16762,0.97525,0.12510,,,0.74801,0.64979,0.13365,-0.01988,
4.33594,-0.03715,-0.01978,-0.43393,-0.17777,0.97525,0.11727,,,0.74801,0.64979,0.13366,-0.01990,
4.34375,-0.03715,-0.09045,-0.53848,-0.17342,0.96995,0.12412,,,0.74801,0.64978,0.13368,-0.01994,
4.35156,0.03176,-0.40849,-0.46878,-0.17149,0.96850,0.12461,,,0.74801,0.64978,0.13368,-0.01998,
4.35938,-0.07161,-0.01978,-0.50363,-0.17777,0.97477,0.12070,,,0.74801,0.64977,0.13371,-0.02000,
4.36719,-0.20943,0.01556,-0.60818,-0.16956,0.97332,0.12461,,,0.74802,0.64975,0.13373,-0.02003,
4.37500,-0.00270,-0.09045,-0.57333,-0.17101,0.96850,0.12217,,,0.74802,0.64975,0.13375,-0.02007,
4.38281,-0.00270,0.08623,-0.64303,-0.17439,0.97863,0.12021,,,0.74802,0.64974,0.13379,-0.02009,
4.39063,-0.03715,0.15691,-0.64303,-0.17825,0.97284,0.12363,,,0.74802,0.64973,0.13382,-0.02012,
4.39844,0.13513,-0.05512,-0.81728,-0.18019,0.97815,0.12168,,,0.74801,0.64973,0.13386,-0.02016,
4.40625,-0.00270,-0.23180,-0.81728,-0.17294,0.97525,0.11336,,,0.74802,0.64972,0.13388,-0.02022,
4.41406,-0.03715,-0.23180,-0.64303,-0.17535,0.97525,0.11727,,,0.74802,0.64972,0.13390,-0.02026,
4.42188,-0.00270,0.12157,-0.78243,-0.17729,0.97477,0.11874,,,0.74802,0.64971,0.13394,-0.02029,
4.42969,-0.00270,0.15691,-0.71273,-0.17197,0.96705,0.12314,,,0.74801,0.64970,0.13398,-0.02032,
4.43750,-0.03715,0.26292,-0.78243,-0.17342,0.97236,0.11923,,,0.74801,0.64969,0.13403,-0.02035,
4.44531,-0.20943,0.43961,-0.74758,-0.16956,0.97477,0.12608,,,0.74802,0.64968,0.13408,-0.02037,
4.45313,-0.00270,-0.01978,-0.71273,-0.17825,0.97622,0.11874,,,0.74802,0.64967,0.13411,-0.02040,
4.46094,0.13513,0.12157,-0.78243,-0.17825,0.97139,0.11727,,,0.74801,0.64967,0.13415,-0.02044,
4.46875,-0.03715,-0.40849,-0.74758,-0.17535,0.97622,0.11972,,,0.74801,0.64966,0.13416,-0.02050,
4.47656,-0.03715,0.08623,-0.85213,-0.17680,0.97863,0.12314,,,0.74801,0.64965,0.13421,-0.02054,
4.48438,-0.07161,-0.33782,-0.81728,-0.17101,0.97381,0.12217,,,0.74802,0.64964,0.13423,-0.02059,
4.49219,0.13513,-0.23180,-0.71273,-0.17535,0.97718,0.12070,,,0.74801,0.64964,0.13425,-0.02064,
4.50000,-0.10607,-0.12579,-0.85213,-0.17197,0.97525,0.11825,,,0.74802,0.64963,0.13428,-0.02069,
4.50781,-0.00270,-0.23180,-0.74758,-0.17777,0.97525,0.12168,,,0.74802,0.64962,0.13430,-0.02074,
4.51563,0.10067,0.05090,-0.67788,-0.17922,0.97188,0.11532,,,0.74801,0.64962,0.13433,-0.02077,
4.52344,0.06621,-0.19647,-0.71273,-0.17970,0.97815,0.11972,,,0.74801,0.64961,0.13435,-0.02081,
4.53125,0.03176,-0.16113,-0.64303,-0.17487,0.97574,0.12021,,,0.74801,0.64961,0.13437,-0.02085,
4.53906,0.06621,-0.37315,-0.50363,-0.17197,0.97381,0.12021,,,0.74801,0.64961,0.13438,-0.02090,
4.54688,-0.00270,-0.01978,-0.60818,-0.17390,0.96995,0.12461,,,0.74801,0.64960,0.13440,-0.02093,
4.55469,-0.00270,-0.23180,-0.64303,-0.17535,0.97043,0.11532,,,0.74801,0.64960,0.13442,-0.02097,
4.56250,-0.03715,-0.26714,-0.53848,-0.17680,0.97767,0.12119,,,0.74801,0.64959,0.13443,-0.02101,
4.57031,-0.07161,-0.33782,-0.50363,-0.17584,0.97332,0.12314,,,0.74802,0.64958,0.13443,-0.02105,
4.57813,-0.00270,-0.33782,-0.39909,-0.17390,0.97284,0.11630,,,0.74802,0.64958,0.13443,-0.02109,
4.58594,-0.07161,-0.09045,-0.50363,-0.17922,0.97429,0.12021,,,0.74802,0.64957,0.13445,-0.02112,
4.59375,-0.03715,0.08623,-0.43393,-0.18115,0.97284,0.11972,,,0.74802,0.64956,0.13447,-0.02113,
4.60156,0.03176,0.05090,-0.46878,-0.18067,0.97670,0.12266,,,0.74802,0.64956,0.13450,-0.02116,
4.60938,-0.00270,-0.01978,-0.36424,-0.17680,0.97429,0.12266,,,0.74802,0.64956,0.13451,-0.02117,
4.61719,-0.00270,0.12157,-0.36424,-0.18067,0.97236,0.12119,,,0.74802,0.64955,0.13454,-0.02119,
4.62500,-0.07161,-0.30248,-0.39909,-0.17245,0.97332,0.12070,,,0.74802,0.64954,0.13454,-0.02122,
4.63281,-0.07161,-0.26714,-0.22484,-0.17390,0.97236,0.12363,,,0.74803,0.64954,0.13453,-0.02124,
4.64063,-0.20943,0.05090,-0.36424,-0.17149,0.97429,0.12608,,,0.74804,0.64952,0.13455,-0.02126,
4.64844,-0.14052,-0.33782,-0.29454,-0.17004,0.97429,0.12119,,,0.74805,0.64951,0.13455,-0.02129,
4.65625,-0.07161,-0.01978,-0.39909,-0.17294,0.96753,0.12559,,,0.74805,0.64951,0.13457,-0.02131,
4.66406,-0.24389,-0.16113,-0.46878,-0.16907,0.97284,0.12412,,,0.74806,0.64949,0.13458,-0.02134,
4.67188,-0.07161,0.08623,-0.43393,-0.17294,0.96898,0.12363,,,0.74806,0.64948,0.13460,-0.02135,
4.67969,-0.07161,0.08623,-0.50363,-0.17970,0.96946,0.11678,,,0.74807,0.64947,0.13463,-0.02137,
4.68750,-0.03715,0.22758,-0.46878,-0.18019,0.97091,0.12070,,,0.74806,0.64947,0.13466,-0.02139,
4.69531,-0.10607,0.08623,-0.57333,-0.17294,0.97188,0.12461,,,0.74807,0.64946,0.13469,-0.02141,
4.70313,0.03176,-0.16113,-0.43393,-0.17101,0.97574,0.12070,,,0.74807,0.64946,0.13470,-0.02144,
4.71094,-0.07161,0.01556,-0.50363,-0.17825,0.97767,0.12412,,,0.74807,0.64945,0.13473,-0.02147,
4.71875,-0.10607,-0.05512,-0.53848,-0.17680,0.97043,0.11630,,,0.74807,0.64944,0.13475,-0.02149,
4.72656,-0.03715,0.01556,-0.39909,-0.17439,0.97718,0.12266,,,0.74807,0.64943,0.13476,-0.02151,
4.73438,-0.14052,0.08623,-0.60818,-0.17487,0.97429,0.12266,,,0.74808,0.64942,0.13480,-0.02154,
4.74219,-0.00270,0.01556,-0.43393,-0.17777,0.97622,0.11776,,,0.74808,0.64941,0.13482,-0.02156,
4.75000,-0.03715,0.05090,-0.53848,-0.18115,0.97139,0.11972,,,0.74808,0.64941,0.13484,-0.02159,
4.75781,-0.07161,-0.09045,-0.32939,-0.17487,0.96898,0.12119,,,0.74808,0.64940,0.13485,-0.02161,
4.76563,-0.10607,0.15691,-0.53848,-0.17584,0.97139,0.12119,,,0.74808,0.64939,0.13488,-0.02163,
4.77344,-0.03715,0.12157,-0.60818,-0.17970,0.97332,0.12119,,,0.74808,0.64938,0.13492,-0.02165,
4.78125,-0.10607,-0.12579,-0.43393,-0.17777,0.97236,0.11727,,,0.74809,0.64937,0.13493,-0.02168,
4.78906,-0.00270,-0.19647,-0.50363,-0.17487,0.97091,0.12217,,,0.74809,0.64937,0.13494,-0.02171,
4.79688,-0.00270,-0.33782,-0.39909,-0.17294,0.97284,0.12217,,,0.74809,0.64936,0.13494,-0.02175,
4.80469,-0.20943,-0.05512,-0.36424,-0.17874,0.97622,0.11727,,,0.74810,0.64935,0.13496,-0.02177,
4.81250,-0.20943,-0.12579,-0.32939,-0.17197,0.97815,0.11581,,,0.74811,0.64934,0.13497,-0.02179,
4.82031,-0.10607,0.01556,-0.36424,-0.17004,0.97236,0.12853,,,0.74812,0.64933,0.13498,-0.02180,
4.82813,-0.10607,-0.33782,-0.22484,-0.17052,0.97525,0.12314,,,0.74812,0.64932,0.13497,-0.02183,
4.83594,-0.17498,0.05090,-0.18999,-0.17342,0.96995,0.12657,,,0.74813,0.64931,0.13499,-0.02183,
4.84375,-0.24389,-0.12579,-0.39909,-0.17439,0.97043,0.12266,,,0.74814,0.64929,0.13500,-0.02186,
4.85156,-0.10607,-0.12579,-0.36424,-0.17535,0.97525,0.12021,,,0.74815,0.64928,0.13501,-0.02188,
4.85938,-0.03715,0.01556,-0.29454,-0.17052,0.98298,0.12951,,,0.74815,0.64928,0.13502,-0.02190,
4.86719,-0.00270,0.05090,-0.36424,-0.16956,0.97429,0.12657,,,0.74815,0.64928,0.13504,-0.02191,
4.87500,0.03176,0.15691,-0.39909,-0.17584,0.97284,0.11630,,,0.74814,0.64927,0.13507,-0.02193,
4.88281,-0.10607,0.01556,-0.64303,-0.17342,0.97043,0.12217,,,0.74815,0.64926,0.13509,-0.02196,
4.89063,-0.00270,-0.19647,-0.46878,-0.16956,0.97477,0.12559,,,0.74815,0.64926,0.13511,-0.02199,
4.89844,0.03176,-0.12579,-0.36424,-0.16956,0.97622,0.12510,,,0.74815,0.64926,0.13512,-0.02201,
4.90625,-0.03715,-0.12579,-0.46878,-0.17970,0.97718,0.12119,,,0.74815,0.64925,0.13513,-0.02204,
4.91406,0.03176,-0.19647,-0.39909,-0.17584,0.97574,0.11923,,,0.74815,0.64925,0.13514,-0.02207,
4.92188,-0.03715,-0.19647,-0.39909,-0.16859,0.97284,0.11972,,,0.74815,0.64924,0.13514,-0.02210,
4.92969,0.06621,-0.09045,-0.36424,-0.16521,0.97622,0.12412,,,0.74815,0.64924,0.13516,-0.02212,
4.93750,-0.00270,-0.26714,-0.50363,-0.17390,0.97525,0.11042,,,0.74815,0.64924,0.13516,-0.02216,
4.94531,-0.07161,0.58096,-0.57333,-0.17149,0.96995,0.12461,,,0.74815,0.64923,0.13522,-0.02216,
4.95313,-0.14052,0.79299,-0.60818,-0.17197,0.96802,0.12266,,,0.74815,0.64922,0.13529,-0.02216,
4.96094,-0.27834,1.00501,-0.81728,-0.16617,0.97284,0.12657,,,0.74815,0.64920,0.13537,-0.02215,
4.96875,-0.14052,0.86366,-0.53848,-0.17632,0.97381,0.11825,,,0.74815,0.64919,0.13544,-0.02214,
4.97656,-0.03715,0.68697,-0.64303,-0.18164,0.96657,0.11678,,,0.74814,0.64918,0.13551,-0.02214,
4.98438,-0.00270,0.54562,-0.81728,-0.17874,0.97381,0.12999,,,0.74813,0.64917,0.13557,-0.02216,
4.99219,-0.03715,-0.09045,-0.36424,-0.18019,0.97622,0.12217,,,0.74814,0.64917,0.13558,-0.02218,
5.00000,0.27295,-0.19647,-0.46878,-0.18067,0.97574,0.12363,,,0.74813,0.64918,0.13559,-0.02222,
5.00781,0.16958,-0.44383,-0.39909,-0.18019,0.97622,0.12363,1022.056,26.6,0.74812,0.64918,0.13559,-0.02226,
5.01563,0.30741,-0.62052,-0.25969,-0.17390,0.97332,0.12119,,,0.74811,0.64919,0.13557,-0.02230,
5.02344,0.34186,-0.33782,-0.22484,-0.16666,0.97815,0.12412,,,0.74810,0.64921,0.13556,-0.02233,
5.03125,0.10067,0.05090,-0.05059,-0.17777,0.98105,0.12266,,,0.74810,0.64921,0.13556,-0.02233,
5.03906,0.23849,0.05090,-0.12029,-0.18164,0.97091,0.11727,,,0.74808,0.64922,0.13557,-0.02234,
5.04688,0.27295,-0.09045,-0.01574,-0.18164,0.97139,0.11825,,,0.74807,0.64924,0.13557,-0.02235,
5.05469,0.10067,-0.30248,0.01911,-0.17487,0.97815,0.11923,,,0.74807,0.64924,0.13555,-0.02236,
5.06250,0.13513,0.01556,0.22820,-0.18019,0.97332,0.12217,,,0.74807,0.64925,0.13554,-0.02235,
5.07031,0.13513,0.19225,0.08881,-0.18019,0.97429,0.11532,,,0.74806,0.64926,0.13555,-0.02234,
5.07813,-0.03715,0.12157,0.36760,-0.17390,0.97429,0.11972,,,0.74806,0.64926,0.13554,-0.02231,
5.08594,0.06621,0.12157,0.57670,-0.16762,0.97670,0.12070,,,0.74806,0.64927,0.13552,-0.02228,
5.09375,0.13513,0.33360,0.43730,-0.17632,0.97622,0.12070,,,0.74805,0.64928,0.13551,-0.02224,
5.10156,0.20404,0.15691,0.50700,-0.17584,0.97815,0.11336,,,0.74804,0.64930,0.13550,-0.02221,
5.10938,0.27295,0.08623,0.50700,-0.17632,0.97960,0.12314,,,0.74803,0.64931,0.13548,-0.02218,
5.11719,0.27295,-0.23180,0.71609,-0.17487,0.97767,0.12461,,,0.74802,0.64934,0.13544,-0.02216,
5.12500,0.37632,-0.05512,0.85549,-0.17390,0.97574,0.11678,,,0.74800,0.64936,0.13539,-0.02212,
5.13281,0.34186,-0.01978,0.78579,-0.16956,0.97236,0.12608,,,0.74799,0.64939,0.13536,-0.02209,
5.14063,0.41077,-0.19647,0.78579,-0.17101,0.97429,0.12314,,,0.74797,0.64941,0.13531,-0.02206,
5.14844,0.47969,-0.54984,0.89034,-0.16811,0.97043,0.12804,,,0.74796,0.64945,0.13524,-0.02204,
5.15625,0.51414,-0.51451,0.92519,-0.17052,0.97284,0.12217,,,0.74794,0.64948,0.13518,-0.02202,
5.16406,0.54860,-0.54984,0.82064,-0.17439,0.96995,0.11874,,,0.74792,0.64952,0.13511,-0.02201,
5.17188,0.58305,-0.65586,0.75094,-0.17922,0.98105,0.12168,,,0.74791,0.64955,0.13504,-0.02201,
5.17969,0.37632,-0.44383,0.68124,-0.17197,0.97718,0.10896,,,0.74789,0.64958,0.13499,-0.02199,
5.18750,0.51414,-0.86788,0.75094,-0.16472,0.97622,0.11042,,,0.74788,0.64961,0.13491,-0.02200,
5.19531,0.27295,-1.15058,0.64640,-0.16714,0.97477,0.10798,,,0.74788,0.64963,0.13482,-0.02202,
5.20313,0.37632,-1.32727,0.50700,-0.16666,0.97091,0.10896,,,0.74788,0.64965,0.13473,-0.02206,
5.21094,0.27295,-2.24605,0.54185,-0.15167,0.97091,0.09624,,,0.74789,0.64966,0.13459,-0.02213,
5.21875,-0.31280,-0.97389,0.78579,-0.19758,0.96512,0.08792,,,0.74791,0.64965,0.13451,-0.02213,
5.22656,0.37632,0.40427,0.26305,-0.20483,0.97912,0.12217,,,0.74789,0.64968,0.13452,-0.02210,
5.23438,0.72088,-5.35576,0.92519,-0.16521,0.97429,0.10113,,,0.74791,0.64971,0.13420,-0.02230,
5.24219,0.58305,-2.70544,0.50700,-0.17294,0.97574,0.09526,,,0.74791,0.64974,0.13404,-0.02240,
5.25000,0.58305,-3.62422,0.57670,-0.13863,0.97815,0.11874,,,0.74792,0.64977,0.13383,-0.02253,
5.25781,0.82424,-0.54984,0.47215,-0.17777,0.97139,0.09575,,,0.74788,0.64982,0.13378,-0.02254,
5.26563,0.61751,1.57041,0.15850,-0.19517,0.97863,0.14125,,,0.74784,0.64985,0.13385,-0.02247,
5.27344,0.51414,-2.74078,1.48278,-0.15651,0.99021,0.16326,,,0.74785,0.64989,0.13365,-0.02252,
5.28125,0.10067,-6.02718,2.07522,-0.20387,0.94340,0.08498,,,0.74790,0.64990,0.13325,-0.02268,
5.28906,0.75533,-7.54669,1.72673,-0.18067,0.95257,0.08156,,,0.74794,0.64995,0.13278,-0.02294,
5.29688,0.27295,-6.34521,2.91160,-0.19130,0.97091,0.10504,,,0.74799,0.64998,0.13233,-0.02307,
5.30469,-0.03715,-6.38055,3.39949,-0.17487,0.97622,0.16375,,,0.74805,0.64999,0.13186,-0.02318,
5.31250,0.13513,-9.10155,4.06163,-0.15264,0.96753,0.13929,,,0.74814,0.65002,0.13121,-0.02338,
5.32031,0.54860,-8.14743,4.20103,-0.18405,0.96753,0.14761,,,0.74819,0.65008,0.13061,-0.02353,
5.32813,1.20326,-11.64586,4.61922,-0.18647,0.96657,0.13733,,,0.74825,0.65016,0.12981,-0.02382,
5.33594,1.30663,-11.32782,4.58437,-0.19227,0.97284,0.15054,,,0.74830,0.65025,0.12902,-0.02410,
5.34375,1.65119,-14.82625,4.68892,-0.16231,0.95595,0.14272,,,0.74836,0.65035,0.12806,-0.02453,
5.35156,2.85714,-15.10895,4.47982,-0.16569,0.96850,0.13831,,,0.74837,0.65051,0.12708,-0.02500,
5.35938,2.96051,-15.42699,4.13133,-0.16617,0.96753,0.11776,,,0.74838,0.65067,0.12611,-0.02550,
5.36719,4.20092,-15.85104,3.39949,-0.17294,0.95113,0.11630,,,0.74834,0.65088,0.12514,-0.02606,
5.37500,4.54548,-15.42699,2.66766,-0.14104,0.96512,0.15886,,,0.74827,0.65111,0.12423,-0.02665,
5.38281,4.23538,-15.85104,2.35401,-0.13573,0.94823,0.15886,,,0.74822,0.65132,0.12331,-0.02727,
5.39063,5.16569,-13.87213,0.43730,-0.10673,0.96512,0.15495,,,0.74811,0.65156,0.12257,-0.02791,
5.39844,5.71698,-11.99924,-1.58396,-0.10335,0.96995,0.14369,,,0.74795,0.65181,0.12202,-0.02857,
5.40625,5.75144,-10.33837,-2.94309,-0.10480,0.97718,0.14320,,,0.74778,0.65206,0.12161,-0.02923,
5.41406,5.71698,-7.68804,-5.38254,-0.12220,0.98973,0.11287,,,0.74758,0.65229,0.12144,-0.02989,
5.42188,5.57916,-7.26399,-6.77652,-0.13186,0.98153,0.09526,,,0.74738,0.65251,0.12136,-0.03060,
5.42969,5.09677,-6.91062,-9.49477,-0.15554,0.97863,0.08303,,,0.74719,0.65267,0.12142,-0.03144,
5.43750,4.68330,-8.35946,-12.00392,-0.13814,0.97912,0.08841,,,0.74702,0.65279,0.12152,-0.03246,
5.44531,4.06310,-9.41959,-12.80545,-0.13911,0.98298,0.09036,,,0.74689,0.65287,0.12160,-0.03356,
5.45313,3.37398,-9.03087,-14.40852,-0.12268,0.99938,0.09624,,,0.74678,0.65290,0.12178,-0.03473,
5.46094,2.71932,-6.41589,-15.83735,-0.11785,1.00421,0.08498,,,0.74667,0.65290,0.12215,-0.03584,
5.46875,1.92683,-3.80091,-16.22069,-0.12026,1.00711,0.09428,,,0.74658,0.65285,0.12267,-0.03685,
5.47656,0.44523,1.14636,-16.18584,-0.14636,1.00469,0.08939,,,0.74651,0.65274,0.12345,-0.03763,
5.48438,-0.03715,4.36209,-15.55855,-0.18792,0.99794,0.09477,,,0.74643,0.65262,0.12436,-0.03823,
5.49219,-0.48508,4.82148,-14.86157,-0.20048,0.98346,0.09085,,,0.74638,0.65248,0.12527,-0.03876,
5.50000,-0.96746,4.64479,-13.15395,-0.21981,0.98587,0.10309,,,0.74634,0.65233,0.12609,-0.03922,
5.50781,-1.31202,2.66588,-10.74934,-0.22706,0.97284,0.09575,,,0.74635,0.65218,0.12671,-0.03963,
5.51563,-1.20865,2.17115,-9.49477,-0.23238,0.98008,0.10406,,,0.74636,0.65204,0.12725,-0.04001,
5.52344,-2.03559,0.86366,-6.60227,-0.26379,0.97863,0.10064,,,0.74642,0.65188,0.12759,-0.04029,
5.53125,-2.55243,-2.49341,-3.36128,-0.23914,0.98298,0.10749,,,0.74655,0.65171,0.12762,-0.04055,
5.53906,-2.75917,-3.09415,-1.61881,-0.25654,0.98684,0.10847,,,0.74669,0.65155,0.12754,-0.04075,
5.54688,-3.55165,-5.28509,1.51763,-0.28167,0.97574,0.09477,,,0.74690,0.65137,0.12721,-0.04087,
5.55469,-2.93145,-10.26769,5.14196,-0.25026,0.97381,0.10504,,,0.74714,0.65124,0.12647,-0.04104,
5.56250,-3.41383,-11.00978,6.81473,-0.24881,0.97815,0.12217,,,0.74740,0.65109,0.12562,-0.04115,
5.57031,-4.34414,-12.88268,10.47391,-0.23576,0.97284,0.12853,,,0.74773,0.65092,0.12451,-0.04115,
5.57813,-4.37859,-15.25030,12.77397,-0.20725,0.97960,0.12853,,,0.74809,0.65076,0.12318,-0.04114,
5.58594,-4.68870,-16.02773,14.20279,-0.19420,0.99408,0.12217,,,0.74847,0.65060,0.12174,-0.04109,
5.59375,-5.75683,-16.06306,16.43315,-0.20048,0.98732,0.11678,,,0.74891,0.65039,0.12021,-0.04092,
5.60156,-5.82574,-15.95705,17.26954,-0.19179,0.98828,0.11678,,,0.74934,0.65019,0.11864,-0.04069,
5.60938,-6.03248,-15.88637,19.08170,-0.16811,0.95981,0.12755,,,0.74979,0.64999,0.11700,-0.04037,
5.61719,-6.41149,-15.07361,20.51053,-0.17004,0.93616,0.14125,,,0.75025,0.64979,0.11534,-0.03994,
5.62500,-6.13585,-14.79091,21.17266,-0.14298,0.93279,0.13048,,,0.75070,0.64960,0.11366,-0.03947,
5.63281,-6.75605,-10.86843,21.03327,-0.12413,0.99166,0.14516,,,0.75113,0.64939,0.11219,-0.03882,
5.64063,-8.37548,-14.11949,23.33332,-0.19372,0.94533,0.13880,,,0.75167,0.64910,0.11046,-0.03819,
5.64844,-7.20398,-16.34576,23.29847,-0.18937,0.97863,0.13880,,,0.75217,0.64886,0.10861,-0.03766,
5.65625,-7.10061,-18.89007,24.20456,-0.14588,0.99697,0.10896,,,0.75269,0.64862,0.10659,-0.03720,
5.66406,-7.23843,-17.29988,24.72730,-0.12220,0.99166,0.11091,,,0.75320,0.64839,0.10462,-0.03665,
5.67188,-7.44517,-16.06306,25.04094,-0.12945,0.97574,0.10945,,,0.75370,0.64814,0.10271,-0.03602,
5.67969,-7.30735,-13.20072,25.80763,-0.14056,0.96416,0.15984,,,0.75418,0.64791,0.10091,-0.03522,
5.68750,-6.96279,-14.50821,26.99251,-0.13669,0.97043,0.17501,,,0.75465,0.64771,0.09899,-0.03443,
5.69531,-6.75605,-14.86158,27.72434,-0.13331,0.97284,0.17598,,,0.75511,0.64751,0.09701,-0.03361,
5.70313,-6.34258,-14.26084,29.22286,-0.12896,0.99311,0.19311,,,0.75555,0.64734,0.09500,-0.03269,
5.71094,-6.13585,-13.69544,30.93048,-0.13428,1.00373,0.18430,,,0.75598,0.64719,0.09295,-0.03167,
5.71875,-5.92911,-14.04882,32.11536,-0.14636,1.01097,0.17403,,,0.75639,0.64706,0.09082,-0.03059,
5.72656,-6.06693,-16.02773,34.79876,-0.16086,1.01097,0.13587,,,0.75683,0.64693,0.08847,-0.02947,
5.73438,-7.20398,-18.00663,38.17915,-0.16182,1.01724,0.10309,,,0.75733,0.64674,0.08587,-0.02825,
5.74219,-7.78973,-18.64271,40.37466,-0.17004,1.01338,0.09477,,,0.75786,0.64654,0.08314,-0.02694,
5.75000,-8.89232,-19.98554,45.18387,-0.15312,1.01627,0.05122,,,0.75844,0.64630,0.08013,-0.02544,
5.75781,-10.06382,-19.06676,51.77040,-0.15506,1.01338,0.04437,,,0.75907,0.64602,0.07688,-0.02354,
5.76563,-10.89076,-18.67805,55.25533,-0.13911,1.01676,0.04242,,,0.75973,0.64571,0.07350,-0.02145,
5.77344,-13.47495,-14.89692,63.72372,-0.11881,1.04137,0.03850,,,0.76049,0.64531,0.06994,-0.01874,
5.78125,-14.99101,-11.43383,68.28899,-0.11446,1.06067,0.04486,,,0.76128,0.64483,0.06636,-0.01563,
5.78906,-18.88452,-2.06936,77.97711,-0.10770,1.10507,0.03948,,,0.76219,0.64419,0.06285,-0.01159,
5.79688,-22.91586,7.96653,89.02435,-0.14781,1.13113,0.02578,,,0.76322,0.64338,0.05937,-0.00651,
5.80469,-25.12104,12.38373,94.87904,-0.19275,1.13258,0.02725,,,0.76429,0.64245,0.05586,-0.00093,
5.81250,-29.25574,17.50769,106.23993,-0.25799,1.14271,0.00915,,,0.76549,0.64131,0.05212,0.00548,
5.82031,-32.52905,6.48235,119.72663,-0.36092,1.08046,-0.03831,,,0.76682,0.64001,0.04721,0.01213,
5.82813,-31.77102,-3.51820,125.19798,-0.40442,1.05585,-0.04027,,,0.76808,0.63873,0.04154,0.01862,
5.83594,-30.25497,-30.58683,134.92095,-0.25799,1.09542,0.01159,,,0.76928,0.63754,0.03402,0.02444,
5.84375,-31.32310,-40.65805,143.31965,-0.23769,1.04330,-0.02853,,,0.77045,0.63626,0.02561,0.03026,
5.85156,-29.49694,-51.11799,144.88787,-0.23866,1.08866,-0.15818,,,0.77148,0.63504,0.01657,0.03570,
5.85938,-22.15783,-69.10485,140.98474,-0.30825,1.29473,-0.35193,,,0.77213,0.63416,0.00678,0.04015,
5.86719,-19.91820,-112.64081,138.92863,-0.24833,1.53023,-0.38275,,,0.77260,0.63344,-0.00521,0.04260,
5.87500,-23.26042,-110.55589,135.13005,-0.13669,1.62482,-0.24038,,,0.77312,0.63244,-0.01693,0.04493,
5.88281,-44.38188,-86.45562,128.92686,0.30597,1.88203,0.31445,,,0.77449,0.63018,-0.02718,0.04794,
5.89063,-57.54403,-37.93706,123.14187,0.65150,1.92354,0.20436,,,0.77645,0.62701,-0.03466,0.05271,
5.89844,-60.43832,-37.33632,129.34505,0.43403,1.76718,-0.04907,,,0.77844,0.62361,-0.04239,0.05781,
5.90625,-63.78054,-39.80995,133.56183,0.23783,1.63881,-0.25603,,,0.78047,0.61996,-0.05043,0.06302,
5.91406,-51.16969,-40.87008,136.90736,0.20207,1.18180,-0.47864,,,0.78186,0.61691,-0.05860,0.06840,
5.92188,-38.21427,-39.24455,127.49804,0.26054,1.12293,-0.58286,,,0.78268,0.61453,-0.06623,0.07339,
5.92969,-18.02313,-16.16908,107.00662,-0.08837,1.03075,-0.60830,,,0.78280,0.61315,-0.07167,0.07833,
5.93750,-7.82418,-0.37315,90.73197,-0.02893,1.05343,-0.52953,,,0.78263,0.61228,-0.07552,0.08312,
5.94531,19.53379,6.51768,72.92395,-0.01298,1.01097,-0.72915,,,0.78142,0.61290,-0.07810,0.08738,
5.95313,41.48219,16.58891,54.73259,-0.47642,0.84737,-0.76046,,,0.77944,0.61472,-0.07926,0.09121,
5.96094,50.99201,12.10103,46.50814,-0.50783,0.83337,-0.65282,,,0.77707,0.61709,-0.08024,0.09446,
5.96875,65.18784,-14.75557,36.88972,-0.33338,0.77498,-0.51681,,,0.77399,0.62043,-0.08216,0.09615,
5.97656,80.79636,-26.98239,24.76215,-0.16182,0.67412,-0.43608,,,0.77025,0.62473,-0.08410,0.09676,
5.98438,88.06655,-25.74557,17.13014,-0.16086,0.58967,-0.42629,,,0.76622,0.62941,-0.08559,0.09707,
5.99219,101.64217,-16.55779,-4.30221,-0.22706,0.51487,-0.36122,,,0.76177,0.63484,-0.08560,0.09672,
6.00000,108.05096,-7.29933,-26.84974,-0.25751,0.47867,-0.22374,,,0.75721,0.64064,-0.08410,0.09564,
6.00781,110.73852,-7.19332,-37.09545,-0.30100,0.46709,-0.15769,1022.077,26.6,0.75255,0.64660,-0.08213,0.09404,
6.01563,116.52711,-15.21496,-56.85504,-0.27974,0.46033,-0.10387,,,0.74766,0.65296,-0.07965,0.09110,
6.02344,120.21389,-19.27879,-75.95248,-0.29134,0.49846,-0.04614,,,0.74264,0.65959,-0.07650,0.08702,
6.03125,120.24834,-21.64641,-84.07238,-0.32951,0.51294,-0.02265,,,0.73758,0.66621,-0.07310,0.08241,
6.03906,121.21311,-28.39590,-98.95305,-0.32661,0.54479,0.03165,,,0.73245,0.67292,-0.06934,0.07675,
6.04688,121.86777,-34.65066,-112.75340,-0.31791,0.59401,0.09428,,,0.72723,0.67968,-0.06526,0.07010,
6.05469,121.55767,-37.51301,-118.92173,-0.32130,0.62104,0.12217,,,0.72195,0.68636,-0.06102,0.06300,
6.06250,121.28202,-45.18127,-129.09774,-0.30487,0.69632,0.18381,,,0.71659,0.69301,-0.05668,0.05503,
6.07031,118.11208,-52.88487,-137.98433,-0.28940,0.74603,0.23616,,,0.71126,0.69945,-0.05229,0.04624,
6.07813,116.18255,-56.70134,-141.95716,-0.28940,0.77112,0.25231,,,0.70591,0.70571,-0.04790,0.03706,
6.08594,114.28748,-69.45822,-151.54073,-0.21353,0.84110,0.25720,,,0.70050,0.71181,-0.04366,0.02680,
6.09375,110.94526,-73.27469,-162.79707,-0.07242,0.92989,0.24106,,,0.69512,0.71766,-0.03905,0.01580,
6.10156,108.42998,-69.21086,-168.61691,-0.03618,0.98201,0.26063,,,0.68974,0.72324,-0.03396,0.00471,
6.10938,101.81445,-59.95240,-179.38536,0.03100,1.05729,0.26112,,,0.68457,0.72839,-0.02790,-0.00645,
6.11719,98.88570,-53.87433,-184.19457,0.04743,1.09831,0.26552,,,0.67940,0.73325,-0.02131,-0.01753,
6.12500,92.85592,-43.62642,-193.04631,0.08899,1.16443,0.23665,,,0.67439,0.73769,-0.01379,-0.02852,
6.13281,84.82769,-32.67175,-198.65705,0.10832,1.23247,0.23959,,,0.66963,0.74164,-0.00546,-0.03921,
6.14063,80.89972,-28.04252,-200.08588,0.12765,1.24357,0.23372,,,0.66493,0.74525,0.00316,-0.04972,
6.14844,73.07824,-18.60737,-201.79349,0.20255,1.31355,0.20681,,,0.66046,0.74837,0.01231,-0.05983,
6.15625,66.01478,-8.07676,-200.74801,0.21705,1.32079,0.16326,,,0.65622,0.75106,0.02192,-0.06932,
6.16406,62.98266,-6.06251,-199.63283,0.21802,1.31451,0.13440,,,0.65199,0.75348,0.03157,-0.07865,
6.17188,60.46738,-5.92116,-195.24182,0.31998,1.32127,0.08303,,,0.64779,0.75564,0.04101,-0.08775,
6.17969,58.77904,-6.55724,-188.30679,0.42340,1.37291,0.06394,,,0.64359,0.75760,0.05006,-0.09656,
6.18750,58.46894,-5.56779,-183.84608,0.39537,1.41007,0.10504,,,0.63933,0.75943,0.05892,-0.10511,
6.19531,58.81350,-18.71339,-173.46097,0.49975,1.47232,0.06933,,,0.63507,0.76111,0.06666,-0.11386,
6.20313,58.02101,-26.31098,-160.14852,0.66261,1.47425,0.02529,,,0.63089,0.76263,0.07337,-0.12241,
6.21094,57.26298,-24.89747,-153.03925,0.73703,1.43371,0.01942,,,0.62672,0.76407,0.07977,-0.13056,
6.21875,56.71169,-16.91117,-137.18279,0.76361,1.38980,0.01698,,,0.62261,0.76556,0.08568,-0.13760,
6.22656,54.85107,-9.56094,-119.54902,0.73993,1.36663,0.02480,,,0.61866,0.76707,0.09099,-0.14349,
6.23438,53.64512,-8.04142,-110.45334,0.74525,1.36518,0.02480,,,0.61480,0.76854,0.09590,-0.14889,
6.24219,51.50885,-2.06936,-92.50592,0.80807,1.33189,0.03655,,,0.61116,0.77005,0.10013,-0.15321,
6.25000,47.85653,9.45071,-75.04640,0.82402,1.28073,0.07471,,,0.60779,0.77162,0.10396,-0.15616,
6.25781,44.85887,13.76190,-66.33406,0.82015,1.26143,0.07911,,,0.60462,0.77314,0.10754,-0.15850,
6.26563,37.82987,16.48290,-47.30631,0.76989,1.23151,0.08890,,,0.60199,0.77453,0.11030,-0.15985,
6.27344,30.76641,12.84312,-27.02399,0.74718,1.18180,0.10504,,,0.59997,0.77572,0.11192,-0.16051,
6.28125,28.28558,9.27402,-17.02223,0.71625,1.15140,0.10260,,,0.59822,0.77685,0.11288,-0.16093,
6.28906,22.08353,-1.00923,1.86612,0.72350,1.13692,0.10113,,,0.59708,0.77775,0.11250,-0.16107,
6.29688,18.19001,-6.13319,11.55424,0.72495,1.11279,0.09721,,,0.59629,0.77851,0.11143,-0.16106,
6.30469,11.98795,-13.66010,30.33804,0.68871,1.09976,0.11189,,,0.59609,0.77908,0.10913,-0.16064,
6.31250,6.13045,-23.90802,48.00667,0.65246,1.07660,0.10798,,,0.59647,0.77942,0.10554,-0.16000,
6.32031,3.85636,-30.02143,55.95232,0.67373,1.07756,0.10651,,,0.59708,0.77964,0.10130,-0.15935,
6.32813,0.47969,-34.86268,70.76329,0.64231,1.08239,0.07128,,,0.59806,0.77976,0.09611,-0.15832,
6.33594,-3.00036,-36.70024,81.53174,0.59157,1.09252,0.04486,,,0.59933,0.77976,0.09031,-0.15692,
6.34375,-4.61979,-35.74612,85.71367,0.55098,1.08818,0.02823,,,0.60070,0.77970,0.08434,-0.15528,
6.35156,-6.96279,-32.81310,92.99718,0.44756,1.07081,-0.00847,,,0.60223,0.77958,0.07812,-0.15317,
6.35938,-7.65190,-31.92966,98.64278,0.35671,1.07467,-0.01825,,,0.60383,0.77944,0.07164,-0.15077,
6.36719,-8.34102,-33.90857,101.36102,0.33690,1.08142,-0.02314,,,0.60546,0.77922,0.06494,-0.14836,
6.37500,-8.06537,-41.36481,106.37933,0.32578,1.07418,-0.05152,,,0.60713,0.77892,0.05766,-0.14612,
6.38281,-4.92989,-45.49931,109.48092,0.03824,1.05102,-0.36758,,,0.60864,0.77867,0.05001,-0.14398,
6.39063,-2.86254,-35.00403,105.57780,-0.42230,1.07274,-0.67728,,,0.60993,0.77854,0.04298,-0.14144,
6.39844,2.78823,-34.40329,82.82117,-1.24528,1.18180,-1.06576,,,0.61067,0.77856,0.03713,-0.13983,
6.40625,0.51414,46.76724,45.91570,-2.28090,1.14271,-0.54812,,,0.61095,0.77913,0.03664,-0.13544,
6.41406,-8.82340,53.05734,27.72434,-1.64348,1.23682,0.07862,,,0.61154,0.77932,0.03746,-0.13145,
6.42188,-3.10373,-16.09840,63.27068,-0.33724,1.59779,0.42893,,,0.61231,0.77920,0.03345,-0.12966,
6.42969,-12.68246,-61.47192,95.88968,-0.03328,1.81303,0.74499,,,0.61396,0.77831,0.02590,-0.12889,
6.43750,-20.88296,-94.26524,102.68530,0.19289,1.63978,0.58207,,,0.61611,0.77676,0.01669,-0.12955,
6.44531,-3.37937,-146.84764,114.32498,0.58529,1.55002,0.04340,,,0.61742,0.77538,0.00450,-0.13251,
6.45313,6.37164,-151.72423,120.56302,0.65246,1.56691,-0.18166,,,0.61816,0.77425,-0.00832,-0.13544,
6.46094,11.95350,-114.69039,128.82231,0.56644,1.51865,-0.45467,,,0.61861,0.77357,-0.02007,-0.13605,
6.46875,0.03176,-49.24510,129.51930,0.29050,1.18470,-0.30985,,,0.61972,0.77290,-0.02898,-0.13317,
6.47656,-9.20242,-23.97869,127.01015,0.19772,0.96416,-0.26337,,,0.62128,0.77201,-0.03660,-0.12908,
6.48438,-13.02702,28.56836,105.99599,0.29775,0.62152,-0.20123,,,0.62296,0.77143,-0.04085,-0.12312,
6.49219,2.92605,52.77464,91.01077,0.15374,0.52259,-0.13714,,,0.62370,0.77172,-0.04342,-0.11646,
6.50000,11.19547,39.77039,87.10764,0.07594,0.62490,-0.22032,,,0.62390,0.77224,-0.04640,-0.11063,
6.50781,19.05141,11.42961,76.13009,0.09817,0.86233,-0.24576,,,0.62350,0.77288,-0.05007,-0.10673,
6.51563,16.91514,1.78244,68.35869,0.19579,0.98587,-0.20466,,,0.62311,0.77337,-0.05372,-0.10367,
6.52344,15.02007,10.54617,65.74499,0.16872,1.01290,-0.15427,,,0.62281,0.77384,-0.05684,-0.10026,
6.53125,9.88614,17.50769,68.39354,-0.00428,0.98828,-0.16454,,,0.62282,0.77410,-0.05977,-0.09640,
6.53906,14.46877,8.81463,64.76920,0.09575,1.00807,-0.27854,,,0.62251,0.77450,-0.06291,-0.09312,
6.54688,12.09132,1.67643,72.33151,0.00925,1.01627,-0.32600,,,0.62233,0.77471,-0.06674,-0.08991,
6.55469,8.88692,10.68752,64.80405,0.10687,1.21510,-0.25163,,,0.62230,0.77485,-0.06976,-0.08655,
6.56250,3.47735,28.03830,66.58137,0.12185,1.09638,-0.17384,,,0.62263,0.77483,-0.07211,-0.08223,
6.57031,5.61361,36.23663,61.84186,0.17887,1.08287,-0.12002,,,0.62286,0.77496,-0.07387,-0.07766,
6.57813,5.92371,39.48769,64.24646,0.15616,0.99021,-0.19879,,,0.62307,0.77509,-0.07562,-0.07281,
6.58594,6.47501,41.74930,55.04623,0.05226,0.99456,-0.27169,,,0.62321,0.77528,-0.07678,-0.06823,
6.59375,5.33796,40.33580,53.37347,0.02858,0.97525,-0.27022,,,0.62338,0.77540,-0.07791,-0.06381,
6.60156,3.92527,34.75245,52.67648,-0.00863,0.98346,-0.17433,,,0.62358,0.77543,-0.07924,-0.05971,
6.60938,6.33719,22.66698,48.49456,0.06047,1.02014,-0.14595,,,0.62356,0.77553,-0.08086,-0.05641,
6.61719,6.30273,17.96708,49.12184,0.04066,0.94533,-0.18460,,,0.62352,0.77559,-0.08272,-0.05334,
6.62500,8.26672,9.41537,45.21872,0.12185,0.97718,-0.22619,,,0.62329,0.77572,-0.08474,-0.05087,
6.63281,9.09366,6.83572,44.24294,0.13924,0.98684,-0.24527,,,0.62300,0.77587,-0.08682,-0.04858,
6.64063,8.12889,5.49289,43.16261,0.22188,0.97912,-0.29419,,,0.62274,0.77597,-0.08890,-0.04641,
6.64844,5.20014,12.20704,41.73378,0.14408,0.96271,-0.30985,,,0.62267,0.77598,-0.09061,-0.04396,
6.65625,5.92371,15.28142,36.85487,0.13345,0.98249,-0.27805,,,0.62256,0.77604,-0.09192,-0.04155,
6.66406,5.06232,15.35209,34.17147,0.17887,0.95016,-0.17628,,,0.62248,0.77608,-0.09310,-0.03925,
6.67188,4.13201,12.03035,31.10473,0.20352,1.05392,-0.20808,,,0.62242,0.77609,-0.09424,-0.03727,
6.67969,3.89082,13.37318,28.28193,0.20497,1.06695,-0.23499,,,0.62237,0.77611,-0.09518,-0.03533,
6.68750,2.68486,12.41907,25.80763,0.12813,0.95595,-0.22472,,,0.62237,0.77608,-0.09603,-0.03356,
6.69531,3.06388,12.98447,21.38176,0.22816,0.95885,-0.24576,,,0.62234,0.77610,-0.09661,-0.03195,
6.70313,3.06388,16.65958,18.90746,0.24169,0.94485,-0.23401,,,0.62233,0.77614,-0.09691,-0.03024,
6.71094,1.16880,9.38003,17.47863,0.16051,0.94968,-0.24429,,,0.62237,0.77609,-0.09744,-0.02900,
6.71875,1.75455,5.63424,14.37704,0.16389,0.92169,-0.25163,,,0.62234,0.77608,-0.09797,-0.02808,
6.72656,1.72010,4.18540,13.05276,0.15519,0.92989,-0.24086,,,0.62230,0.77608,-0.09849,-0.02729,
6.73438,1.37554,1.53508,11.24060,0.24169,0.93761,-0.23793,,,0.62226,0.77606,-0.09902,-0.02672,
6.74219,0.99652,3.08993,9.91632,0.18032,0.91590,-0.24527,,,0.62225,0.77604,-0.09941,-0.02613,
6.75000,1.68564,5.06884,8.90569,0.10348,0.91445,-0.21347,,,0.62221,0.77606,-0.09967,-0.02547,
6.75781,2.61595,0.01556,7.61627,0.07690,0.94823,-0.21444,,,0.62208,0.77612,-0.10008,-0.02513,
6.76563,3.64963,-6.69859,7.51172,0.16969,0.92989,-0.23842,,,0.62186,0.77621,-0.10077,-0.02514,
6.77344,5.44133,-5.39110,7.02383,0.22381,0.99987,-0.20759,,,0.62154,0.77639,-0.10138,-0.02509,
6.78125,3.47735,3.01926,6.32684,0.10783,0.93810,-0.21004,,,0.62139,0.77650,-0.10159,-0.02464,
6.78906,5.64807,1.99447,5.66470,0.11508,0.95692,-0.23695,,,0.62111,0.77670,-0.10182,-0.02426,
6.79688,5.92371,0.05090,5.97835,0.22913,0.96512,-0.24135,,,0.62081,0.77691,-0.10214,-0.02396,
6.80469,6.33719,1.46440,7.99961,0.19917,0.95740,-0.21542,,,0.62050,0.77712,-0.10251,-0.02350,
6.81250,6.95739,2.63054,8.52235,0.14263,0.93713,-0.22227,,,0.62016,0.77736,-0.10286,-0.02295,
6.82031,7.68097,3.72601,8.80114,0.16147,0.91300,-0.24184,,,0.61979,0.77763,-0.10319,-0.02233,
6.82813,8.57682,8.21389,9.39358,0.14311,0.97236,-0.24576,,,0.61941,0.77794,-0.10335,-0.02143,
6.83594,7.99107,5.59890,9.95117,0.14359,0.98684,-0.24820,,,0.61904,0.77821,-0.10365,-0.02066,
6.84375,7.57760,6.02296,12.63457,0.06531,0.95643,-0.23891,,,0.61870,0.77845,-0.10408,-0.01975,
6.85156,8.47345,2.80723,13.47096,0.11605,0.95547,-0.29224,,,0.61829,0.77872,-0.10469,-0.01897,
6.85938,8.40454,2.77189,14.23764,0.16389,0.97718,-0.26435,,,0.61788,0.77897,-0.10534,-0.01817,
6.86719,7.54314,3.86736,16.78165,0.21270,0.98105,-0.25359,,,0.61753,0.77918,-0.10608,-0.01720,
6.87500,6.26827,11.21759,17.44378,0.10348,0.95209,-0.23989,,,0.61729,0.77933,-0.10654,-0.01582,
6.88281,6.47501,10.89955,17.79228,0.15809,0.95643,-0.26875,,,0.61705,0.77948,-0.10703,-0.01445,
6.89063,6.33719,12.98447,19.39535,0.15616,1.00180,-0.23499,,,0.61682,0.77962,-0.10752,-0.01290,
6.89844,6.33719,13.37318,22.18330,0.14311,1.01531,-0.25016,,,0.61660,0.77973,-0.10814,-0.01121,
6.90625,5.57916,15.74080,23.08938,0.08174,1.00324,-0.23401,,,0.61644,0.77981,-0.10871,-0.00936,
6.91406,5.85480,12.73711,25.00609,0.17501,0.99166,-0.27364,,,0.61624,0.77987,-0.10951,-0.00759,
6.92188,4.16646,12.84312,27.13190,0.18902,0.97381,-0.25799,,,0.61612,0.77985,-0.11042,-0.00573,
6.92969,4.75221,8.99132,29.15317,0.23590,0.98056,-0.28637,,,0.61595,0.77983,-0.11159,-0.00399,
6.93750,2.51258,13.30251,31.10473,0.15568,0.94292,-0.27952,,,0.61592,0.77970,-0.11269,-0.00196,
6.94531,2.09911,12.52508,31.73202,0.16679,0.98008,-0.26582,,,0.61591,0.77955,-0.11385,0.00005,
6.95313,1.06544,11.39428,32.42901,0.19917,0.98973,-0.26484,,,0.61594,0.77934,-0.11509,0.00203,
6.96094,-0.69182,12.03035,33.96238,0.23155,0.99938,-0.28294,,,0.61607,0.77904,-0.11639,0.00409,
6.96875,-1.65658,13.58521,34.51997,0.22043,1.00662,-0.26777,,,0.61625,0.77869,-0.11765,0.00625,
6.97656,-4.41305,16.34154,34.86846,0.15229,0.97718,-0.28930,,,0.61660,0.77821,-0.11882,0.00854,
6.98438,-5.75683,13.65588,36.22758,0.22671,1.01724,-0.28979,,,0.61699,0.77767,-0.12017,0.01075,
6.99219,-7.20398,12.56042,37.72611,0.33158,1.00517,-0.32355,,,0.61744,0.77704,-0.12165,0.01294,
7.00000,-8.61667,20.47605,42.08228,0.16099,0.98828,-0.28832,,,0.61803,0.77631,-0.12302,0.01572,
7.00781,-8.09983,18.95653,46.33390,0.05081,0.96609,-0.26386,1022.053,26.6,0.61856,0.77556,-0.12468,0.01861,
7.01563,-7.78973,12.48974,50.34157,0.06966,0.98877,-0.29126,,,0.61901,0.77478,-0.12683,0.02133,
7.02344,-7.85864,7.71916,57.79933,0.10155,1.03992,-0.18558,,,0.61941,0.77393,-0.12956,0.02411,
7.03125,-8.47885,2.55987,66.47682,0.06289,1.14175,-0.12882,,,0.61976,0.77297,-0.13298,0.02697,
7.03906,-10.44283,1.00501,70.48450,0.02375,1.13982,-0.12442,,,0.62019,0.77188,-0.13667,0.02991,
7.04688,-11.68324,-9.94965,81.49689,0.05033,1.12389,-0.19928,,,0.62053,0.77063,-0.14140,0.03272,
7.05469,-11.26977,-15.85104,84.00605,0.33013,1.16781,-0.29273,,,0.62077,0.76937,-0.14650,0.03533,
7.06250,-12.57910,-13.09470,89.44255,0.28132,1.17698,-0.20857,,,0.62107,0.76796,-0.15178,0.03830,
7.07031,-13.99179,-9.59628,90.83652,0.24991,1.17456,-0.30691,,,0.62146,0.76644,-0.15697,0.04150,
7.07813,-16.71380,-4.61367,93.69417,0.25523,1.17408,-0.30055,,,0.62200,0.76472,-0.16211,0.04505,
7.08594,-17.74748,-1.82200,95.71543,0.30742,1.15912,-0.30300,,,0.62260,0.76290,-0.16722,0.04882,
7.09375,-18.19541,5.21019,97.84124,0.25426,1.21607,-0.28588,,,0.62327,0.76098,-0.17215,0.05303,
7.10156,-20.71068,8.07254,98.92157,0.23686,1.22620,-0.31719,,,0.62406,0.75889,-0.17701,0.05741,
7.10938,-21.53763,7.78984,101.32618,0.20738,1.24502,-0.33138,,,0.62486,0.75670,-0.18200,0.06186,
7.11719,-23.67389,5.17485,105.43840,0.36541,1.30824,-0.32551,,,0.62568,0.75434,-0.18731,0.06632,
7.12500,-25.46560,9.83942,110.94460,0.27842,1.38304,-0.30643,,,0.62660,0.75177,-0.19271,0.07123,
7.13281,-26.53373,14.92804,112.40827,0.22188,1.41344,-0.29615,,,0.62759,0.74907,-0.19795,0.07645,
7.14063,-29.08347,21.85421,116.59019,0.16437,1.46653,-0.29860,,,0.62874,0.74611,-0.20311,0.08216,
7.14844,-30.08269,22.03090,119.37814,0.11798,1.49645,-0.27120,,,0.62988,0.74302,-0.20840,0.08797,
7.15625,-31.35755,21.88955,126.20861,0.18370,1.54422,-0.29419,,,0.63100,0.73972,-0.21403,0.09405,
7.16406,-31.11636,33.09158,131.64511,0.12233,1.62819,-0.30545,,,0.63218,0.73621,-0.21943,0.10092,
7.17188,-31.01299,39.98242,133.63153,0.07111,1.70493,-0.30104,,,0.63339,0.73257,-0.22462,0.10821,
7.17969,-34.28630,50.93709,138.54528,0.06966,1.84439,-0.27169,,,0.63482,0.72855,-0.22958,0.11621,
7.18750,-37.52516,61.92709,144.53937,-0.01443,1.99593,-0.26973,,,0.63647,0.72413,-0.23435,0.12494,
7.19531,-40.28163,72.24568,145.13181,-0.05599,2.06494,-0.23695,,,0.63834,0.71941,-0.23871,0.13415,
7.20313,-46.96607,83.94243,148.09401,-0.09223,2.14408,-0.24674,,,0.64061,0.71413,-0.24273,0.14393,
7.21094,-53.16813,94.33170,152.65927,-0.04294,2.05673,-0.28343,,,0.64321,0.70830,-0.24654,0.15429,
7.21875,-54.06398,96.09858,156.98059,-0.01781,1.95828,-0.32600,,,0.64573,0.70223,-0.25045,0.16489,
7.22656,-45.55338,104.36758,163.00953,-0.00283,1.75125,-0.28637,,,0.64780,0.69620,-0.25414,0.17626,
7.23438,-40.07489,108.32540,168.30663,-0.18744,1.59297,-0.27903,,,0.64950,0.69015,-0.25780,0.18812,
7.24219,-35.69900,107.86601,168.68997,-0.28409,1.53216,-0.16160,,,0.65085,0.68416,-0.26139,0.20001,
7.25000,-34.14848,64.68342,169.45666,-0.53586,1.52540,-0.21787,,,0.65123,0.67869,-0.26686,0.20992,
7.25781,-32.97698,14.82203,160.88372,-0.18405,1.23344,-0.36073,,,0.65068,0.67405,-0.27410,0.21713,
7.26563,-25.77570,22.77299,149.55768,0.36203,0.99890,-0.40721,,,0.65004,0.66974,-0.28033,0.22431,
7.27344,-20.36613,17.26032,147.53642,0.06192,1.18035,-0.29566,,,0.64901,0.66572,-0.28659,0.23124,
7.28125,-33.28708,-11.36316,151.19560,-0.06759,1.03172,-0.21200,,,0.64788,0.66143,-0.29446,0.23674,
7.28906,-39.73033,-17.19387,151.09105,-0.15747,0.95450,-0.21689,,,0.64685,0.65689,-0.30266,0.24183,
7.29688,-35.90573,4.68013,129.41475,0.13973,0.71514,-0.12980,,,0.64640,0.65253,-0.30882,0.24699,
7.30469,-14.23298,-1.53930,119.72663,0.29195,0.62876,-0.12589,,,0.64496,0.64939,-0.31445,0.25189,
7.31250,-9.06460,-16.20441,100.24585,0.34704,0.57616,-0.41847,,,0.64328,0.64710,-0.31974,0.25538,
7.32031,-15.78349,8.03720,71.11179,-0.03134,0.75085,-0.21836,,,0.64290,0.64472,-0.32280,0.25850,
7.32813,-22.39902,9.55672,53.75681,-0.08209,0.64034,-0.26484,,,0.64314,0.64238,-0.32513,0.26078,
7.33594,-18.40214,21.43016,25.11064,-0.19034,0.48688,-0.20906,,,0.64398,0.64063,-0.32562,0.26241,
7.34375,-21.88218,43.62220,-0.57333,-0.20290,0.41738,-0.15671,,,0.64591,0.63890,-0.32407,0.26380,
7.35156,-20.15939,58.71136,-13.04940,-0.21788,0.39663,-0.10143,,,0.64831,0.63724,-0.32127,0.26533,
7.35938,-19.50473,65.99092,-31.41501,-0.32855,0.33872,-0.05935,,,0.65116,0.63587,-0.31733,0.26638,
7.36719,-16.19696,58.18130,-48.70029,-0.37059,0.26199,-0.05299,,,0.65400,0.63514,-0.31293,0.26638,
7.37500,-11.64879,53.05734,-57.69142,-0.35174,0.21711,-0.06180,,,0.65667,0.63488,-0.30827,0.26585,
7.38281,2.06466,43.26882,-76.57977,-0.32130,0.22097,-0.06424,,,0.65887,0.63579,-0.30297,0.26433,
7.39063,10.16179,26.76615,-95.60752,-0.30438,0.27116,-0.06131,,,0.66069,0.63772,-0.29744,0.26140,
7.39844,11.29883,14.78669,-104.70320,-0.28795,0.30398,-0.06277,,,0.66235,0.64007,-0.29201,0.25755,
7.40625,13.26282,-3.58888,-123.10366,-0.24736,0.32666,-0.06767,,,0.66384,0.64316,-0.28655,0.25209,
7.41406,15.81255,-16.80515,-140.80713,-0.23673,0.38167,-0.02706,,,0.66520,0.64689,-0.28085,0.24527,
7.42188,16.22602,-24.19072,-149.69371,-0.21063,0.40822,-0.00993,,,0.66649,0.65086,-0.27506,0.23771,
7.42969,16.94960,-37.83104,-167.08354,-0.17874,0.45406,-0.01336,,,0.66769,0.65533,-0.26907,0.22874,
7.43750,17.12188,-49.49246,-184.09002,-0.16569,0.49074,-0.03733,,,0.66884,0.66021,-0.26281,0.21844,
7.44531,17.84545,-53.45028,-192.94176,-0.15796,0.51728,-0.05739,,,0.66989,0.66521,-0.25627,0.20754,
7.45313,17.67317,-63.69819,-210.01794,-0.15651,0.54189,-0.09017,,,0.67087,0.67052,-0.24937,0.19534,
7.46094,20.53301,-66.45452,-225.97894,-0.11011,0.56071,-0.16894,,,0.67172,0.67610,-0.24177,0.18229,
7.46875,23.56513,-66.94925,-234.48219,-0.09852,0.59932,-0.18069,,,0.67235,0.68178,-0.23370,0.16883,
7.47656,25.01228,-67.37330,-248.10828,-0.09658,0.68619,-0.18215,,,0.67287,0.68755,-0.22494,0.15470,
7.48438,24.97782,-68.53945,-253.75388,-0.09997,0.72769,-0.20564,,,0.67321,0.69320,-0.21589,0.14020,
7.49219,28.42341,-73.52205,-264.76627,-0.07145,0.82324,-0.25652,,,0.67320,0.69898,-0.20644,0.12497,
7.50000,28.56123,-73.13334,-276.26656,-0.02555,0.94533,-0.28392,,,0.67303,0.70467,-0.19635,0.10918,
7.50781,27.01072,-71.11909,-281.28487,0.00587,0.97960,-0.29077,,,0.67274,0.71006,-0.18586,0.09320,
7.51563,26.08041,-62.85009,-291.25178,0.06482,1.07756,-0.31279,,,0.67239,0.71520,-0.17444,0.07711,
7.52344,26.18378,-48.22031,-300.62626,0.07980,1.20207,-0.33089,,,0.67198,0.72008,-0.16181,0.06128,
7.53125,25.73585,-40.44603,-305.33092,0.07787,1.24599,-0.34361,,,0.67139,0.72463,-0.14854,0.04557,
7.53906,26.63170,-26.16963,-314.18266,0.06482,1.31693,-0.36269,,,0.67063,0.72895,-0.13410,0.03016,
7.54688,28.90579,-14.68490,-322.58135,0.11557,1.39076,-0.41259,,,0.66956,0.73307,-0.11865,0.01494,
7.55469,30.07729,-3.23550,-327.25116,0.09237,1.50658,-0.33529,,,0.66819,0.73691,-0.10238,0.00009,
7.56250,30.04284,9.59206,-330.03911,0.04694,1.60841,-0.34654,,,0.66658,0.74039,-0.08534,-0.01425,
7.57031,39.65603,12.38373,-330.45730,0.13151,1.67356,-0.35339,,,0.66416,0.74394,-0.06812,-0.02841,
7.57813,45.61690,11.18225,-329.72547,0.15761,1.71699,-0.33040,,,0.66109,0.74737,-0.05097,-0.04255,
7.58594,56.67723,-2.06936,-324.95111,0.37121,1.73485,-0.39792,,,0.65708,0.75085,-0.03466,-0.05709,
7.59375,69.39146,-1.78666,-319.09642,0.55871,1.94284,-0.43363,,,0.65212,0.75452,-0.01868,-0.07129,
7.60156,68.94353,3.01926,-317.91154,0.62298,2.08086,-0.41553,,,0.64688,0.75782,-0.00253,-0.08515,
7.60938,60.05391,13.23183,-306.13246,0.73655,1.98290,-0.42776,,,0.64185,0.76043,0.01352,-0.09793,
7.61719,64.39535,23.90380,-290.51995,0.76796,1.88927,-0.40183,,,0.63642,0.76298,0.02918,-0.10944,
7.62500,66.35934,26.62480,-281.52881,0.75733,1.84343,-0.39449,,,0.63069,0.76535,0.04447,-0.12037,
7.63281,68.77125,23.47975,-260.02676,0.74911,1.74353,-0.35291,,,0.62479,0.76758,0.05847,-0.13050,
7.64063,73.14715,14.61000,-234.86553,0.82933,1.73002,-0.27707,,,0.61873,0.76978,0.07072,-0.14001,
7.64844,72.90596,9.34469,-221.90157,0.87573,1.75222,-0.21885,,,0.61267,0.77178,0.08205,-0.14920,
7.65625,66.22152,1.07569,-198.37826,1.03858,1.72809,-0.15573,,,0.60710,0.77337,0.09184,-0.15778,
7.66406,61.67334,5.49289,-186.98252,1.03230,1.70686,0.03263,,,0.60175,0.77474,0.10125,-0.16559,
7.67188,52.33579,0.08623,-160.53186,1.02505,1.56015,0.02578,,,0.59714,0.77573,0.10912,-0.17251,
7.67969,40.99981,-7.93541,-133.90696,1.09947,1.53795,0.05465,,,0.59343,0.77627,0.11539,-0.17867,
7.68750,37.00292,-13.41274,-119.13083,1.16181,1.49548,0.01991,,,0.59011,0.77664,0.12069,-0.18448,
7.69531,28.21667,-21.89377,-83.68904,1.06565,1.42503,0.01698,,,0.58774,0.77680,0.12387,-0.18923,
7.70313,20.53301,-30.76352,-53.37010,1.14732,1.34106,-0.01140,,,0.58622,0.77677,0.12519,-0.19316,
7.71094,18.74130,-32.31837,-37.68789,1.15843,1.34588,-0.00651,,,0.58501,0.77676,0.12564,-0.19652,
7.71875,14.39986,-35.21606,-8.27504,1.22174,1.24743,-0.05690,,,0.58444,0.77679,0.12447,-0.19883,
7.72656,11.26438,-36.84159,18.24532,1.15505,1.20448,-0.06865,,,0.58440,0.77689,0.12188,-0.20014,
7.73438,9.30039,-39.77461,31.13958,1.12944,1.19290,-0.09409,,,0.58466,0.77698,0.11851,-0.20108,
7.74219,5.64807,-48.04362,54.41895,1.06178,1.19387,-0.15671,,,0.58549,0.77698,0.11363,-0.20149,
7.75000,6.13045,-47.16018,72.29666,0.86413,1.22427,-0.29664,,,0.58652,0.77712,0.10782,-0.20114,
7.75781,5.64807,-45.21661,78.70895,0.88926,1.22523,-0.21983,,,0.58762,0.77729,0.10176,-0.20041,
7.76563,1.13435,-43.94445,96.30787,0.81580,1.24357,-0.10534,,,0.58917,0.77738,0.09487,-0.19888,
7.77344,0.44523,-56.55999,116.34625,0.76071,1.16346,-0.27169,,,0.59107,0.77736,0.08642,-0.19719,
7.78125,-0.86409,-42.99034,122.72368,0.27117,1.14126,-0.24429,,,0.59299,0.77744,0.07819,-0.19451,
7.78906,-17.19618,2.45386,103.80048,-0.33338,1.15236,0.01698,,,0.59526,0.77731,0.07301,-0.19009,
7.79688,-18.36768,6.05829,94.39115,-0.71950,1.13065,0.19164,,,0.59741,0.77709,0.06849,-0.18584,
7.80469,-16.64489,-0.19647,92.68354,-0.73255,1.13016,0.25378,,,0.59946,0.77683,0.06378,-0.18200,
7.81250,-2.44907,-47.54889,97.94579,-0.39669,1.18132,0.23519,,,0.60100,0.77654,0.05668,-0.18050,
7.82031,2.03020,-72.28523,102.61560,-0.02265,1.30727,0.21561,,,0.60241,0.77610,0.04826,-0.18012,
7.82813,-3.72393,-94.33592,107.32026,0.12378,1.42454,0.07079,,,0.60421,0.77510,0.03875,-0.18068,
7.83594,-3.48274,-95.29003,107.66876,0.37991,1.34733,-0.23157,,,0.60595,0.77403,0.02917,-0.18126,
7.84375,10.02397,-84.01733,108.57484,0.44708,1.33864,-0.33578,,,0.60690,0.77359,0.01984,-0.18121,
7.85156,32.66148,-62.46137,112.68706,0.56886,1.58621,-0.45956,,,0.60663,0.77429,0.01090,-0.17987,
7.85938,24.90891,-33.94390,119.23874,0.50459,1.73099,-0.51094,,,0.60678,0.77496,0.00289,-0.17674,
7.86719,11.05764,-19.24345,122.09639,0.35864,1.68997,-0.45222,,,0.60765,0.77519,-0.00449,-0.17270,
7.87500,-10.47729,11.53563,125.26768,-0.10722,1.24792,-0.24038,,,0.60966,0.77482,-0.01051,-0.16689,
7.88281,-7.54854,28.60370,121.67820,-0.01733,0.87536,0.00817,,,0.61144,0.77472,-0.01566,-0.16032,
7.89063,-2.20787,28.63904,121.05091,0.17694,0.76485,0.03508,,,0.61289,0.77478,-0.02084,-0.15376,
7.89844,6.23382,24.89325,121.39940,0.31128,0.90045,-0.22521,,,0.61385,0.77510,-0.02628,-0.14736,
7.90625,-7.47962,35.03515,112.23402,-0.02023,0.94533,-0.45712,,,0.61542,0.77492,-0.03067,-0.14082,
7.91406,-10.40837,37.72081,105.15960,-0.02989,0.91011,-0.44782,,,0.61703,0.77460,-0.03454,-0.13443,
7.92188,-10.47729,47.96872,95.68058,0.22961,0.94726,-0.28049,,,0.61856,0.77435,-0.03748,-0.12789,
7.92969,-13.37158,66.02625,88.15312,0.13780,0.94196,-0.06816,,,0.62019,0.77412,-0.03923,-0.12071,
7.93750,-9.89154,70.83217,81.84539,-0.01588,1.00228,0.00328,,,0.62156,0.77404,-0.04048,-0.11354,
7.94531,-2.89699,58.00461,69.16022,-0.08933,1.08577,0.03997,,,0.62239,0.77416,-0.04165,-0.10755,
7.95313,6.88848,24.71656,67.69655,-0.05647,1.08625,-0.07109,,,0.62259,0.77443,-0.04422,-0.10335,
7.96094,10.67863,18.03775,65.04800,-0.03666,1.07274,-0.13616,,,0.62253,0.77481,-0.04696,-0.09961,
7.96875,10.74754,17.50769,60.69183,0.08560,1.02351,-0.19683,,,0.62243,0.77518,-0.04950,-0.09607,
7.97656,10.29961,18.21444,57.83418,0.05854,1.01338,-0.19243,,,0.62232,0.77553,-0.05185,-0.09262,
7.98438,10.81645,18.10843,55.60382,0.08512,0.99456,-0.18851,,,0.62216,0.77590,-0.05409,-0.08926,
7.99219,11.43666,16.90695,53.26892,0.06966,1.01965,-0.18949,,,0.62193,0.77629,-0.05626,-0.08606,
8.00000,10.64417,19.16855,50.79461,-0.01008,1.00469,-0.20515,,,0.62174,0.77665,-0.05820,-0.08285,
8.00781,11.78122,15.38743,47.76272,0.01360,0.96367,-0.23940,1022.064,26.7,0.62144,0.77704,-0.06014,-0.07997,
8.01563,11.33329,10.68752,45.53236,0.18419,1.01820,-0.27218,,,0.62113,0.77739,-0.06216,-0.07742,
8.02344,10.43744,13.65588,43.75504,0.18467,0.99118,-0.30006,,,0.62086,0.77772,-0.06396,-0.07480,
8.03125,9.23148,20.61740,39.67767,0.08560,0.90480,-0.29322,,,0.62066,0.77804,-0.06524,-0.07199,
8.03906,9.54158,22.70232,35.49575,0.07352,0.93086,-0.26631,,,0.62043,0.77839,-0.06621,-0.06924,
8.04688,8.64573,21.96023,33.40479,0.10445,0.93182,-0.26190,,,0.62022,0.77871,-0.06709,-0.06662,
8.05469,8.71464,20.54672,31.27898,0.15713,0.93423,-0.23646,,,0.61999,0.77902,-0.06793,-0.06416,
8.06250,7.71542,23.58576,28.24708,0.03728,0.92893,-0.21249,,,0.61982,0.77932,-0.06846,-0.06168,
8.07031,8.12889,21.57151,26.67886,0.04163,0.92314,-0.23499,,,0.61959,0.77963,-0.06900,-0.05937,
8.07813,9.47267,15.56412,25.21519,0.15374,0.96802,-0.24233,,,0.61926,0.77997,-0.06973,-0.05743,
8.08594,7.50869,16.34154,24.13486,0.09865,0.95499,-0.21053,,,0.61904,0.78023,-0.07035,-0.05551,
8.09375,8.05998,16.37688,23.19393,0.06289,0.92265,-0.23353,,,0.61877,0.78052,-0.07092,-0.05362,
8.10156,9.50713,13.79724,21.55601,0.05806,0.96464,-0.22619,,,0.61841,0.78087,-0.07152,-0.05193,
8.10938,8.19780,10.97022,20.19688,0.15713,0.96174,-0.24331,,,0.61810,0.78115,-0.07216,-0.05045,
8.11719,8.88692,11.74765,20.58023,0.13538,0.96222,-0.22521,,,0.61775,0.78147,-0.07280,-0.04891,
8.12500,7.85324,16.05884,19.36050,0.06966,0.94051,-0.20270,,,0.61748,0.78175,-0.07318,-0.04720,
8.13281,9.30039,15.10473,19.29080,0.07739,0.94196,-0.23793,,,0.61712,0.78210,-0.07360,-0.04554,
8.14063,8.92138,14.25662,19.53474,0.17211,0.97188,-0.22668,,,0.61677,0.78242,-0.07407,-0.04391,
8.14844,7.30195,18.17910,21.38176,0.12233,0.97477,-0.21640,,,0.61654,0.78267,-0.07447,-0.04200,
8.15625,7.54314,20.54672,21.31206,0.04839,0.95354,-0.22276,,,0.61630,0.78293,-0.07476,-0.03997,
8.16406,7.37086,16.65958,22.21814,0.09624,0.96609,-0.26435,,,0.61605,0.78317,-0.07527,-0.03811,
8.17188,5.64807,17.11897,22.00905,0.09575,0.97139,-0.24674,,,0.61589,0.78334,-0.07574,-0.03624,
8.17969,5.44133,15.06939,22.56664,0.13924,0.97718,-0.25359,,,0.61574,0.78349,-0.07633,-0.03446,
8.18750,3.33952,17.75505,23.50757,0.07497,0.97863,-0.26680,,,0.61570,0.78355,-0.07685,-0.03251,
8.19531,1.54782,18.74450,23.33332,0.07401,0.99118,-0.27805,,,0.61577,0.78353,-0.07731,-0.03052,
8.20313,1.23771,16.80093,23.99546,0.15568,1.00131,-0.28196,,,0.61584,0.78349,-0.07789,-0.02861,
8.21094,-1.34648,18.35579,26.08642,0.16341,1.00662,-0.28196,,,0.61606,0.78333,-0.07851,-0.02654,
8.21875,-1.82886,21.07679,26.67886,0.06289,0.93327,-0.30545,,,0.61632,0.78314,-0.07904,-0.02430,
8.22656,-1.44984,20.19335,26.74856,0.07256,0.94630,-0.28979,,,0.61654,0.78297,-0.07962,-0.02211,
8.23438,-2.27679,16.48290,27.34100,0.16244,0.95402,-0.27903,,,0.61680,0.78275,-0.08039,-0.02009,
8.24219,-1.38093,16.30621,28.42133,0.17211,0.97960,-0.22080,,,0.61700,0.78256,-0.08121,-0.01803,
8.25000,-1.07083,16.76560,28.66527,0.17452,0.98732,-0.20026,,,0.61718,0.78237,-0.08204,-0.01594,
8.25781,-0.24389,20.22868,28.52588,0.11653,0.94292,-0.16454,,,0.61734,0.78222,-0.08271,-0.01366,
8.26563,2.27139,15.63479,29.71076,0.21608,0.99359,-0.17335,,,0.61733,0.78216,-0.08364,-0.01156,
8.27344,1.92683,13.76190,30.79109,0.20593,1.03316,-0.19683,,,0.61733,0.78207,-0.08470,-0.00952,
8.28125,1.61673,17.93174,31.90626,0.14456,1.00662,-0.22325,,,0.61736,0.78197,-0.08565,-0.00721,
8.28906,2.89160,17.89640,34.17147,0.10880,1.00807,-0.23842,,,0.61733,0.78190,-0.08672,-0.00480,
8.29688,2.37476,16.34154,35.87909,0.11122,0.99938,-0.22765,,,0.61731,0.78179,-0.08794,-0.00241,
8.30469,2.71932,14.07994,40.20041,0.13731,1.00324,-0.22814,,,0.61725,0.78166,-0.08949,0.00005,
8.31250,1.09989,15.14007,43.99899,0.09140,1.01869,-0.22129,,,0.61728,0.78143,-0.09120,0.00272,
8.32031,0.47969,13.76190,47.20513,0.09285,0.99697,-0.23450,,,0.61733,0.78115,-0.09314,0.00544,
8.32813,-1.65658,11.18225,52.81588,0.07739,1.00035,-0.25701,,,0.61747,0.78074,-0.09548,0.00825,
8.33594,-1.72549,4.15006,56.44021,0.21512,1.02544,-0.32306,,,0.61755,0.78029,-0.09831,0.01083,
8.34375,-4.61979,9.76875,62.64339,0.12233,1.03847,-0.26092,,,0.61781,0.77966,-0.10123,0.01396,
8.35156,-4.89543,9.34469,67.27836,0.05709,1.03558,-0.25212,,,0.61806,0.77897,-0.10442,0.01726,
8.35938,-6.54932,2.63054,71.25118,0.11653,1.05392,-0.32355,,,0.61834,0.77818,-0.10810,0.02035,
8.36719,-9.51252,-0.72653,79.05744,0.11218,1.04957,-0.33480,,,0.61872,0.77718,-0.11233,0.02357,
8.37500,-9.34024,-1.85734,82.78632,0.11895,1.10411,-0.28245,,,0.61905,0.77615,-0.11681,0.02689,
8.38281,-10.92521,-3.76557,87.17734,0.12716,1.13354,-0.21249,,,0.61943,0.77498,-0.12160,0.03029,
8.39063,-11.09749,-6.55724,90.10468,0.09382,1.19001,-0.21493,,,0.61977,0.77377,-0.12666,0.03365,
8.39844,-14.50863,-16.69914,99.27006,0.28084,1.22282,-0.25310,,,0.62015,0.77232,-0.13263,0.03684,
8.40625,-15.43893,-10.33837,100.24585,0.16679,1.28749,-0.17090,,,0.62060,0.77076,-0.13838,0.04039,
8.41406,-17.57520,-6.73393,103.80048,0.21560,1.27880,-0.27658,,,0.62116,0.76904,-0.14416,0.04426,
8.42188,-19.81483,-2.24605,109.62032,0.12861,1.28894,-0.21934,,,0.62183,0.76711,-0.15006,0.04859,
8.42969,-20.67623,-8.96020,114.08104,0.13248,1.21269,-0.29811,,,0.62242,0.76507,-0.15647,0.05274,
8.43750,-21.91664,-7.37001,117.77507,0.20835,1.32899,-0.29126,,,0.62304,0.76288,-0.16300,0.05712,
8.44531,-25.08658,-8.43013,123.31612,0.16486,1.30679,-0.33089,,,0.62375,0.76045,-0.16986,0.06163,
8.45313,-25.67233,-6.91062,126.69650,0.17114,1.37484,-0.30104,,,0.62444,0.75790,-0.17682,0.06636,
8.46094,-27.87751,-4.75502,133.31788,0.23203,1.40717,-0.26386,,,0.62519,0.75509,-0.18403,0.07145,
8.46875,-31.46092,-2.21071,138.51043,0.04839,1.56498,-0.24429,,,0.62608,0.75199,-0.19139,0.07684,
8.47656,-33.80392,-0.33782,140.77564,0.05419,1.62868,-0.31376,,,0.62704,0.74867,-0.19879,0.08238,
8.48438,-36.80158,5.28087,148.23340,-0.03859,1.67356,-0.33676,,,0.62813,0.74502,-0.20632,0.08848,
8.49219,-35.69900,12.87846,152.31078,0.02713,1.63495,-0.42385,,,0.62917,0.74123,-0.21371,0.09514,
8.50000,-34.21739,21.43016,154.40174,0.03100,1.66584,-0.42434,,,0.63017,0.73734,-0.22079,0.10234,
8.50781,-35.14770,38.42756,159.17610,-0.07145,1.74546,-0.48354,,,0.63136,0.73312,-0.22737,0.11057,
8.51563,-34.59641,48.85216,162.59134,-0.10722,1.75174,-0.52415,,,0.63258,0.72869,-0.23363,0.11946,
8.52344,-30.22051,59.70082,171.89611,-0.15892,1.88927,-0.46788,,,0.63358,0.72411,-0.23982,0.12934,
8.53125,-26.29254,65.74355,177.50686,-0.14346,2.04225,-0.45467,,,0.63433,0.71943,-0.24595,0.13980,
8.53906,-22.77804,74.01256,177.99475,-0.12220,2.06011,-0.41211,,,0.63494,0.71470,-0.25167,0.15072,
8.54688,-15.54230,91.61070,182.35092,-0.15651,1.94091,-0.34410,,,0.63534,0.70989,-0.25671,0.16279,
8.55469,-9.82262,100.90450,185.66161,-0.14394,1.95008,-0.26973,,,0.63545,0.70503,-0.26140,0.17552,
8.56250,-9.96045,99.87970,186.42829,-0.12123,1.89941,-0.24771,,,0.63542,0.70001,-0.26612,0.18819,
8.57031,-7.54854,98.50154,186.11465,-0.10963,1.75560,-0.27169,,,0.63511,0.69497,-0.27080,0.20078,
8.57813,-7.41071,92.10543,182.66456,-0.26621,1.54278,-0.16503,,,0.63460,0.68995,-0.27553,0.21289,
8.58594,-10.40837,78.07639,179.42357,-0.29327,1.44143,-0.19047,,,0.63390,0.68494,-0.28071,0.22410,
8.59375,-9.03014,58.07529,167.22630,-0.05502,0.97815,-0.48403,,,0.63283,0.68042,-0.28613,0.23385,
8.60156,-2.24233,71.75095,137.15131,-0.24349,1.05778,-0.20906,,,0.63212,0.67647,-0.28941,0.24303,
8.60938,-11.92443,58.32265,128.85716,-0.20145,0.98008,-0.14350,,,0.63165,0.67242,-0.29302,0.25102,
8.61719,-28.56663,67.47510,114.60378,-0.08064,0.74747,0.00132,,,0.63232,0.66771,-0.29584,0.25846,
8.62500,-40.00598,63.16391,102.12771,0.18805,0.63262,0.13684,,,0.63360,0.66279,-0.29845,0.26492,
8.63281,-40.41945,50.40702,97.66699,0.28519,0.54237,0.04829,,,0.63467,0.65813,-0.30141,0.27059,
8.64063,-35.42335,-3.65955,81.70599,0.40117,0.37250,-0.34752,,,0.63466,0.65497,-0.30588,0.27322,
8.64844,-29.49694,-37.65436,54.62804,0.21802,0.45599,-0.47082,,,0.63417,0.65325,-0.31050,0.27329,
8.65625,-26.05135,-41.15278,41.59438,0.03293,0.50135,-0.45859,,,0.63367,0.65201,-0.31461,0.27269,
8.66406,-28.39435,-25.03882,3.64344,-0.07387,0.45696,-0.26973,,,0.63433,0.65117,-0.31638,0.27112,
8.67188,-29.22129,-6.23920,-19.35713,-0.12558,0.33631,-0.04467,,,0.63585,0.65044,-0.31633,0.26938,
8.67969,-32.32232,6.09363,-31.13621,-0.18647,0.29577,0.04095,,,0.63798,0.64960,-0.31527,0.26760,
8.68750,-41.59095,17.54302,-55.49591,-0.27297,0.21711,0.08792,,,0.64121,0.64865,-0.31280,0.26506,
8.69531,-43.96841,16.30621,-67.44924,-0.28554,0.19057,0.07128,,,0.64471,0.64787,-0.30989,0.26189,
8.70313,-42.59017,13.69122,-92.36653,-0.28554,0.15775,0.02480,,,0.64851,0.64769,-0.30596,0.25753,
8.71094,-33.11480,7.33045,-115.43680,-0.29569,0.12880,-0.02168,,,0.65213,0.64848,-0.30111,0.25204,
8.71875,-27.77414,1.07569,-126.17040,-0.28022,0.13121,-0.03733,,,0.65553,0.64979,-0.29595,0.24590,
8.72656,-18.91898,-16.62847,-144.71025,-0.25944,0.17368,-0.08332,,,0.65842,0.65212,-0.29058,0.23830,
8.73438,-15.61121,-39.03252,-160.91520,-0.26234,0.22001,-0.12100,,,0.66091,0.65520,-0.28541,0.22902,
8.74219,-14.64645,-47.44288,-169.90634,-0.22948,0.23159,-0.14106,,,0.66325,0.65854,-0.28017,0.21894,
8.75000,-12.13117,-59.77571,-186.32038,-0.13766,0.30108,-0.13714,,,0.66537,0.66238,-0.27466,0.20758,
8.75781,-10.51174,-68.92816,-202.07229,-0.03328,0.38216,-0.14399,,,0.66735,0.66660,-0.26878,0.19508,
8.76563,-10.51174,-70.58903,-209.91339,0.01843,0.40435,-0.16160,,,0.66925,0.67083,-0.26256,0.18210,
8.77344,-9.34024,-66.20716,-224.23648,0.09285,0.48881,-0.16503,,,0.67119,0.67515,-0.25541,0.16865,
8.78125,-9.47807,-61.01253,-237.30498,0.09189,0.52548,-0.19928,,,0.67319,0.67946,-0.24735,0.15480,
8.78906,-8.20320,-58.18552,-244.20516,0.11025,0.55396,-0.22863,,,0.67507,0.68372,-0.23876,0.14073,
8.79688,-0.55399,-45.74667,-255.77514,0.05612,0.62490,-0.23744,,,0.67670,0.68819,-0.22891,0.12680,
8.80469,5.92371,-40.02198,-267.20573,0.05081,0.71466,-0.28147,,,0.67799,0.69286,-0.21813,0.11266,
8.81250,8.81801,-38.14908,-272.78163,0.05999,0.75616,-0.29664,,,0.67898,0.69750,-0.20691,0.09836,
8.82031,13.88302,-35.92281,-282.71369,0.06289,0.86571,-0.30545,,,0.67958,0.70224,-0.19499,0.08375,
8.82813,19.84389,-35.03937,-290.90329,0.10783,0.96078,-0.32306,,,0.67968,0.70709,-0.18254,0.06884,
8.83594,23.35839,-33.90857,-295.12006,0.15229,1.01965,-0.33921,,,0.67938,0.71186,-0.16974,0.05381,
8.84375,28.87133,-23.87268,-303.55360,0.24943,1.17408,-0.36514,,,0.67866,0.71664,-0.15597,0.03891,
8.85156,31.62781,-15.49766,-306.58550,0.28036,1.24116,-0.38226,,,0.67762,0.72125,-0.14159,0.02430,
8.85938,36.79619,2.52453,-311.77805,0.30259,1.36181,-0.39449,,,0.67619,0.72579,-0.12606,0.01038,
8.86719,38.55344,23.19704,-315.85543,0.25571,1.45109,-0.37590,,,0.67454,0.73009,-0.10931,-0.00271,
8.87500,40.03504,31.39538,-316.13422,0.22816,1.48680,-0.36709,,,0.67257,0.73412,-0.09211,-0.01538,
8.88281,47.61534,40.79519,-314.46145,0.20545,1.56835,-0.35193,,,0.66995,0.73815,-0.07454,-0.02745,
8.89063,57.74537,46.09583,-310.31438,0.19144,1.68080,-0.32257,,,0.66654,0.74227,-0.05691,-0.03900,
8.89844,62.60365,45.31840,-307.97947,0.16534,1.69383,-0.31719,,,0.66257,0.74626,-0.03942,-0.05044,
8.90625,76.59274,29.45181,-304.14604,0.20593,1.70975,-0.33382,,,0.65755,0.75047,-0.02288,-0.06246,
8.91406,94.19969,21.81888,-293.48214,0.33110,1.76670,-0.32355,,,0.65137,0.75507,-0.00729,-0.07434,
8.92188,98.36886,19.69862,-293.86548,0.37411,1.96987,-0.30104,,,0.64469,0.75952,0.00821,-0.08630,
8.92969,88.34219,9.38003,-288.60323,0.71045,2.07362,-0.30545,,,0.63827,0.76313,0.02303,-0.09852,
8.93750,82.89816,32.24348,-277.66053,0.72737,1.92547,-0.23793,,,0.63192,0.76637,0.03831,-0.10902,
8.94531,80.45180,42.73875,-271.52705,0.66938,1.89410,-0.19732,,,0.62547,0.76930,0.05372,-0.11867,
8.95313,71.14871,48.49879,-256.05394,0.57997,1.76042,-0.13910,,,0.61939,0.77165,0.06863,-0.12727,
8.96094,66.11815,43.72821,-234.86553,0.49927,1.67887,-0.06277,,,0.61359,0.77361,0.08224,-0.13517,
8.96875,63.74069,35.98927,-223.08645,0.45771,1.67066,-0.00847,,,0.60789,0.77526,0.09490,-0.14294,
8.97656,54.40315,14.68068,-202.73443,0.48816,1.73871,0.10162,,,0.60289,0.77627,0.10568,-0.15089,
8.98438,41.10317,-17.58258,-182.97484,0.49347,1.60889,0.10945,,,0.59892,0.77639,0.11420,-0.15962,
8.99219,39.48375,-35.60477,-172.52004,0.54808,1.64798,0.09379,,,0.59519,0.77621,0.12143,-0.16883,
9.00000,28.94025,-52.49616,-154.50292,0.73848,1.49741,0.02431,,,0.59228,0.77545,0.12713,-0.17810,
9.00781,33.55734,-75.35961,-129.51594,0.75540,1.41055,0.01355,1022.054,26.7,0.58956,0.77473,0.13051,-0.18758,
9.01563,33.52288,-89.38865,-116.06409,0.82498,1.39317,0.01355,,,0.58707,0.77386,0.13260,-0.19725,
9.02344,31.24879,-104.37180,-87.41792,1.05985,1.31934,0.00523,,,0.58517,0.77288,0.13260,-0.20651,
9.03125,32.21356,-100.16662,-73.47818,1.14925,1.29907,0.03019,,,0.58333,0.77206,0.13200,-0.21499,
9.03906,31.21434,-85.21881,-45.63354,1.15843,1.28025,0.04976,,,0.58178,0.77163,0.13054,-0.22156,
9.04688,26.14932,-71.15443,-20.96020,1.06613,1.26046,0.05661,,,0.58071,0.77139,0.12842,-0.22635,
9.05469,22.08353,-68.46877,-8.41444,0.98108,1.28073,0.04242,,,0.58002,0.77113,0.12580,-0.23046,
9.06250,10.47189,-69.88228,16.95589,0.86413,1.22186,0.01893,,,0.58034,0.77058,0.12197,-0.23354,
9.07031,1.44445,-76.31372,41.38529,0.82547,1.15188,-0.01923,,,0.58155,0.76975,0.11674,-0.23591,
9.07813,-1.79440,-79.38810,52.71133,0.81677,1.13016,-0.03880,,,0.58311,0.76881,0.11084,-0.23796,
9.08594,-6.75605,-83.31057,72.99365,0.82063,1.07515,-0.09800,,,0.58527,0.76772,0.10380,-0.23936,
9.09375,-10.02936,-81.19032,89.05920,0.79599,1.02737,-0.18069,,,0.58781,0.76660,0.09605,-0.23996,
9.10156,-10.37392,-80.44823,96.02907,0.79841,0.98298,-0.23891,,,0.59043,0.76547,0.08797,-0.24023,
9.10938,-7.99646,-68.82215,106.03084,0.75878,0.95354,-0.31034,,,0.59297,0.76463,0.07978,-0.23949,
9.11719,-7.47962,-53.06156,115.09167,0.68436,0.94919,-0.48501,,,0.59551,0.76406,0.07175,-0.23754,
9.12500,-4.13740,-37.44233,115.40531,0.35091,0.99215,-0.69001,,,0.59775,0.76383,0.06428,-0.23477,
9.13281,1.72010,-3.58888,97.03970,-0.17922,1.05343,-0.49822,,,0.59922,0.76426,0.05905,-0.23100,
9.14063,-9.65035,47.58001,88.57131,-1.40234,0.87343,-0.85782,,,0.60090,0.76495,0.05654,-0.22487,
9.14844,-19.16017,93.76629,63.65402,-2.02477,0.93472,-0.36905,,,0.60249,0.76583,0.05736,-0.21730,
9.15625,-23.88063,78.74780,33.85783,-1.22788,0.70356,0.15544,,,0.60392,0.76613,0.05919,-0.21171,
9.16406,13.02163,35.10583,62.43430,-0.25557,1.13354,0.34478,,,0.60400,0.76741,0.05718,-0.20735,
9.17188,9.81723,0.54562,80.45141,0.06144,1.26095,0.19409,,,0.60462,0.76812,0.05285,-0.20405,
9.17969,-8.06537,-49.56314,97.28365,0.20787,1.33912,0.08547,,,0.60656,0.76743,0.04582,-0.20259,
9.18750,4.47657,-68.08006,90.87137,0.22043,1.43226,-0.20123,,,0.60778,0.76693,0.03818,-0.20240,
9.19531,8.54236,-60.19976,87.45613,0.22720,1.44336,-0.24527,,,0.60868,0.76666,0.03099,-0.20193,
9.20313,13.46955,-26.48766,89.61679,0.16486,1.42454,-0.18020,,,0.60925,0.76703,0.02501,-0.19962,
9.21094,12.12577,-5.70914,90.10468,0.12910,1.48197,-0.12002,,,0.60985,0.76760,0.01989,-0.19618,
9.21875,7.06076,14.71601,91.95170,0.09575,1.37435,-0.12246,,,0.61068,0.76819,0.01560,-0.19159,
9.22656,13.46955,10.89955,96.90031,0.06531,1.17215,-0.18607,,,0.61121,0.76898,0.01080,-0.18699,
9.23438,16.43276,6.09363,96.90031,0.02713,1.20738,-0.18802,,,0.61157,0.76980,0.00576,-0.18264,
9.24219,10.43744,1.95913,92.96233,0.01022,1.11955,-0.25652,,,0.61217,0.77028,0.00083,-0.17866,
9.25000,19.56825,-10.26769,93.20628,-0.05744,0.95209,-0.39449,,,0.61226,0.77096,-0.00474,-0.17531,
9.25781,25.70139,-19.95020,93.83356,-0.07290,0.93279,-0.44978,,,0.61201,0.77175,-0.01081,-0.17242,
9.26563,24.90891,-25.78091,92.09110,0.00538,1.02737,-0.34752,,,0.61175,0.77240,-0.01702,-0.16991,
9.27344,9.78277,-15.60367,88.95466,0.08125,0.98442,-0.26239,,,0.61223,0.77251,-0.02247,-0.16701,
9.28125,7.26749,-10.51506,87.49098,0.06386,0.94630,-0.27071,,,0.61282,0.77255,-0.02761,-0.16389,
9.28906,8.19780,-2.74078,86.06216,0.03679,1.00324,-0.29615,,,0.61333,0.77269,-0.03235,-0.16042,
9.29688,0.82424,12.27772,85.36517,0.10445,1.13596,-0.25016,,,0.61424,0.77265,-0.03634,-0.15620,
9.30469,-7.06615,24.36319,83.30906,0.12620,1.13306,-0.21200,,,0.61555,0.77240,-0.03963,-0.15144,
9.31250,-13.92288,43.79888,77.14072,0.17839,1.00421,-0.19634,,,0.61719,0.77204,-0.04172,-0.14592,
9.32031,-7.58299,60.44291,72.50576,0.10832,1.04089,-0.16796,,,0.61847,0.77210,-0.04292,-0.13971,
9.32813,-5.92911,61.82108,69.99661,0.03390,1.06839,-0.14839,,,0.61962,0.77222,-0.04394,-0.13351,
9.33594,-4.10295,57.61590,65.71014,-0.16811,1.03123,-0.06180,,,0.62059,0.77236,-0.04492,-0.12772,
9.34375,5.30351,33.23293,60.65698,-0.13524,1.02351,-0.07794,,,0.62094,0.77268,-0.04676,-0.12338,
9.35156,9.43822,22.17225,59.12361,-0.00477,0.99070,-0.20270,,,0.62100,0.77307,-0.04901,-0.11968,
9.35938,10.78199,23.30306,55.15078,0.04259,1.01290,-0.15231,,,0.62096,0.77352,-0.05102,-0.11608,
9.36719,11.19547,15.56412,56.09172,-0.00863,1.02207,-0.21542,,,0.62086,0.77392,-0.05341,-0.11284,
9.37500,9.33485,9.87476,53.37347,-0.04246,0.98539,-0.23108,,,0.62081,0.77419,-0.05588,-0.11003,
9.38281,12.12577,6.16431,49.95823,0.08029,1.01434,-0.22521,,,0.62056,0.77455,-0.05835,-0.10754,
9.39063,11.40220,6.90640,49.22639,0.08270,1.00517,-0.24086,,,0.62035,0.77489,-0.06074,-0.10504,
9.39844,8.74910,13.65588,47.51877,0.04018,0.94003,-0.25701,,,0.62028,0.77515,-0.06274,-0.10227,
9.40625,10.78199,19.48659,39.36403,0.07062,1.01000,-0.23744,,,0.62006,0.77557,-0.06407,-0.09953,
9.41406,9.92060,18.85052,39.32918,0.02181,0.96850,-0.22619,,,0.61988,0.77594,-0.06542,-0.09683,
9.42188,11.60894,16.12952,37.93520,0.13200,0.93086,-0.24771,,,0.61959,0.77637,-0.06682,-0.09432,
9.42969,10.98873,23.23238,33.61388,0.05999,0.91252,-0.25652,,,0.61933,0.77683,-0.06769,-0.09162,
9.43750,11.74676,24.85791,31.94111,0.05371,0.92796,-0.23646,,,0.61902,0.77733,-0.06841,-0.08889,
9.44531,12.81489,26.34209,30.65169,0.08270,0.96367,-0.20955,,,0.61864,0.77788,-0.06900,-0.08614,
9.45313,13.50401,25.60000,29.85015,0.10397,0.97767,-0.21444,,,0.61822,0.77846,-0.06958,-0.08346,
9.46094,13.67629,26.69547,29.78045,0.05564,0.96609,-0.21396,,,0.61779,0.77904,-0.07012,-0.08072,
9.46875,14.50323,24.99926,28.45618,0.03969,0.93568,-0.23353,,,0.61729,0.77965,-0.07065,-0.07813,
9.47656,15.46800,24.43386,27.65464,0.07449,0.94003,-0.22765,,,0.61673,0.78030,-0.07118,-0.07559,
9.48438,15.95038,21.21814,27.72434,0.12136,0.95643,-0.23548,,,0.61613,0.78094,-0.07184,-0.07321,
9.49219,13.95194,22.27827,26.64401,0.07835,0.93472,-0.25359,,,0.61562,0.78150,-0.07240,-0.07084,
9.50000,15.12344,22.63164,24.34396,0.05081,0.93810,-0.26337,,,0.61505,0.78212,-0.07282,-0.06854,
9.50781,14.57214,21.50084,23.96061,0.06144,0.94919,-0.26435,,,0.61449,0.78272,-0.07326,-0.06631,
9.51563,13.88302,21.60685,24.27426,0.16921,0.95161,-0.29860,,,0.61396,0.78327,-0.07372,-0.06407,
9.52344,11.22992,27.64959,23.96061,0.09092,0.95595,-0.25603,,,0.61360,0.78374,-0.07389,-0.06153,
9.53125,10.36852,28.17965,23.50757,0.09672,0.93520,-0.26924,,,0.61329,0.78417,-0.07401,-0.05899,
9.53906,11.02319,27.36689,23.01968,0.10493,0.95547,-0.27903,,,0.61293,0.78462,-0.07414,-0.05651,
9.54688,10.54080,23.93914,23.61212,0.16147,0.97525,-0.29566,,,0.61257,0.78503,-0.07445,-0.05419,
9.55469,6.78511,23.55042,25.38944,0.13490,0.97429,-0.26141,,,0.61242,0.78527,-0.07485,-0.05183,
9.56250,5.99263,25.31730,25.70308,0.06482,0.94823,-0.27462,,,0.61232,0.78548,-0.07519,-0.04937,
9.57031,5.64807,22.80833,26.33037,0.05033,0.96271,-0.28832,,,0.61222,0.78566,-0.07566,-0.04702,
9.57813,4.02864,19.83997,25.63338,0.13248,0.99745,-0.28441,,,0.61218,0.78575,-0.07622,-0.04487,
9.58594,3.30507,20.33470,26.88796,0.10493,0.97139,-0.28979,,,0.61219,0.78581,-0.07682,-0.04264,
9.59375,2.82269,22.87901,26.50462,0.05564,0.95209,-0.27903,,,0.61224,0.78585,-0.07730,-0.04029,
9.60156,3.09833,22.31360,26.22582,0.12668,0.97477,-0.25163,,,0.61226,0.78591,-0.07778,-0.03798,
9.60938,1.61673,19.62794,27.06220,0.18999,1.01820,-0.22423,,,0.61235,0.78588,-0.07842,-0.03579,
9.61719,0.82424,21.11212,27.09705,0.14504,1.01531,-0.20711,,,0.61248,0.78582,-0.07899,-0.03352,
9.62500,1.44445,23.97447,26.81826,0.08270,0.97815,-0.22765,,,0.61259,0.78578,-0.07943,-0.03111,
9.63281,1.82346,21.88955,26.67886,0.16679,1.01434,-0.24820,,,0.61267,0.78576,-0.07995,-0.02881,
9.64063,1.44445,22.56097,26.88796,0.21753,1.01869,-0.24820,,,0.61276,0.78572,-0.08045,-0.02647,
9.64844,1.54782,25.21129,28.42133,0.17549,1.00324,-0.24429,,,0.61287,0.78567,-0.08092,-0.02392,
9.65625,1.78901,28.99242,28.87437,0.09237,0.97622,-0.24967,,,0.61298,0.78563,-0.08126,-0.02115,
9.66406,1.92683,26.41277,29.98955,0.12040,0.99456,-0.28001,,,0.61306,0.78558,-0.08177,-0.01847,
9.67188,1.34108,26.02406,33.89268,0.21077,1.01965,-0.27316,,,0.61317,0.78547,-0.08250,-0.01566,
9.67969,-0.65736,30.58261,38.70189,0.05178,1.02689,-0.21396,,,0.61342,0.78526,-0.08329,-0.01240,
9.68750,-1.44984,29.41647,41.55954,-0.03618,1.01724,-0.24771,,,0.61370,0.78498,-0.08428,-0.00910,
9.69531,-2.27679,20.37003,49.05215,-0.02071,1.04185,-0.30349,,,0.61396,0.78461,-0.08605,-0.00597,
9.70313,-5.30890,13.01981,57.27659,0.06096,1.02689,-0.22912,,,0.61434,0.78405,-0.08857,-0.00291,
9.71094,-5.61901,9.02665,61.80701,0.04743,1.04330,-0.25163,,,0.61470,0.78344,-0.09149,0.00013,
