Gait Up - Physilog data export
Created on: YYYY-MM-DD hh:mm:ss
Total data points: 20693

Time [128 hz],Gyro [128 hz],,,Accel [128 hz],,,Baro [1 hz],,Event [128 hz],Quaternion [128 hz],,,,
Time,Gyro X,Gyro Y,Gyro Z,Accel X,Accel Y,Accel Z,Pressure,Temperature,Quat W,Quat X,Quat Y,Quat Z,
[s],[deg/s],[deg/s],[deg/s],[g],[g],[g],[mBar],[degree C],[],[],[],[],
0.00781,0.40710,-0.58662,0.01247,0.18159,0.51766,0.82691,1021.882,25.1,0.95512,0.27613,-0.10720,-0.00090,
0.01563,0.44138,-0.83866,0.08283,0.18595,0.51619,0.82353,,,0.95511,0.27616,-0.10725,-0.00091,
0.02344,0.40710,-0.83866,0.18836,0.19759,0.51863,0.81724,,,0.95509,0.27619,-0.10731,-0.00091,
0.03125,0.44138,-0.87466,0.08283,0.19274,0.51521,0.82304,,,0.95508,0.27621,-0.10737,-0.00091,
0.03906,0.44138,-0.80265,0.15319,0.17868,0.51082,0.82014,,,0.95507,0.27624,-0.10743,-0.00092,
0.04688,0.33854,-0.83866,0.22354,0.18741,0.50984,0.82401,,,0.95505,0.27626,-0.10749,-0.00091,
0.05469,0.44138,-0.83866,0.15319,0.18498,0.51131,0.82111,,,0.95504,0.27629,-0.10754,-0.00092,
0.06250,0.44138,-0.98267,0.22354,0.20001,0.51863,0.82594,,,0.95502,0.27632,-0.10761,-0.00092,
0.07031,0.33854,-0.91066,0.32908,0.19128,0.52010,0.82063,,,0.95501,0.27634,-0.10768,-0.00091,
0.07813,0.33854,-0.98267,0.25872,0.18886,0.51863,0.82063,,,0.95500,0.27636,-0.10775,-0.00091,
0.08594,0.37282,-0.83866,0.32908,0.18256,0.50691,0.81434,,,0.95498,0.27638,-0.10781,-0.00090,
0.09375,0.47565,-1.01868,0.25872,0.18837,0.51912,0.82498,,,0.95497,0.27641,-0.10788,-0.00090,
0.10156,0.47565,-1.12669,0.32908,0.19322,0.52498,0.83223,,,0.95495,0.27644,-0.10796,-0.00090,
0.10938,0.33854,-1.12669,0.36426,0.19177,0.50984,0.82546,,,0.95493,0.27645,-0.10804,-0.00089,
0.11719,0.33854,-0.94667,0.29390,0.17529,0.51424,0.82111,,,0.95492,0.27647,-0.10810,-0.00089,
0.12500,0.37282,-0.91066,0.25872,0.18837,0.51424,0.81579,,,0.95491,0.27650,-0.10817,-0.00089,
0.13281,0.23571,-0.98267,0.25872,0.19953,0.51277,0.81531,,,0.95490,0.27651,-0.10824,-0.00089,
0.14063,0.20143,-0.91066,0.36426,0.19419,0.51277,0.81337,,,0.95489,0.27652,-0.10830,-0.00088,
0.14844,0.44138,-0.83866,0.25872,0.19274,0.51521,0.82885,,,0.95487,0.27655,-0.10836,-0.00087,
0.15625,0.47565,-1.05468,0.08283,0.18934,0.51815,0.83126,,,0.95485,0.27658,-0.10843,-0.00088,
0.16406,0.33854,-0.76665,0.11801,0.19710,0.52352,0.82498,,,0.95484,0.27660,-0.10849,-0.00089,
0.17188,0.26999,-0.69464,0.15319,0.17868,0.51668,0.82498,,,0.95483,0.27661,-0.10853,-0.00089,
0.17969,0.40710,-0.87466,0.25872,0.18837,0.50642,0.82981,,,0.95482,0.27664,-0.10860,-0.00089,
0.18750,0.47565,-0.69464,0.11801,0.18886,0.52059,0.82449,,,0.95480,0.27667,-0.10864,-0.00089,
0.19531,0.44138,-0.69464,0.22354,0.18159,0.52205,0.82159,,,0.95479,0.27670,-0.10869,-0.00088,
0.20313,0.37282,-0.62263,0.25872,0.19031,0.51424,0.81434,,,0.95478,0.27672,-0.10874,-0.00088,
0.21094,0.26999,-0.73064,0.25872,0.18353,0.50838,0.82304,,,0.95477,0.27673,-0.10879,-0.00087,
0.21875,0.20143,-0.94667,0.25872,0.19807,0.51668,0.82159,,,0.95476,0.27675,-0.10886,-0.00087,
0.22656,0.13288,-0.80265,0.18836,0.18304,0.52108,0.82304,,,0.95475,0.27675,-0.10891,-0.00087,
0.23438,0.09860,-1.09069,0.29390,0.18207,0.51277,0.82304,,,0.95474,0.27676,-0.10899,-0.00087,
0.24219,0.26999,-0.94667,0.32908,0.19177,0.51375,0.83271,,,0.95473,0.27677,-0.10906,-0.00087,
0.25000,0.40710,-0.94667,0.11801,0.19177,0.50935,0.81869,,,0.95471,0.27680,-0.10912,-0.00087,
0.25781,0.33854,-0.83866,0.08283,0.19128,0.51912,0.82159,,,0.95470,0.27682,-0.10918,-0.00088,
0.26563,0.37282,-0.98267,0.11801,0.18789,0.51815,0.82449,,,0.95469,0.27684,-0.10924,-0.00089,
0.27344,0.16715,-1.01868,0.18836,0.18741,0.51277,0.83223,,,0.95467,0.27685,-0.10931,-0.00090,
0.28125,0.23571,-0.91066,0.15319,0.18789,0.50740,0.81579,,,0.95466,0.27687,-0.10938,-0.00090,
0.28906,0.40710,-0.69464,0.18836,0.18644,0.52254,0.82498,,,0.95465,0.27689,-0.10942,-0.00090,
0.29688,0.33854,-0.80265,0.11801,0.18304,0.51668,0.83271,,,0.95464,0.27691,-0.10948,-0.00090,
0.30469,0.26999,-0.94667,0.29390,0.19710,0.51033,0.82788,,,0.95463,0.27693,-0.10955,-0.00090,
0.31250,0.30427,-0.91066,0.15319,0.18692,0.51473,0.82256,,,0.95461,0.27695,-0.10961,-0.00091,
0.32031,0.37282,-0.83866,0.18836,0.18789,0.51961,0.82111,,,0.95460,0.27697,-0.10967,-0.00091,
0.32813,0.26999,-0.91066,0.25872,0.18159,0.51912,0.82063,,,0.95459,0.27698,-0.10973,-0.00091,
0.33594,0.30427,-1.09069,0.29390,0.18595,0.51326,0.82111,,,0.95457,0.27700,-0.10981,-0.00090,
0.34375,0.33854,-0.94667,0.36426,0.19710,0.51277,0.81095,,,0.95456,0.27702,-0.10988,-0.00090,
0.35156,0.44138,-0.91066,0.29390,0.19128,0.51717,0.82691,,,0.95455,0.27705,-0.10994,-0.00089,
0.35938,0.44138,-0.87466,0.18836,0.19759,0.52352,0.82885,,,0.95453,0.27707,-0.11000,-0.00089,
0.36719,0.37282,-0.94667,0.25872,0.18837,0.51033,0.82014,,,0.95452,0.27710,-0.11007,-0.00089,
0.37500,0.44138,-0.83866,0.15319,0.18207,0.51180,0.81676,,,0.95450,0.27712,-0.11012,-0.00089,
0.38281,0.57849,-0.76665,0.08283,0.18498,0.51961,0.82304,,,0.95449,0.27716,-0.11018,-0.00090,
0.39063,0.40710,-0.80265,0.01247,0.18886,0.51766,0.81772,,,0.95447,0.27719,-0.11023,-0.00091,
0.39844,0.26999,-0.73064,0.25872,0.18498,0.51424,0.81047,,,0.95446,0.27720,-0.11028,-0.00090,
0.40625,0.44138,-0.80265,0.11801,0.18692,0.50203,0.81821,,,0.95445,0.27723,-0.11034,-0.00091,
0.41406,0.50993,-0.94667,-0.02271,0.19516,0.51473,0.82498,,,0.95443,0.27726,-0.11040,-0.00092,
0.42188,0.33854,-0.83866,0.22354,0.19710,0.52156,0.82353,,,0.95442,0.27728,-0.11046,-0.00092,
0.42969,0.33854,-0.87466,0.18836,0.19128,0.50984,0.81724,,,0.95440,0.27731,-0.11052,-0.00092,
0.43750,0.44138,-0.83866,0.15319,0.19225,0.51766,0.82788,,,0.95439,0.27733,-0.11057,-0.00093,
0.44531,0.64704,-1.09069,0.11801,0.19419,0.51619,0.82014,,,0.95437,0.27737,-0.11065,-0.00093,
0.45313,0.40710,-0.44260,0.08283,0.18789,0.51570,0.81724,,,0.95436,0.27740,-0.11068,-0.00093,
0.46094,0.44138,-0.58662,0.04765,0.18789,0.51131,0.81772,,,0.95435,0.27743,-0.11072,-0.00094,
0.46875,0.57849,-0.65863,0.08283,0.18547,0.51131,0.82546,,,0.95433,0.27747,-0.11076,-0.00094,
0.47656,0.50993,-0.87466,0.01247,0.19807,0.52010,0.81676,,,0.95431,0.27750,-0.11082,-0.00095,
0.48438,0.44138,-0.62263,0.01247,0.18886,0.52010,0.82498,,,0.95430,0.27753,-0.11086,-0.00096,
0.49219,0.30427,-0.73064,0.01247,0.18401,0.50789,0.81869,,,0.95429,0.27755,-0.11091,-0.00097,
0.50000,0.44138,-0.65863,0.04765,0.19080,0.50886,0.82691,,,0.95428,0.27757,-0.11095,-0.00098,
0.50781,0.57849,-0.83866,-0.02271,0.19031,0.50984,0.82304,,,0.95426,0.27761,-0.11100,-0.00099,
0.51563,0.47565,-0.62263,0.08283,0.18595,0.51521,0.81966,,,0.95424,0.27764,-0.11105,-0.00099,
0.52344,0.50993,-0.80265,0.08283,0.18401,0.52938,0.82981,,,0.95423,0.27768,-0.11110,-0.00100,
0.53125,0.37282,-0.83866,0.11801,0.19177,0.51570,0.82885,,,0.95422,0.27770,-0.11116,-0.00101,
0.53906,0.44138,-0.91066,0.11801,0.20292,0.52010,0.82740,,,0.95420,0.27773,-0.11122,-0.00101,
0.54688,0.44138,-0.76665,0.01247,0.18353,0.52010,0.82885,,,0.95419,0.27776,-0.11127,-0.00102,
0.55469,0.33854,-0.91066,0.25872,0.19662,0.52108,0.82885,,,0.95417,0.27778,-0.11133,-0.00102,
0.56250,0.30427,-0.83866,0.29390,0.18692,0.50691,0.83126,,,0.95416,0.27779,-0.11139,-0.00101,
0.57031,0.44138,-0.80265,0.15319,0.18159,0.51424,0.81918,,,0.95415,0.27782,-0.11145,-0.00102,
0.57813,0.54421,-0.76665,0.18836,0.18983,0.52108,0.82304,,,0.95413,0.27785,-0.11150,-0.00101,
0.58594,0.33854,-0.91066,0.32908,0.19565,0.51180,0.81579,,,0.95412,0.27787,-0.11157,-0.00101,
0.59375,0.33854,-0.80265,0.22354,0.19565,0.50642,0.81869,,,0.95410,0.27789,-0.11162,-0.00101,
0.60156,0.50993,-0.83866,0.08283,0.18692,0.50740,0.81966,,,0.95409,0.27793,-0.11168,-0.00101,
0.60938,0.57849,-0.87466,0.11801,0.19371,0.52010,0.82546,,,0.95407,0.27796,-0.11174,-0.00102,
0.61719,0.44138,-0.94667,0.08283,0.19128,0.51717,0.82111,,,0.95405,0.27799,-0.11180,-0.00103,
0.62500,0.47565,-0.73064,0.22354,0.19080,0.50300,0.82014,,,0.95404,0.27802,-0.11185,-0.00102,
0.63281,0.50993,-0.94667,0.11801,0.18498,0.51033,0.82159,,,0.95402,0.27805,-0.11192,-0.00103,
0.64063,0.61277,-0.83866,0.15319,0.18595,0.52059,0.82401,,,0.95401,0.27809,-0.11198,-0.00103,
0.64844,0.26999,-0.87466,0.29390,0.18547,0.52010,0.83030,,,0.95399,0.27811,-0.11204,-0.00102,
0.65625,0.37282,-0.94667,0.29390,0.18934,0.51082,0.82208,,,0.95398,0.27813,-0.11210,-0.00102,
0.66406,0.50993,-0.87466,0.25872,0.18304,0.50740,0.82256,,,0.95396,0.27816,-0.11217,-0.00102,
0.67188,0.44138,-0.94667,0.18836,0.19419,0.51717,0.82740,,,0.95395,0.27819,-0.11223,-0.00102,
0.67969,0.37282,-0.91066,0.29390,0.18934,0.52108,0.82256,,,0.95393,0.27821,-0.11230,-0.00101,
0.68750,0.30427,-0.83866,0.32908,0.18207,0.50935,0.81434,,,0.95392,0.27823,-0.11236,-0.00101,
0.69531,0.40710,-1.09069,0.25872,0.19613,0.51863,0.82643,,,0.95390,0.27825,-0.11243,-0.00101,
0.70313,0.57849,-0.98267,0.11801,0.19468,0.51766,0.81434,,,0.95389,0.27829,-0.11250,-0.00101,
0.71094,0.44138,-1.05468,0.15319,0.20146,0.51619,0.82014,,,0.95387,0.27831,-0.11257,-0.00102,
0.71875,0.47565,-0.91066,0.22354,0.19031,0.51668,0.82449,,,0.95385,0.27834,-0.11263,-0.00102,
0.72656,0.40710,-0.87466,0.18836,0.18062,0.51473,0.83271,,,0.95384,0.27837,-0.11269,-0.00102,
0.73438,0.54421,-0.87466,0.25872,0.18741,0.52010,0.82643,,,0.95382,0.27840,-0.11276,-0.00102,
0.74219,0.54421,-0.83866,0.08283,0.18498,0.51717,0.81241,,,0.95381,0.27844,-0.11281,-0.00102,
0.75000,0.37282,-0.80265,0.18836,0.17868,0.51033,0.82111,,,0.95379,0.27846,-0.11287,-0.00102,
0.75781,0.54421,-0.76665,0.11801,0.19419,0.51717,0.83078,,,0.95378,0.27849,-0.11292,-0.00103,
0.76563,0.50993,-0.83866,0.25872,0.19419,0.51424,0.81869,,,0.95376,0.27852,-0.11298,-0.00102,
0.77344,0.44138,-0.76665,0.18836,0.19031,0.51619,0.82498,,,0.95375,0.27855,-0.11303,-0.00102,
0.78125,0.37282,-0.91066,0.22354,0.19080,0.51717,0.82014,,,0.95373,0.27857,-0.11310,-0.00102,
0.78906,0.44138,-0.76665,0.22354,0.18886,0.51766,0.82498,,,0.95372,0.27860,-0.11315,-0.00102,
0.79688,0.37282,-0.98267,0.18836,0.19177,0.50984,0.81772,,,0.95370,0.27862,-0.11322,-0.00102,
0.80469,0.61277,-0.91066,0.08283,0.19759,0.52889,0.82740,,,0.95368,0.27866,-0.11328,-0.00103,
0.81250,0.44138,-0.98267,0.18836,0.19225,0.52156,0.82256,,,0.95367,0.27869,-0.11335,-0.00103,
0.82031,0.54421,-0.83866,0.15319,0.20049,0.51277,0.81676,,,0.95365,0.27872,-0.11340,-0.00103,
0.82813,0.47565,-0.58662,0.11801,0.18450,0.50691,0.82401,,,0.95364,0.27875,-0.11344,-0.00103,
0.83594,0.54421,-0.65863,0.15319,0.19516,0.51473,0.82836,,,0.95362,0.27879,-0.11349,-0.00103,
0.84375,0.61277,-0.69464,-0.09307,0.19225,0.52205,0.83223,,,0.95361,0.27883,-0.11353,-0.00104,
0.85156,0.37282,-0.80265,0.08283,0.19516,0.51277,0.82304,,,0.95359,0.27885,-0.11359,-0.00105,
0.85938,0.44138,-0.65863,0.11801,0.18547,0.50838,0.82643,,,0.95358,0.27888,-0.11363,-0.00105,
0.86719,0.33854,-0.58662,0.08283,0.18450,0.50886,0.81627,,,0.95357,0.27890,-0.11367,-0.00106,
0.87500,0.47565,-0.87466,0.04765,0.19710,0.51717,0.81918,,,0.95355,0.27893,-0.11373,-0.00107,
0.88281,0.37282,-0.80265,0.04765,0.19128,0.51277,0.81821,,,0.95354,0.27896,-0.11378,-0.00108,
0.89063,0.47565,-0.80265,0.08283,0.19371,0.51815,0.82788,,,0.95352,0.27899,-0.11384,-0.00108,
0.89844,0.47565,-1.05468,0.01247,0.19468,0.52352,0.82594,,,0.95351,0.27902,-0.11391,-0.00110,
0.90625,0.44138,-0.80265,0.15319,0.19274,0.51521,0.82643,,,0.95349,0.27904,-0.11396,-0.00110,
0.91406,0.40710,-0.69464,0.22354,0.18401,0.51570,0.82304,,,0.95348,0.27907,-0.11401,-0.00109,
0.92188,0.44138,-0.91066,0.29390,0.19080,0.51375,0.82014,,,0.95346,0.27910,-0.11408,-0.00109,
0.92969,0.61277,-0.91066,0.15319,0.18837,0.51863,0.82885,,,0.95344,0.27913,-0.11414,-0.00109,
0.93750,0.37282,-1.09069,0.22354,0.18450,0.51375,0.82063,,,0.95343,0.27916,-0.11421,-0.00109,
0.94531,0.33854,-0.87466,0.25872,0.17674,0.51228,0.82208,,,0.95342,0.27918,-0.11427,-0.00109,
0.95313,0.44138,-1.01868,0.25872,0.18837,0.51033,0.82498,,,0.95340,0.27920,-0.11435,-0.00109,
0.96094,0.33854,-0.98267,0.25872,0.19080,0.51473,0.81676,,,0.95338,0.27922,-0.11441,-0.00109,
0.96875,0.23571,-0.98267,0.25872,0.19080,0.51180,0.82111,,,0.95337,0.27924,-0.11448,-0.00109,
0.97656,0.23571,-0.94667,0.29390,0.18207,0.51326,0.82014,,,0.95336,0.27925,-0.11455,-0.00109,
0.98438,0.33854,-0.94667,0.18836,0.18304,0.51570,0.83562,,,0.95335,0.27927,-0.11462,-0.00109,
0.99219,0.26999,-0.94667,0.18836,0.19904,0.51912,0.82885,,,0.95333,0.27929,-0.11468,-0.00109,
1.00000,0.44138,-0.65863,0.11801,0.18304,0.51131,0.82208,,,0.95332,0.27931,-0.11473,-0.00110,
1.00781,0.47565,-0.76665,0.18836,0.18498,0.51961,0.82788,1021.910,25.1,0.95331,0.27934,-0.11478,-0.00109,
1.01563,0.33854,-0.80265,0.08283,0.18595,0.51570,0.83368,,,0.95329,0.27936,-0.11483,-0.00110,
1.02344,0.40710,-0.65863,0.08283,0.18983,0.51180,0.81821,,,0.95328,0.27939,-0.11488,-0.00111,
1.03125,0.33854,-0.76665,0.15319,0.19128,0.52205,0.82788,,,0.95327,0.27941,-0.11493,-0.00111,
1.03906,0.40710,-0.69464,0.18836,0.18692,0.51424,0.82981,,,0.95325,0.27944,-0.11498,-0.00111,
1.04688,0.23571,-1.05468,0.15319,0.19807,0.51326,0.82159,,,0.95324,0.27945,-0.11505,-0.00111,
1.05469,0.40710,-0.94667,0.04765,0.19516,0.51668,0.82014,,,0.95323,0.27948,-0.11511,-0.00113,
1.06250,0.40710,-0.73064,0.18836,0.19177,0.51424,0.81579,,,0.95321,0.27950,-0.11516,-0.00112,
1.07031,0.54421,-0.80265,0.15319,0.18547,0.51228,0.82111,,,0.95320,0.27953,-0.11522,-0.00113,
1.07813,0.37282,-0.83866,0.22354,0.19128,0.51424,0.82063,,,0.95318,0.27956,-0.11528,-0.00112,
1.08594,0.37282,-0.76665,0.11801,0.19128,0.51228,0.82014,,,0.95317,0.27958,-0.11533,-0.00113,
1.09375,0.50993,-0.83866,0.15319,0.18886,0.52498,0.83417,,,0.95315,0.27961,-0.11539,-0.00113,
1.10156,0.26999,-0.83866,0.11801,0.18983,0.52352,0.82594,,,0.95314,0.27963,-0.11544,-0.00114,
1.10938,0.30427,-0.87466,0.15319,0.19128,0.50984,0.81869,,,0.95313,0.27965,-0.11550,-0.00114,
1.11719,0.33854,-0.69464,0.04765,0.18256,0.50789,0.82353,,,0.95312,0.27967,-0.11555,-0.00115,
1.12500,0.50993,-0.69464,0.18836,0.19031,0.52059,0.82594,,,0.95310,0.27970,-0.11560,-0.00114,
1.13281,0.40710,-0.73064,0.15319,0.19613,0.51766,0.82208,,,0.95309,0.27973,-0.11565,-0.00115,
1.14063,0.26999,-0.76665,0.25872,0.18450,0.51277,0.81821,,,0.95308,0.27974,-0.11570,-0.00114,
1.14844,0.47565,-0.80265,0.11801,0.18159,0.50935,0.82208,,,0.95306,0.27977,-0.11576,-0.00115,
1.15625,0.47565,-0.94667,0.15319,0.19468,0.51033,0.82014,,,0.95305,0.27980,-0.11582,-0.00115,
1.16406,0.33854,-0.87466,0.22354,0.19662,0.52303,0.82740,,,0.95303,0.27982,-0.11588,-0.00115,
1.17188,0.40710,-0.91066,0.25872,0.19468,0.51082,0.81772,,,0.95302,0.27985,-0.11595,-0.00115,
1.17969,0.47565,-0.91066,0.25872,0.18498,0.51277,0.82740,,,0.95300,0.27987,-0.11601,-0.00114,
1.18750,0.47565,-1.01868,0.08283,0.18741,0.51815,0.82449,,,0.95298,0.27990,-0.11608,-0.00115,
1.19531,0.47565,-0.83866,0.18836,0.18207,0.51180,0.82401,,,0.95297,0.27993,-0.11614,-0.00115,
1.20313,0.37282,-0.98267,0.25872,0.18934,0.51766,0.81966,,,0.95295,0.27996,-0.11621,-0.00115,
1.21094,0.44138,-0.94667,0.22354,0.19031,0.50740,0.82546,,,0.95294,0.27998,-0.11627,-0.00115,
1.21875,0.33854,-1.01868,0.25872,0.19031,0.51228,0.81772,,,0.95292,0.28000,-0.11634,-0.00115,
1.22656,0.40710,-0.83866,0.25872,0.18595,0.51570,0.81918,,,0.95291,0.28003,-0.11640,-0.00115,
1.23438,0.26999,-0.98267,0.29390,0.18304,0.51082,0.82353,,,0.95290,0.28004,-0.11647,-0.00115,
1.24219,0.33854,-1.09069,0.22354,0.19371,0.51082,0.83126,,,0.95288,0.28006,-0.11655,-0.00115,
1.25000,0.30427,-1.12669,0.25872,0.19468,0.51424,0.82063,,,0.95287,0.28008,-0.11663,-0.00115,
1.25781,0.33854,-0.87466,0.25872,0.18256,0.51424,0.81966,,,0.95285,0.28010,-0.11669,-0.00115,
1.26563,0.57849,-0.98267,0.25872,0.19177,0.52498,0.83126,,,0.95283,0.28013,-0.11676,-0.00115,
1.27344,0.50993,-0.94667,0.22354,0.19759,0.51815,0.82691,,,0.95282,0.28017,-0.11682,-0.00115,
1.28125,0.50993,-1.09069,0.11801,0.20195,0.51375,0.82353,,,0.95280,0.28020,-0.11690,-0.00116,
1.28906,0.50993,-0.69464,0.08283,0.18595,0.51570,0.82159,,,0.95278,0.28023,-0.11694,-0.00116,
1.29688,0.47565,-0.83866,0.11801,0.18692,0.52108,0.83465,,,0.95277,0.28026,-0.11700,-0.00116,
1.30469,0.44138,-0.83866,0.15319,0.18886,0.51082,0.82740,,,0.95275,0.28029,-0.11706,-0.00117,
1.31250,0.44138,-0.80265,0.15319,0.19225,0.51082,0.81482,,,0.95274,0.28031,-0.11711,-0.00117,
1.32031,0.57849,-0.76665,0.04765,0.18401,0.51326,0.82498,,,0.95272,0.28035,-0.11716,-0.00117,
1.32813,0.44138,-0.91066,0.15319,0.18401,0.51228,0.82014,,,0.95270,0.28038,-0.11722,-0.00118,
1.33594,0.23571,-1.01868,0.32908,0.19371,0.50545,0.81966,,,0.95269,0.28039,-0.11730,-0.00117,
1.34375,0.50993,-0.98267,0.18836,0.19371,0.51326,0.82691,,,0.95267,0.28042,-0.11736,-0.00118,
1.35156,0.47565,-0.87466,0.18836,0.19031,0.52596,0.83271,,,0.95266,0.28045,-0.11742,-0.00118,
1.35938,0.47565,-0.87466,0.18836,0.19710,0.52059,0.82401,,,0.95264,0.28048,-0.11748,-0.00118,
1.36719,0.16715,-1.01868,0.29390,0.19371,0.50496,0.82159,,,0.95263,0.28049,-0.11756,-0.00118,
1.37500,0.23571,-0.76665,0.22354,0.18498,0.50740,0.82353,,,0.95262,0.28050,-0.11761,-0.00118,
1.38281,0.54421,-0.91066,0.15319,0.19322,0.52010,0.82256,,,0.95260,0.28054,-0.11767,-0.00118,
1.39063,0.50993,-0.87466,0.18836,0.19080,0.52352,0.83368,,,0.95259,0.28057,-0.11773,-0.00118,
1.39844,0.30427,-0.83866,0.22354,0.18692,0.50105,0.81482,,,0.95257,0.28059,-0.11779,-0.00118,
1.40625,0.47565,-0.83866,0.15319,0.19128,0.50056,0.82643,,,0.95256,0.28062,-0.11785,-0.00118,
1.41406,0.61277,-0.69464,0.08283,0.18547,0.51912,0.82401,,,0.95254,0.28066,-0.11790,-0.00118,
1.42188,0.44138,-0.73064,0.18836,0.18595,0.51815,0.81918,,,0.95253,0.28068,-0.11795,-0.00118,
1.42969,0.26999,-0.87466,0.15319,0.18644,0.51082,0.81386,,,0.95251,0.28070,-0.11801,-0.00119,
1.43750,0.44138,-0.87466,0.04765,0.18644,0.51082,0.82885,,,0.95250,0.28073,-0.11806,-0.00120,
1.44531,0.44138,-0.94667,0.22354,0.19468,0.51228,0.82691,,,0.95248,0.28075,-0.11813,-0.00120,
1.45313,0.37282,-0.87466,0.11801,0.18837,0.51766,0.82740,,,0.95247,0.28078,-0.11819,-0.00120,
1.46094,0.33854,-0.91066,0.15319,0.18450,0.51326,0.82449,,,0.95245,0.28080,-0.11825,-0.00121,
1.46875,0.30427,-0.91066,0.18836,0.18547,0.51033,0.82449,,,0.95244,0.28082,-0.11831,-0.00121,
1.47656,0.57849,-0.94667,0.01247,0.18837,0.51863,0.82159,,,0.95242,0.28085,-0.11838,-0.00122,
1.48438,0.47565,-0.69464,0.08283,0.18547,0.52303,0.83030,,,0.95241,0.28088,-0.11842,-0.00123,
1.49219,0.37282,-0.76665,0.18836,0.18692,0.50886,0.82546,,,0.95239,0.28091,-0.11848,-0.00123,
1.50000,0.64704,-0.65863,0.22354,0.18644,0.51277,0.82014,,,0.95238,0.28095,-0.11852,-0.00122,
1.50781,0.68132,-0.87466,0.18836,0.19031,0.50984,0.81531,,,0.95236,0.28099,-0.11858,-0.00122,
1.51563,0.40710,-0.76665,0.15319,0.18062,0.51766,0.81966,,,0.95234,0.28101,-0.11864,-0.00122,
1.52344,0.47565,-0.76665,0.11801,0.18741,0.51717,0.82691,,,0.95233,0.28104,-0.11869,-0.00122,
1.53125,0.26999,-0.87466,0.18836,0.19613,0.50642,0.82304,,,0.95231,0.28106,-0.11875,-0.00123,
1.53906,0.40710,-0.83866,0.18836,0.19516,0.51228,0.81386,,,0.95230,0.28109,-0.11881,-0.00123,
1.54688,0.50993,-0.62263,0.11801,0.19516,0.53036,0.82981,,,0.95228,0.28112,-0.11885,-0.00123,
1.55469,0.40710,-0.91066,0.15319,0.18741,0.52498,0.83658,,,0.95227,0.28114,-0.11891,-0.00123,
1.56250,0.37282,-0.98267,0.15319,0.18983,0.50740,0.82353,,,0.95225,0.28117,-0.11898,-0.00124,
1.57031,0.33854,-0.94667,0.22354,0.18789,0.50447,0.83078,,,0.95224,0.28119,-0.11904,-0.00124,
1.57813,0.40710,-0.58662,0.18836,0.18983,0.51668,0.82933,,,0.95223,0.28121,-0.11909,-0.00123,
1.58594,0.30427,-0.83866,0.11801,0.18837,0.51863,0.83126,,,0.95222,0.28123,-0.11914,-0.00124,
1.59375,0.30427,-0.83866,0.22354,0.18789,0.50789,0.81627,,,0.95220,0.28125,-0.11920,-0.00124,
1.60156,0.44138,-0.91066,0.11801,0.18886,0.50349,0.82594,,,0.95219,0.28127,-0.11926,-0.00124,
1.60938,0.40710,-0.55062,0.04765,0.18983,0.51375,0.81482,,,0.95217,0.28130,-0.11930,-0.00125,
1.61719,0.30427,-0.83866,0.08283,0.19662,0.51668,0.82256,,,0.95216,0.28132,-0.11936,-0.00126,
1.62500,0.23571,-0.98267,0.15319,0.20001,0.51082,0.81821,,,0.95215,0.28133,-0.11942,-0.00126,
1.63281,0.30427,-0.73064,0.18836,0.18934,0.50447,0.82401,,,0.95214,0.28135,-0.11947,-0.00126,
1.64063,0.47565,-0.91066,0.08283,0.18741,0.52645,0.83223,,,0.95212,0.28138,-0.11953,-0.00127,
1.64844,0.40710,-0.91066,0.32908,0.19274,0.52547,0.83271,,,0.95211,0.28141,-0.11960,-0.00126,
1.65625,0.20143,-0.94667,0.32908,0.18983,0.51131,0.81434,,,0.95209,0.28142,-0.11967,-0.00126,
1.66406,0.47565,-0.94667,0.29390,0.19128,0.51082,0.82740,,,0.95208,0.28144,-0.11973,-0.00125,
1.67188,0.57849,-0.83866,0.18836,0.19322,0.53085,0.83513,,,0.95206,0.28148,-0.11979,-0.00125,
1.67969,0.37282,-0.87466,0.25872,0.18741,0.51033,0.81627,,,0.95205,0.28150,-0.11985,-0.00125,
1.68750,0.33854,-0.80265,0.22354,0.18498,0.51082,0.81482,,,0.95203,0.28152,-0.11991,-0.00125,
1.69531,0.44138,-0.80265,0.04765,0.18983,0.50838,0.82449,,,0.95202,0.28155,-0.11996,-0.00126,
1.70313,0.54421,-0.91066,-0.05789,0.20049,0.51180,0.81772,,,0.95200,0.28159,-0.12002,-0.00127,
1.71094,0.33854,-0.80265,0.18836,0.19419,0.51570,0.81772,,,0.95199,0.28161,-0.12008,-0.00127,
1.71875,0.23571,-0.83866,0.11801,0.18256,0.50593,0.82159,,,0.95197,0.28162,-0.12013,-0.00128,
1.72656,0.40710,-0.80265,0.08283,0.18595,0.51082,0.83175,,,0.95196,0.28165,-0.12019,-0.00129,
1.73438,0.54421,-0.83866,0.04765,0.19856,0.51668,0.81772,,,0.95194,0.28168,-0.12024,-0.00130,
1.74219,0.33854,-0.62263,0.04765,0.18595,0.51375,0.82885,,,0.95193,0.28170,-0.12028,-0.00130,
1.75000,0.44138,-0.80265,0.11801,0.18498,0.51082,0.82401,,,0.95192,0.28173,-0.12034,-0.00131,
1.75781,0.47565,-0.73064,0.18836,0.18062,0.51131,0.83562,,,0.95190,0.28176,-0.12039,-0.00130,
1.76563,0.50993,-0.87466,0.18836,0.19225,0.51033,0.82546,,,0.95188,0.28179,-0.12045,-0.00130,
1.77344,0.40710,-0.76665,0.18836,0.17722,0.51228,0.82256,,,0.95187,0.28182,-0.12050,-0.00130,
1.78125,0.23571,-1.01868,0.32908,0.19128,0.51082,0.82643,,,0.95186,0.28183,-0.12058,-0.00130,
1.78906,0.30427,-1.09069,0.29390,0.20243,0.51277,0.82740,,,0.95184,0.28185,-0.12065,-0.00130,
1.79688,0.30427,-0.87466,0.08283,0.18547,0.51717,0.81676,,,0.95183,0.28186,-0.12071,-0.00131,
1.80469,0.47565,-0.69464,0.11801,0.18013,0.52108,0.82498,,,0.95181,0.28189,-0.12076,-0.00131,
1.81250,0.44138,-1.01868,0.08283,0.18353,0.51228,0.82159,,,0.95180,0.28192,-0.12083,-0.00132,
1.82031,0.23571,-1.05468,0.25872,0.20680,0.50886,0.82111,,,0.95178,0.28193,-0.12090,-0.00132,
1.82813,0.47565,-0.98267,0.11801,0.19662,0.52059,0.82256,,,0.95177,0.28196,-0.12097,-0.00133,
1.83594,0.44138,-0.65863,0.04765,0.19177,0.52498,0.83271,,,0.95175,0.28199,-0.12101,-0.00134,
1.84375,0.50993,-0.80265,-0.02271,0.19710,0.52694,0.82885,,,0.95174,0.28203,-0.12106,-0.00135,
1.85156,0.26999,-0.69464,0.08283,0.19031,0.50398,0.81579,,,0.95173,0.28204,-0.12111,-0.00135,
1.85938,0.40710,-0.55062,0.08283,0.18595,0.50789,0.81918,,,0.95171,0.28207,-0.12114,-0.00136,
1.86719,0.47565,-0.51461,-0.05789,0.17722,0.51668,0.81627,,,0.95170,0.28210,-0.12118,-0.00137,
1.87500,0.37282,-0.94667,0.08283,0.19565,0.51717,0.82256,,,0.95169,0.28212,-0.12124,-0.00138,
1.88281,0.26999,-0.83866,0.22354,0.19565,0.51521,0.81966,,,0.95167,0.28214,-0.12130,-0.00138,
1.89063,0.47565,-0.80265,0.11801,0.18983,0.50838,0.82449,,,0.95166,0.28217,-0.12135,-0.00138,
1.89844,0.54421,-0.76665,0.11801,0.19080,0.51961,0.82546,,,0.95164,0.28220,-0.12140,-0.00138,
1.90625,0.40710,-0.80265,0.15319,0.19904,0.52108,0.82981,,,0.95163,0.28223,-0.12146,-0.00138,
1.91406,0.44138,-0.87466,0.11801,0.19565,0.51961,0.82643,,,0.95161,0.28226,-0.12152,-0.00139,
1.92188,0.54421,-0.83866,0.08283,0.19225,0.51375,0.82981,,,0.95159,0.28229,-0.12157,-0.00140,
1.92969,0.54421,-0.83866,0.04765,0.19419,0.51815,0.82643,,,0.95158,0.28232,-0.12163,-0.00140,
1.93750,0.33854,-0.83866,0.11801,0.19807,0.52108,0.82546,,,0.95156,0.28235,-0.12169,-0.00141,
1.94531,0.37282,-0.73064,0.29390,0.19128,0.51326,0.81676,,,0.95155,0.28237,-0.12174,-0.00140,
1.95313,0.40710,-0.65863,0.11801,0.19031,0.51082,0.82498,,,0.95154,0.28239,-0.12179,-0.00140,
1.96094,0.44138,-0.83866,0.11801,0.19904,0.51033,0.81434,,,0.95152,0.28242,-0.12184,-0.00141,
1.96875,0.26999,-0.62263,0.11801,0.18207,0.50300,0.82111,,,0.95151,0.28244,-0.12188,-0.00141,
1.97656,0.26999,-0.76665,0.01247,0.18595,0.51228,0.82014,,,0.95150,0.28245,-0.12193,-0.00142,
1.98438,0.50993,-0.83866,-0.02271,0.20049,0.51570,0.82933,,,0.95148,0.28249,-0.12199,-0.00144,
1.99219,0.47565,-0.91066,0.15319,0.19662,0.51570,0.82449,,,0.95147,0.28252,-0.12205,-0.00144,
2.00000,0.40710,-0.91066,0.22354,0.19419,0.51326,0.82111,,,0.95145,0.28254,-0.12211,-0.00144,
2.00781,0.54421,-0.80265,0.25872,0.19468,0.52254,0.83175,1021.886,25.1,0.95143,0.28257,-0.12217,-0.00143,
2.01563,0.54421,-1.05468,0.15319,0.18401,0.51619,0.83271,,,0.95141,0.28261,-0.12224,-0.00144,
2.02344,0.40710,-1.09069,0.15319,0.20049,0.52303,0.82788,,,0.95140,0.28263,-0.12232,-0.00145,
2.03125,0.40710,-0.80265,0.18836,0.18692,0.51277,0.82111,,,0.95138,0.28266,-0.12237,-0.00145,
2.03906,0.54421,-0.65863,0.18836,0.19225,0.51180,0.82836,,,0.95137,0.28269,-0.12242,-0.00144,
2.04688,0.40710,-0.80265,0.11801,0.18983,0.51570,0.81869,,,0.95135,0.28272,-0.12247,-0.00145,
2.05469,0.50993,-0.83866,0.15319,0.18837,0.51033,0.81821,,,0.95133,0.28275,-0.12253,-0.00145,
2.06250,0.40710,-0.80265,0.15319,0.19031,0.51326,0.82740,,,0.95132,0.28277,-0.12258,-0.00145,
2.07031,0.50993,-0.73064,0.04765,0.18013,0.50935,0.82256,,,0.95130,0.28281,-0.12263,-0.00146,
2.07813,0.47565,-0.76665,0.15319,0.18741,0.51277,0.81918,,,0.95129,0.28284,-0.12269,-0.00146,
2.08594,0.37282,-0.87466,0.08283,0.18886,0.51668,0.82111,,,0.95127,0.28286,-0.12274,-0.00147,
2.09375,0.61277,-0.73064,0.04765,0.18837,0.52156,0.83271,,,0.95126,0.28290,-0.12279,-0.00147,
2.10156,0.47565,-0.73064,0.04765,0.18595,0.52645,0.82643,,,0.95124,0.28293,-0.12284,-0.00148,
2.10938,0.33854,-0.73064,0.04765,0.19274,0.51277,0.82256,,,0.95123,0.28295,-0.12289,-0.00149,
2.11719,0.47565,-0.80265,0.01247,0.17722,0.50789,0.82449,,,0.95121,0.28298,-0.12294,-0.00150,
2.12500,0.44138,-0.76665,0.04765,0.18934,0.52450,0.82449,,,0.95120,0.28301,-0.12299,-0.00151,
2.13281,0.50993,-0.91066,0.22354,0.19225,0.52010,0.82256,,,0.95118,0.28304,-0.12306,-0.00151,
2.14063,0.33854,-0.80265,0.18836,0.18547,0.50935,0.82353,,,0.95117,0.28306,-0.12311,-0.00151,
2.14844,0.26999,-0.73064,0.18836,0.19080,0.50300,0.82208,,,0.95116,0.28308,-0.12316,-0.00151,
2.15625,0.57849,-0.47861,-0.02271,0.18498,0.51863,0.82594,,,0.95114,0.28311,-0.12319,-0.00151,
2.16406,0.40710,-0.87466,0.08283,0.19080,0.51766,0.82014,,,0.95113,0.28314,-0.12325,-0.00152,
2.17188,0.40710,-0.76665,0.15319,0.19322,0.50447,0.81144,,,0.95111,0.28316,-0.12330,-0.00152,
2.17969,0.50993,-0.58662,0.08283,0.19177,0.51521,0.83223,,,0.95110,0.28320,-0.12334,-0.00152,
2.18750,0.54421,-0.87466,0.11801,0.19710,0.51033,0.82014,,,0.95108,0.28323,-0.12340,-0.00153,
2.19531,0.30427,-0.83866,0.18836,0.19516,0.51473,0.82208,,,0.95107,0.28325,-0.12346,-0.00153,
2.20313,0.50993,-0.83866,0.11801,0.19468,0.51815,0.82353,,,0.95105,0.28328,-0.12352,-0.00153,
2.21094,0.37282,-0.65863,0.08283,0.18450,0.51424,0.83223,,,0.95104,0.28330,-0.12356,-0.00154,
2.21875,0.44138,-0.83866,0.04765,0.19177,0.52010,0.82401,,,0.95102,0.28333,-0.12362,-0.00155,
2.22656,0.26999,-0.73064,0.08283,0.18837,0.50984,0.82498,,,0.95101,0.28335,-0.12367,-0.00155,
2.23438,0.30427,-0.87466,0.18836,0.17868,0.51619,0.82014,,,0.95100,0.28337,-0.12373,-0.00155,
2.24219,0.37282,-0.91066,0.25872,0.19128,0.51424,0.82691,,,0.95098,0.28339,-0.12379,-0.00155,
2.25000,0.33854,-0.83866,0.29390,0.19177,0.50838,0.82256,,,0.95097,0.28341,-0.12385,-0.00155,
2.25781,0.26999,-0.87466,0.25872,0.19225,0.51277,0.81289,,,0.95095,0.28342,-0.12391,-0.00154,
2.26563,0.44138,-0.76665,0.15319,0.18401,0.51082,0.81966,,,0.95094,0.28345,-0.12396,-0.00155,
2.27344,0.33854,-1.01868,0.18836,0.19371,0.51277,0.82353,,,0.95092,0.28347,-0.12403,-0.00155,
2.28125,0.44138,-0.98267,0.15319,0.19565,0.51424,0.81821,,,0.95091,0.28350,-0.12410,-0.00156,
2.28906,0.57849,-0.80265,0.11801,0.19274,0.51375,0.81966,,,0.95089,0.28353,-0.12416,-0.00156,
2.29688,0.44138,-0.91066,0.04765,0.18886,0.52205,0.83417,,,0.95087,0.28356,-0.12422,-0.00157,
2.30469,0.40710,-0.98267,0.11801,0.19225,0.51521,0.81676,,,0.95086,0.28359,-0.12428,-0.00158,
2.31250,0.44138,-0.80265,0.18836,0.18692,0.50984,0.81192,,,0.95084,0.28361,-0.12434,-0.00158,
2.32031,0.54421,-0.55062,-0.05789,0.18062,0.52254,0.83030,,,0.95083,0.28365,-0.12437,-0.00159,
2.32813,0.40710,-0.65863,0.11801,0.18741,0.51863,0.82933,,,0.95081,0.28368,-0.12442,-0.00159,
2.33594,0.54421,-0.91066,0.15319,0.19710,0.51424,0.82353,,,0.95080,0.28371,-0.12448,-0.00159,
2.34375,0.33854,-0.87466,0.18836,0.19031,0.50593,0.82788,,,0.95078,0.28373,-0.12454,-0.00159,
2.35156,0.37282,-0.83866,0.22354,0.19177,0.51815,0.81724,,,0.95077,0.28375,-0.12460,-0.00159,
2.35938,0.47565,-0.73064,0.15319,0.18595,0.51619,0.82111,,,0.95075,0.28378,-0.12465,-0.00159,
2.36719,0.26999,-0.76665,0.18836,0.19225,0.50838,0.81821,,,0.95074,0.28380,-0.12470,-0.00159,
2.37500,0.37282,-0.80265,0.25872,0.18934,0.51131,0.82159,,,0.95073,0.28382,-0.12476,-0.00159,
2.38281,0.44138,-0.94667,0.22354,0.19419,0.51961,0.82304,,,0.95071,0.28385,-0.12482,-0.00159,
2.39063,0.64704,-0.94667,0.11801,0.19128,0.52254,0.83562,,,0.95069,0.28389,-0.12489,-0.00159,
2.39844,0.50993,-0.83866,0.08283,0.18644,0.51082,0.81386,,,0.95067,0.28392,-0.12494,-0.00160,
2.40625,0.47565,-0.76665,0.11801,0.18934,0.50593,0.82304,,,0.95066,0.28395,-0.12500,-0.00160,
2.41406,0.57849,-0.69464,0.04765,0.19080,0.51668,0.82643,,,0.95064,0.28399,-0.12504,-0.00161,
2.42188,0.40710,-0.65863,0.15319,0.18692,0.51717,0.82111,,,0.95063,0.28401,-0.12509,-0.00161,
2.42969,0.33854,-0.69464,0.08283,0.18983,0.51570,0.81144,,,0.95061,0.28403,-0.12513,-0.00161,
2.43750,0.44138,-0.69464,0.08283,0.18062,0.50056,0.83271,,,0.95060,0.28406,-0.12518,-0.00162,
2.44531,0.44138,-0.80265,0.11801,0.19419,0.51082,0.81531,,,0.95058,0.28409,-0.12523,-0.00162,
2.45313,0.47565,-0.80265,0.11801,0.19953,0.52254,0.82594,,,0.95057,0.28412,-0.12529,-0.00163,
2.46094,0.44138,-0.87466,0.15319,0.19322,0.51473,0.82449,,,0.95055,0.28414,-0.12535,-0.00163,
2.46875,0.37282,-1.01868,0.04765,0.19759,0.51570,0.82740,,,0.95054,0.28417,-0.12542,-0.00164,
2.47656,0.54421,-0.91066,0.18836,0.18741,0.51521,0.82304,,,0.95052,0.28420,-0.12548,-0.00164,
2.48438,0.37282,-0.80265,0.04765,0.18886,0.51473,0.82643,,,0.95050,0.28422,-0.12553,-0.00165,
2.49219,0.33854,-0.73064,0.04765,0.18983,0.51619,0.82401,,,0.95049,0.28425,-0.12558,-0.00166,
2.50000,0.37282,-0.91066,0.08283,0.18498,0.51277,0.82159,,,0.95048,0.28427,-0.12564,-0.00167,
2.50781,0.44138,-0.76665,0.15319,0.18692,0.51375,0.81966,,,0.95046,0.28430,-0.12569,-0.00167,
2.51563,0.40710,-0.69464,0.11801,0.18450,0.51815,0.82256,,,0.95045,0.28432,-0.12574,-0.00167,
2.52344,0.47565,-0.98267,0.01247,0.19080,0.51228,0.82933,,,0.95043,0.28435,-0.12580,-0.00169,
2.53125,0.33854,-0.83866,0.11801,0.19371,0.50789,0.82111,,,0.95041,0.28437,-0.12586,-0.00169,
2.53906,0.50993,-0.80265,0.08283,0.18886,0.51082,0.82208,,,0.95040,0.28440,-0.12591,-0.00170,
2.54688,0.50993,-0.65863,-0.02271,0.18547,0.51326,0.81676,,,0.95038,0.28444,-0.12596,-0.00171,
2.55469,0.44138,-0.80265,0.04765,0.19516,0.52303,0.82643,,,0.95037,0.28447,-0.12601,-0.00172,
2.56250,0.40710,-0.80265,-0.02271,0.19468,0.51082,0.82546,,,0.95035,0.28449,-0.12606,-0.00173,
2.57031,0.40710,-0.73064,0.01247,0.19613,0.50886,0.82401,,,0.95034,0.28452,-0.12611,-0.00174,
2.57813,0.64704,-0.73064,0.01247,0.19177,0.52498,0.83320,,,0.95032,0.28456,-0.12616,-0.00175,
2.58594,0.50993,-0.80265,-0.02271,0.19371,0.52498,0.82933,,,0.95030,0.28459,-0.12621,-0.00176,
2.59375,0.50993,-0.73064,0.01247,0.18692,0.51228,0.82159,,,0.95029,0.28463,-0.12626,-0.00177,
2.60156,0.54421,-0.83866,0.08283,0.18983,0.50398,0.82304,,,0.95027,0.28466,-0.12631,-0.00178,
2.60938,0.61277,-0.73064,-0.05789,0.19128,0.51815,0.81869,,,0.95025,0.28470,-0.12636,-0.00179,
2.61719,0.54421,-0.80265,0.01247,0.19613,0.52205,0.82594,,,0.95023,0.28474,-0.12641,-0.00180,
2.62500,0.40710,-0.91066,0.11801,0.18983,0.50789,0.82159,,,0.95022,0.28476,-0.12647,-0.00181,
2.63281,0.50993,-0.83866,0.18836,0.19080,0.50545,0.82401,,,0.95020,0.28479,-0.12653,-0.00181,
2.64063,0.54421,-0.98267,0.04765,0.19468,0.51815,0.82014,,,0.95018,0.28483,-0.12659,-0.00182,
2.64844,0.47565,-0.80265,-0.02271,0.19613,0.51961,0.82691,,,0.95017,0.28486,-0.12665,-0.00183,
2.65625,0.23571,-0.80265,0.29390,0.19904,0.51131,0.81482,,,0.95015,0.28487,-0.12670,-0.00182,
2.66406,0.33854,-0.83866,0.22354,0.19419,0.51228,0.82740,,,0.95014,0.28489,-0.12676,-0.00182,
2.67188,0.44138,-0.76665,0.08283,0.18789,0.52352,0.83513,,,0.95012,0.28492,-0.12681,-0.00183,
2.67969,0.37282,-0.87466,0.18836,0.19225,0.51766,0.83030,,,0.95011,0.28494,-0.12687,-0.00183,
2.68750,0.23571,-0.94667,0.04765,0.18741,0.51863,0.82208,,,0.95010,0.28496,-0.12694,-0.00184,
2.69531,0.47565,-0.73064,0.08283,0.19128,0.51228,0.82546,,,0.95008,0.28499,-0.12698,-0.00185,
2.70313,0.44138,-0.87466,0.11801,0.19662,0.51521,0.81579,,,0.95007,0.28501,-0.12704,-0.00185,
2.71094,0.23571,-0.76665,-0.02271,0.18741,0.50838,0.82159,,,0.95005,0.28503,-0.12709,-0.00187,
2.71875,0.37282,-0.76665,0.01247,0.19128,0.51424,0.82256,,,0.95004,0.28505,-0.12714,-0.00188,
2.72656,0.40710,-0.83866,0.04765,0.19904,0.51863,0.82885,,,0.95003,0.28508,-0.12720,-0.00189,
2.73438,0.50993,-0.94667,-0.02271,0.19662,0.51180,0.81241,,,0.95001,0.28511,-0.12726,-0.00190,
2.74219,0.40710,-0.65863,-0.05789,0.19662,0.52010,0.82546,,,0.94999,0.28514,-0.12730,-0.00192,
2.75000,0.37282,-0.55062,-0.12824,0.17916,0.52156,0.82691,,,0.94998,0.28516,-0.12733,-0.00193,
2.75781,0.30427,-0.76665,0.01247,0.18837,0.51033,0.82691,,,0.94997,0.28518,-0.12738,-0.00194,
2.76563,0.54421,-0.73064,0.08283,0.19080,0.51180,0.81869,,,0.94995,0.28522,-0.12743,-0.00195,
2.77344,0.54421,-0.55062,-0.02271,0.18110,0.52059,0.82063,,,0.94994,0.28525,-0.12747,-0.00196,
2.78125,0.26999,-0.65863,0.08283,0.18547,0.51570,0.82981,,,0.94993,0.28527,-0.12751,-0.00196,
2.78906,0.44138,-0.69464,0.04765,0.18595,0.51131,0.82788,,,0.94991,0.28530,-0.12756,-0.00197,
2.79688,0.37282,-0.69464,-0.05789,0.18207,0.50984,0.81966,,,0.94990,0.28532,-0.12760,-0.00198,
2.80469,0.33854,-0.69464,0.15319,0.19031,0.52108,0.82208,,,0.94989,0.28534,-0.12765,-0.00198,
2.81250,0.33854,-0.94667,0.11801,0.18692,0.52401,0.83271,,,0.94987,0.28536,-0.12771,-0.00199,
2.82031,0.33854,-0.91066,0.11801,0.18886,0.51326,0.82159,,,0.94986,0.28538,-0.12777,-0.00200,
2.82813,0.37282,-0.69464,0.11801,0.18789,0.50984,0.82353,,,0.94984,0.28541,-0.12782,-0.00200,
2.83594,0.57849,-0.80265,-0.02271,0.18983,0.52889,0.83610,,,0.94982,0.28544,-0.12787,-0.00201,
2.84375,0.57849,-0.83866,0.15319,0.19225,0.52108,0.82740,,,0.94981,0.28548,-0.12793,-0.00201,
2.85156,0.50993,-0.91066,-0.05789,0.19807,0.50642,0.82208,,,0.94979,0.28551,-0.12799,-0.00203,
2.85938,0.57849,-0.55062,0.01247,0.17965,0.50496,0.81869,,,0.94977,0.28555,-0.12802,-0.00204,
2.86719,0.47565,-0.55062,-0.02271,0.18595,0.52254,0.82546,,,0.94976,0.28558,-0.12806,-0.00204,
2.87500,0.50993,-0.69464,0.11801,0.18207,0.51766,0.83320,,,0.94974,0.28561,-0.12811,-0.00205,
2.88281,0.44138,-0.87466,0.01247,0.19031,0.50886,0.81869,,,0.94973,0.28564,-0.12816,-0.00206,
2.89063,0.54421,-0.73064,0.08283,0.17965,0.50935,0.82885,,,0.94971,0.28568,-0.12821,-0.00206,
2.89844,0.68132,-0.73064,-0.02271,0.17965,0.51961,0.82836,,,0.94969,0.28572,-0.12826,-0.00207,
2.90625,0.33854,-0.91066,0.15319,0.18837,0.51424,0.81724,,,0.94967,0.28574,-0.12832,-0.00208,
2.91406,0.26999,-0.80265,0.25872,0.18886,0.51082,0.81869,,,0.94966,0.28576,-0.12838,-0.00207,
2.92188,0.40710,-0.80265,0.15319,0.18741,0.51375,0.83175,,,0.94965,0.28578,-0.12843,-0.00207,
2.92969,0.44138,-0.80265,0.15319,0.18983,0.51766,0.82546,,,0.94963,0.28581,-0.12849,-0.00208,
2.93750,0.33854,-0.83866,0.15319,0.19225,0.51766,0.82353,,,0.94962,0.28583,-0.12855,-0.00208,
2.94531,0.40710,-0.98267,0.18836,0.19031,0.52010,0.82063,,,0.94960,0.28585,-0.12861,-0.00208,
2.95313,0.44138,-0.98267,0.15319,0.19322,0.51619,0.82788,,,0.94958,0.28588,-0.12868,-0.00209,
2.96094,0.61277,-0.91066,0.04765,0.19371,0.52694,0.82885,,,0.94956,0.28592,-0.12874,-0.00210,
2.96875,0.57849,-0.76665,0.04765,0.18207,0.51863,0.82498,,,0.94955,0.28596,-0.12879,-0.00211,
2.97656,0.54421,-0.55062,0.11801,0.18741,0.50838,0.82208,,,0.94953,0.28599,-0.12883,-0.00210,
2.98438,0.57849,-0.65863,-0.05789,0.18401,0.51375,0.82353,,,0.94951,0.28603,-0.12887,-0.00211,
2.99219,0.61277,-0.83866,-0.02271,0.19128,0.51375,0.81676,,,0.94949,0.28607,-0.12892,-0.00213,
3.00000,0.50993,-0.58662,0.01247,0.18304,0.52156,0.82449,,,0.94948,0.28610,-0.12896,-0.00213,
3.00781,0.40710,-0.69464,0.01247,0.18353,0.50789,0.82353,1021.868,25.1,0.94947,0.28613,-0.12901,-0.00214,
3.01563,0.50993,-1.01868,0.01247,0.19710,0.51424,0.82256,,,0.94945,0.28616,-0.12907,-0.00216,
3.02344,0.57849,-0.69464,0.01247,0.19468,0.51717,0.81821,,,0.94943,0.28620,-0.12912,-0.00216,
3.03125,0.57849,-0.69464,-0.05789,0.18837,0.52108,0.82836,,,0.94941,0.28623,-0.12916,-0.00218,
3.03906,0.40710,-0.73064,0.08283,0.18547,0.52596,0.82885,,,0.94940,0.28626,-0.12921,-0.00218,
3.04688,0.26999,-0.91066,-0.02271,0.19807,0.51473,0.81869,,,0.94938,0.28628,-0.12927,-0.00220,
3.05469,0.47565,-0.87466,0.08283,0.18547,0.50740,0.81772,,,0.94937,0.28631,-0.12933,-0.00221,
3.06250,0.37282,-0.69464,0.08283,0.18547,0.50935,0.81869,,,0.94935,0.28633,-0.12937,-0.00221,
3.07031,0.40710,-0.73064,0.11801,0.18983,0.51277,0.82981,,,0.94934,0.28636,-0.12942,-0.00221,
3.07813,0.30427,-0.87466,0.18836,0.19128,0.51033,0.81676,,,0.94933,0.28637,-0.12948,-0.00222,
3.08594,0.47565,-0.73064,0.04765,0.18934,0.51228,0.82594,,,0.94931,0.28640,-0.12953,-0.00222,
3.09375,0.57849,-0.65863,0.01247,0.18547,0.51717,0.82546,,,0.94929,0.28644,-0.12958,-0.00223,
3.10156,0.40710,-0.73064,-0.02271,0.18644,0.51424,0.81869,,,0.94928,0.28647,-0.12962,-0.00224,
3.10938,0.40710,-0.83866,0.15319,0.18837,0.50398,0.81918,,,0.94926,0.28649,-0.12968,-0.00225,
3.11719,0.57849,-0.58662,0.01247,0.18741,0.51033,0.82063,,,0.94925,0.28653,-0.12972,-0.00225,
3.12500,0.61277,-0.69464,-0.09307,0.18837,0.52840,0.83320,,,0.94923,0.28657,-0.12976,-0.00227,
3.13281,0.47565,-0.98267,0.01247,0.19807,0.52303,0.82885,,,0.94921,0.28660,-0.12982,-0.00228,
3.14063,0.26999,-0.73064,0.11801,0.18110,0.50642,0.82159,,,0.94920,0.28662,-0.12987,-0.00228,
3.14844,0.54421,-0.73064,0.11801,0.18062,0.50349,0.82208,,,0.94918,0.28665,-0.12992,-0.00229,
3.15625,0.54421,-0.73064,0.11801,0.18450,0.51912,0.83030,,,0.94916,0.28668,-0.12997,-0.00229,
3.16406,0.40710,-0.76665,0.22354,0.19080,0.51863,0.82208,,,0.94915,0.28671,-0.13003,-0.00228,
3.17188,0.33854,-0.83866,0.01247,0.18110,0.51228,0.82304,,,0.94914,0.28673,-0.13008,-0.00230,
3.17969,0.47565,-0.73064,0.18836,0.18789,0.50789,0.82063,,,0.94912,0.28676,-0.13013,-0.00230,
3.18750,0.54421,-0.94667,0.15319,0.19468,0.51863,0.82788,,,0.94910,0.28679,-0.13020,-0.00230,
3.19531,0.40710,-0.80265,0.15319,0.19274,0.51863,0.82788,,,0.94909,0.28682,-0.13025,-0.00230,
3.20313,0.37282,-0.76665,0.25872,0.18837,0.51619,0.83030,,,0.94907,0.28684,-0.13031,-0.00230,
3.21094,0.26999,-0.94667,0.15319,0.19953,0.52205,0.82740,,,0.94906,0.28686,-0.13037,-0.00230,
3.21875,0.57849,-1.01868,0.08283,0.19565,0.51766,0.81966,,,0.94904,0.28689,-0.13044,-0.00231,
3.22656,0.37282,-0.91066,0.15319,0.19031,0.51521,0.82014,,,0.94902,0.28691,-0.13050,-0.00232,
3.23438,0.33854,-0.76665,0.22354,0.19080,0.51473,0.82885,,,0.94901,0.28693,-0.13055,-0.00231,
3.24219,0.44138,-0.94667,0.22354,0.19662,0.51863,0.83755,,,0.94899,0.28696,-0.13062,-0.00231,
3.25000,0.37282,-0.98267,0.11801,0.19274,0.51082,0.81531,,,0.94898,0.28698,-0.13069,-0.00232,
3.25781,0.30427,-0.76665,0.25872,0.18644,0.51961,0.82594,,,0.94896,0.28700,-0.13074,-0.00232,
3.26563,0.33854,-0.87466,0.25872,0.19128,0.50740,0.82643,,,0.94895,0.28702,-0.13080,-0.00232,
3.27344,0.26999,-1.05468,0.39944,0.19856,0.50935,0.82740,,,0.94893,0.28703,-0.13088,-0.00231,
3.28125,0.26999,-0.94667,0.22354,0.18692,0.51326,0.81918,,,0.94892,0.28705,-0.13094,-0.00231,
3.28906,0.33854,-0.98267,0.25872,0.19080,0.51131,0.81821,,,0.94891,0.28707,-0.13101,-0.00231,
3.29688,0.47565,-1.05468,0.32908,0.18692,0.51863,0.83223,,,0.94889,0.28710,-0.13109,-0.00230,
3.30469,0.30427,-1.12669,0.25872,0.19274,0.51131,0.82159,,,0.94887,0.28711,-0.13117,-0.00231,
3.31250,0.33854,-1.01868,0.18836,0.19468,0.51766,0.82546,,,0.94886,0.28713,-0.13124,-0.00231,
3.32031,0.47565,-0.80265,0.18836,0.18983,0.52498,0.82063,,,0.94884,0.28716,-0.13129,-0.00231,
3.32813,0.30427,-0.98267,0.22354,0.19371,0.52450,0.83417,,,0.94882,0.28718,-0.13136,-0.00231,
3.33594,0.33854,-0.94667,0.15319,0.19322,0.50984,0.81434,,,0.94881,0.28720,-0.13142,-0.00232,
3.34375,0.40710,-0.83866,0.22354,0.18934,0.50886,0.82691,,,0.94879,0.28722,-0.13148,-0.00232,
3.35156,0.50993,-0.80265,0.11801,0.18837,0.52401,0.82449,,,0.94878,0.28726,-0.13154,-0.00232,
3.35938,0.33854,-0.98267,0.11801,0.19662,0.51961,0.82208,,,0.94876,0.28728,-0.13160,-0.00233,
3.36719,0.37282,-0.94667,0.25872,0.18983,0.50886,0.81966,,,0.94875,0.28730,-0.13167,-0.00233,
3.37500,0.23571,-0.98267,0.22354,0.18837,0.51033,0.82691,,,0.94873,0.28731,-0.13174,-0.00233,
3.38281,0.47565,-1.05468,0.18836,0.19225,0.52352,0.82788,,,0.94871,0.28734,-0.13181,-0.00233,
3.39063,0.23571,-0.76665,0.15319,0.18983,0.51912,0.82836,,,0.94870,0.28735,-0.13186,-0.00234,
3.39844,0.40710,-0.83866,0.04765,0.19759,0.51668,0.82401,,,0.94869,0.28738,-0.13192,-0.00235,
3.40625,0.47565,-0.83866,0.18836,0.18401,0.51228,0.83175,,,0.94867,0.28741,-0.13197,-0.00235,
3.41406,0.68132,-0.73064,-0.02271,0.19371,0.52596,0.83465,,,0.94865,0.28745,-0.13202,-0.00236,
3.42188,0.33854,-0.83866,0.08283,0.19613,0.52498,0.82933,,,0.94864,0.28747,-0.13208,-0.00236,
3.42969,0.23571,-0.51461,0.04765,0.18207,0.50886,0.81386,,,0.94863,0.28749,-0.13211,-0.00237,
3.43750,0.47565,-0.44260,0.01247,0.17577,0.50642,0.82836,,,0.94861,0.28752,-0.13214,-0.00237,
3.44531,0.61277,-0.62263,0.01247,0.18789,0.51424,0.82885,,,0.94860,0.28756,-0.13218,-0.00238,
3.45313,0.40710,-0.76665,0.11801,0.18983,0.51521,0.82159,,,0.94858,0.28758,-0.13223,-0.00238,
3.46094,0.33854,-0.91066,0.11801,0.18353,0.50349,0.82401,,,0.94857,0.28760,-0.13229,-0.00239,
3.46875,0.44138,-0.94667,0.08283,0.19371,0.51619,0.82981,,,0.94855,0.28763,-0.13236,-0.00240,
3.47656,0.61277,-0.80265,0.04765,0.19662,0.50935,0.81289,,,0.94853,0.28767,-0.13241,-0.00241,
3.48438,0.33854,-0.76665,0.15319,0.19516,0.51668,0.82498,,,0.94852,0.28769,-0.13246,-0.00241,
3.49219,0.40710,-0.44260,0.11801,0.18401,0.51424,0.82546,,,0.94850,0.28772,-0.13249,-0.00241,
3.50000,0.47565,-0.80265,0.08283,0.19031,0.50984,0.82885,,,0.94849,0.28775,-0.13255,-0.00241,
3.50781,0.57849,-0.94667,-0.09307,0.19710,0.52645,0.82691,,,0.94847,0.28778,-0.13261,-0.00243,
3.51563,0.37282,-0.69464,-0.02271,0.18498,0.51619,0.81289,,,0.94845,0.28781,-0.13265,-0.00244,
3.52344,0.54421,-0.87466,0.08283,0.18401,0.50642,0.82063,,,0.94844,0.28784,-0.13271,-0.00245,
3.53125,0.54421,-0.87466,0.08283,0.18886,0.52010,0.82691,,,0.94842,0.28788,-0.13277,-0.00246,
3.53906,0.37282,-0.65863,0.11801,0.18062,0.51131,0.81966,,,0.94840,0.28790,-0.13281,-0.00246,
3.54688,0.44138,-0.76665,0.22354,0.18401,0.51521,0.82014,,,0.94839,0.28793,-0.13286,-0.00246,
3.55469,0.33854,-0.76665,0.25872,0.18110,0.51228,0.82304,,,0.94837,0.28795,-0.13292,-0.00245,
3.56250,0.33854,-1.01868,0.04765,0.19468,0.50496,0.81627,,,0.94836,0.28797,-0.13299,-0.00246,
3.57031,0.37282,-0.94667,0.18836,0.18837,0.51570,0.81772,,,0.94834,0.28799,-0.13305,-0.00247,
3.57813,0.54421,-0.83866,0.04765,0.19419,0.52303,0.83465,,,0.94832,0.28802,-0.13311,-0.00248,
3.58594,0.44138,-1.16270,0.25872,0.19759,0.52352,0.82594,,,0.94831,0.28805,-0.13319,-0.00248,
3.59375,0.40710,-1.12669,0.18836,0.18741,0.51228,0.82353,,,0.94829,0.28807,-0.13326,-0.00248,
3.60156,0.33854,-0.87466,0.18836,0.18304,0.50935,0.82014,,,0.94827,0.28809,-0.13332,-0.00249,
3.60938,0.40710,-0.87466,0.29390,0.18401,0.52010,0.82304,,,0.94826,0.28812,-0.13339,-0.00248,
3.61719,0.30427,-0.98267,0.18836,0.18741,0.52010,0.82401,,,0.94824,0.28814,-0.13345,-0.00249,
3.62500,0.26999,-1.09069,0.25872,0.18934,0.51277,0.81918,,,0.94823,0.28815,-0.13353,-0.00249,
3.63281,0.13288,-0.76665,0.22354,0.18741,0.50496,0.82401,,,0.94822,0.28816,-0.13358,-0.00249,
3.64063,0.30427,-0.87466,0.11801,0.19031,0.51619,0.81579,,,0.94820,0.28818,-0.13364,-0.00249,
3.64844,0.33854,-0.83866,0.18836,0.18983,0.52254,0.82304,,,0.94819,0.28820,-0.13370,-0.00249,
3.65625,0.16715,-0.80265,0.25872,0.18013,0.51277,0.82159,,,0.94818,0.28820,-0.13376,-0.00249,
3.66406,0.37282,-0.73064,0.22354,0.18692,0.51570,0.82594,,,0.94816,0.28823,-0.13381,-0.00249,
3.67188,0.47565,-0.98267,0.11801,0.19274,0.51863,0.82353,,,0.94815,0.28825,-0.13387,-0.00250,
3.67969,0.40710,-1.05468,0.15319,0.20049,0.51326,0.82788,,,0.94813,0.28828,-0.13394,-0.00250,
3.68750,0.30427,-0.80265,0.11801,0.18450,0.50349,0.82063,,,0.94812,0.28830,-0.13400,-0.00251,
3.69531,0.44138,-0.65863,0.15319,0.17480,0.51815,0.83223,,,0.94810,0.28832,-0.13404,-0.00251,
3.70313,0.61277,-0.73064,0.11801,0.19371,0.51668,0.82643,,,0.94808,0.28836,-0.13409,-0.00251,
3.71094,0.37282,-0.76665,0.18836,0.18450,0.50496,0.82063,,,0.94807,0.28839,-0.13415,-0.00251,
3.71875,0.26999,-0.76665,0.22354,0.18498,0.50740,0.81918,,,0.94806,0.28840,-0.13420,-0.00251,
3.72656,0.47565,-0.91066,0.04765,0.19225,0.51521,0.82546,,,0.94804,0.28843,-0.13426,-0.00252,
3.73438,0.44138,-0.94667,-0.02271,0.18692,0.50984,0.82063,,,0.94802,0.28846,-0.13432,-0.00253,
3.74219,0.47565,-1.05468,0.11801,0.19177,0.51863,0.82111,,,0.94800,0.28849,-0.13439,-0.00254,
3.75000,0.30427,-0.69464,0.32908,0.18595,0.51180,0.82014,,,0.94799,0.28851,-0.13444,-0.00253,
3.75781,0.37282,-1.09069,0.25872,0.19662,0.51961,0.82836,,,0.94797,0.28853,-0.13452,-0.00253,
3.76563,0.40710,-1.09069,0.11801,0.20680,0.52059,0.82304,,,0.94795,0.28855,-0.13459,-0.00254,
3.77344,0.40710,-0.73064,0.25872,0.19322,0.51521,0.82594,,,0.94794,0.28858,-0.13464,-0.00254,
3.78125,0.44138,-0.87466,0.15319,0.18595,0.51766,0.82691,,,0.94792,0.28860,-0.13470,-0.00254,
3.78906,0.40710,-0.98267,0.15319,0.18983,0.51473,0.81869,,,0.94791,0.28863,-0.13477,-0.00255,
3.79688,0.33854,-0.73064,0.11801,0.17965,0.50349,0.82353,,,0.94789,0.28865,-0.13482,-0.00255,
3.80469,0.44138,-0.80265,0.08283,0.18837,0.51082,0.81724,,,0.94788,0.28868,-0.13487,-0.00256,
3.81250,0.50993,-0.73064,0.04765,0.18644,0.51815,0.82981,,,0.94786,0.28871,-0.13492,-0.00256,
3.82031,0.47565,-0.83866,0.11801,0.18983,0.51521,0.82063,,,0.94784,0.28874,-0.13498,-0.00257,
3.82813,0.37282,-1.01868,0.22354,0.18934,0.50251,0.81289,,,0.94783,0.28876,-0.13505,-0.00257,
3.83594,0.44138,-0.69464,0.15319,0.18450,0.50935,0.81386,,,0.94781,0.28879,-0.13510,-0.00257,
3.84375,0.47565,-0.94667,0.18836,0.18934,0.51521,0.82498,,,0.94779,0.28881,-0.13516,-0.00257,
3.85156,0.20143,-0.87466,0.25872,0.19225,0.50740,0.81772,,,0.94778,0.28883,-0.13522,-0.00257,
3.85938,0.30427,-0.80265,0.29390,0.18353,0.50935,0.83175,,,0.94777,0.28884,-0.13528,-0.00256,
3.86719,0.50993,-1.05468,0.25872,0.19371,0.52645,0.83126,,,0.94775,0.28887,-0.13535,-0.00256,
3.87500,0.47565,-1.09069,0.22354,0.18741,0.52596,0.82594,,,0.94773,0.28890,-0.13543,-0.00257,
3.88281,0.26999,-0.76665,0.15319,0.18498,0.51375,0.82256,,,0.94772,0.28892,-0.13548,-0.00257,
3.89063,0.37282,-0.80265,0.15319,0.18450,0.51082,0.83030,,,0.94770,0.28894,-0.13554,-0.00257,
3.89844,0.50993,-0.80265,0.18836,0.18547,0.52254,0.82498,,,0.94768,0.28897,-0.13559,-0.00257,
3.90625,0.40710,-0.73064,0.22354,0.19759,0.52156,0.82256,,,0.94767,0.28899,-0.13564,-0.00257,
3.91406,0.20143,-0.87466,0.15319,0.18450,0.50740,0.81918,,,0.94766,0.28901,-0.13570,-0.00257,
3.92188,0.40710,-0.87466,0.22354,0.18741,0.50593,0.82353,,,0.94764,0.28903,-0.13576,-0.00257,
3.92969,0.47565,-0.91066,0.11801,0.19419,0.50496,0.82256,,,0.94762,0.28906,-0.13582,-0.00258,
3.93750,0.37282,-0.87466,0.18836,0.19225,0.52205,0.82159,,,0.94761,0.28908,-0.13588,-0.00258,
3.94531,0.20143,-0.91066,0.08283,0.17819,0.51766,0.82111,,,0.94760,0.28909,-0.13595,-0.00259,
3.95313,0.33854,-0.87466,0.15319,0.19419,0.51766,0.83417,,,0.94758,0.28911,-0.13600,-0.00259,
3.96094,0.57849,-0.94667,0.11801,0.19322,0.51277,0.82159,,,0.94756,0.28915,-0.13607,-0.00260,
3.96875,0.40710,-0.91066,0.11801,0.19371,0.52645,0.83271,,,0.94754,0.28917,-0.13613,-0.00261,
3.97656,0.33854,-0.69464,0.18836,0.18498,0.51570,0.82691,,,0.94753,0.28919,-0.13618,-0.00260,
3.98438,0.33854,-0.91066,0.22354,0.19031,0.51619,0.82836,,,0.94752,0.28921,-0.13624,-0.00260,
3.99219,0.37282,-0.83866,0.18836,0.19371,0.50984,0.81627,,,0.94750,0.28924,-0.13630,-0.00261,
4.00000,0.40710,-0.91066,0.08283,0.17965,0.50984,0.82256,,,0.94748,0.28926,-0.13636,-0.00261,
4.00781,0.30427,-0.65863,0.22354,0.19177,0.50496,0.82304,1021.907,25.1,0.94747,0.28928,-0.13641,-0.00261,
4.01563,0.26999,-0.91066,0.25872,0.19807,0.50691,0.82063,,,0.94746,0.28929,-0.13647,-0.00261,
4.02344,0.50993,-0.98267,0.11801,0.20146,0.51424,0.82353,,,0.94744,0.28933,-0.13654,-0.00262,
4.03125,0.47565,-0.91066,0.01247,0.18498,0.51717,0.82401,,,0.94742,0.28936,-0.13659,-0.00263,
4.03906,0.44138,-0.73064,-0.02271,0.18256,0.52205,0.83030,,,0.94741,0.28938,-0.13664,-0.00264,
4.04688,0.30427,-0.87466,0.18836,0.19613,0.50593,0.82256,,,0.94739,0.28940,-0.13670,-0.00264,
4.05469,0.54421,-0.87466,0.04765,0.19953,0.51619,0.83030,,,0.94737,0.28944,-0.13676,-0.00265,
4.06250,0.47565,-0.62263,0.08283,0.18595,0.51180,0.82981,,,0.94736,0.28947,-0.13680,-0.00265,
4.07031,0.33854,-0.87466,0.08283,0.18644,0.52303,0.83126,,,0.94734,0.28949,-0.13686,-0.00266,
4.07813,0.33854,-0.98267,0.29390,0.18692,0.50838,0.81966,,,0.94733,0.28951,-0.13693,-0.00266,
4.08594,0.40710,-0.80265,0.18836,0.19080,0.50838,0.82933,,,0.94731,0.28953,-0.13698,-0.00266,
4.09375,0.40710,-0.69464,0.22354,0.19274,0.51473,0.82546,,,0.94730,0.28955,-0.13703,-0.00266,
4.10156,0.40710,-0.73064,0.15319,0.19856,0.52303,0.82594,,,0.94728,0.28958,-0.13708,-0.00266,
4.10938,0.30427,-0.83866,0.08283,0.18547,0.50642,0.82159,,,0.94727,0.28960,-0.13714,-0.00266,
4.11719,0.40710,-0.69464,0.18836,0.18983,0.50789,0.82691,,,0.94725,0.28962,-0.13719,-0.00266,
4.12500,0.61277,-0.76665,-0.02271,0.19419,0.51766,0.82353,,,0.94724,0.28966,-0.13724,-0.00267,
4.13281,0.40710,-0.83866,0.08283,0.19225,0.52156,0.82594,,,0.94722,0.28969,-0.13729,-0.00268,
4.14063,0.37282,-0.91066,0.15319,0.18401,0.50642,0.82256,,,0.94720,0.28971,-0.13735,-0.00269,
4.14844,0.37282,-0.80265,0.08283,0.19225,0.51326,0.83126,,,0.94719,0.28973,-0.13741,-0.00269,
4.15625,0.47565,-0.65863,0.11801,0.19031,0.52108,0.82933,,,0.94717,0.28976,-0.13745,-0.00269,
4.16406,0.40710,-0.94667,0.18836,0.19225,0.52156,0.82063,,,0.94716,0.28979,-0.13752,-0.00270,
4.17188,0.16715,-0.65863,0.22354,0.17722,0.51277,0.82208,,,0.94715,0.28979,-0.13756,-0.00269,
4.17969,0.47565,-0.80265,0.22354,0.18692,0.50886,0.83465,,,0.94713,0.28982,-0.13762,-0.00269,
4.18750,0.50993,-0.58662,0.15319,0.18644,0.52156,0.83126,,,0.94711,0.28985,-0.13766,-0.00269,
4.19531,0.26999,-0.69464,0.36426,0.18741,0.52450,0.82401,,,0.94710,0.28987,-0.13771,-0.00268,
4.20313,0.23571,-0.94667,0.22354,0.18692,0.50642,0.82014,,,0.94709,0.28988,-0.13778,-0.00268,
4.21094,0.33854,-0.94667,0.22354,0.19419,0.50740,0.82740,,,0.94707,0.28990,-0.13784,-0.00268,
4.21875,0.64704,-1.09069,0.15319,0.19468,0.51619,0.82256,,,0.94705,0.28994,-0.13792,-0.00268,
4.22656,0.23571,-0.69464,0.15319,0.18401,0.51668,0.82353,,,0.94704,0.28995,-0.13797,-0.00269,
4.23438,0.47565,-0.94667,0.18836,0.19759,0.52498,0.83078,,,0.94702,0.28998,-0.13803,-0.00269,
4.24219,0.50993,-0.83866,0.08283,0.19613,0.50886,0.82449,,,0.94700,0.29002,-0.13809,-0.00269,
4.25000,0.54421,-0.83866,0.04765,0.19468,0.51815,0.81966,,,0.94698,0.29005,-0.13814,-0.00270,
4.25781,0.33854,-0.65863,0.08283,0.17965,0.52108,0.81772,,,0.94697,0.29007,-0.13819,-0.00271,
4.26563,0.44138,-0.87466,0.04765,0.18547,0.51424,0.83223,,,0.94696,0.29010,-0.13824,-0.00272,
4.27344,0.50993,-0.69464,0.15319,0.18837,0.51375,0.82933,,,0.94694,0.29013,-0.13829,-0.00272,
4.28125,0.40710,-0.76665,0.22354,0.18644,0.51424,0.80999,,,0.94692,0.29015,-0.13835,-0.00271,
4.28906,0.40710,-0.69464,0.29390,0.17674,0.51961,0.81337,,,0.94691,0.29018,-0.13840,-0.00270,
4.29688,0.40710,-0.91066,0.22354,0.18595,0.51131,0.82401,,,0.94689,0.29020,-0.13846,-0.00270,
4.30469,0.26999,-1.12669,0.29390,0.19710,0.50398,0.81627,,,0.94688,0.29022,-0.13854,-0.00270,
4.31250,0.40710,-0.98267,0.18836,0.18692,0.50984,0.82063,,,0.94686,0.29024,-0.13860,-0.00271,
4.32031,0.61277,-0.91066,0.15319,0.19128,0.52792,0.83417,,,0.94684,0.29028,-0.13867,-0.00271,
4.32813,0.37282,-0.87466,0.22354,0.18692,0.51717,0.83320,,,0.94682,0.29030,-0.13873,-0.00271,
4.33594,0.26999,-1.01868,0.32908,0.19710,0.50886,0.82111,,,0.94681,0.29031,-0.13880,-0.00271,
4.34375,0.44138,-0.76665,0.15319,0.18741,0.50496,0.82788,,,0.94679,0.29034,-0.13885,-0.00271,
4.35156,0.50993,-0.62263,0.08283,0.18886,0.52254,0.82933,,,0.94678,0.29037,-0.13889,-0.00271,
4.35938,0.44138,-0.87466,0.18836,0.19613,0.52010,0.82208,,,0.94676,0.29040,-0.13895,-0.00271,
4.36719,0.40710,-0.80265,0.11801,0.18450,0.51424,0.82014,,,0.94674,0.29042,-0.13901,-0.00271,
4.37500,0.40710,-0.65863,0.08283,0.18304,0.50642,0.82546,,,0.94673,0.29045,-0.13905,-0.00272,
4.38281,0.40710,-0.69464,0.15319,0.18644,0.51424,0.81966,,,0.94671,0.29047,-0.13910,-0.00272,
4.39063,0.30427,-0.80265,0.15319,0.19613,0.51570,0.82159,,,0.94670,0.29049,-0.13916,-0.00272,
4.39844,0.23571,-0.94667,0.22354,0.19128,0.50740,0.82208,,,0.94669,0.29050,-0.13922,-0.00272,
4.40625,0.33854,-0.83866,0.29390,0.18644,0.50691,0.82111,,,0.94667,0.29052,-0.13928,-0.00272,
4.41406,0.57849,-0.80265,0.18836,0.19177,0.52547,0.83175,,,0.94665,0.29056,-0.13934,-0.00272,
4.42188,0.40710,-0.98267,0.25872,0.20389,0.52254,0.82933,,,0.94664,0.29058,-0.13940,-0.00272,
4.42969,0.37282,-0.83866,0.18836,0.18498,0.50447,0.82256,,,0.94662,0.29060,-0.13946,-0.00272,
4.43750,0.54421,-0.69464,0.15319,0.18741,0.50935,0.83078,,,0.94660,0.29064,-0.13951,-0.00272,
4.44531,0.61277,-0.80265,0.04765,0.19516,0.52547,0.83030,,,0.94658,0.29068,-0.13956,-0.00272,
4.45313,0.47565,-0.55062,0.04765,0.18547,0.51131,0.82063,,,0.94657,0.29071,-0.13960,-0.00273,
4.46094,0.44138,-0.65863,0.15319,0.19177,0.51033,0.81676,,,0.94655,0.29073,-0.13964,-0.00272,
4.46875,0.54421,-0.55062,0.15319,0.18110,0.50398,0.82546,,,0.94654,0.29077,-0.13968,-0.00272,
4.47656,0.57849,-0.91066,0.18836,0.19613,0.51082,0.81676,,,0.94652,0.29080,-0.13975,-0.00272,
4.48438,0.40710,-0.76665,0.15319,0.18692,0.51131,0.81627,,,0.94650,0.29083,-0.13980,-0.00272,
4.49219,0.30427,-0.91066,0.18836,0.18886,0.51766,0.82401,,,0.94649,0.29085,-0.13986,-0.00273,
4.50000,0.37282,-1.01868,0.32908,0.19710,0.51277,0.81821,,,0.94647,0.29087,-0.13993,-0.00272,
4.50781,0.40710,-0.94667,0.18836,0.19759,0.50984,0.82208,,,0.94645,0.29089,-0.14000,-0.00272,
4.51563,0.30427,-0.87466,0.18836,0.19710,0.51473,0.82836,,,0.94644,0.29091,-0.14006,-0.00273,
4.52344,0.37282,-0.98267,0.25872,0.18256,0.51619,0.83271,,,0.94642,0.29093,-0.14013,-0.00273,
4.53125,0.40710,-0.94667,0.39944,0.18644,0.51570,0.81821,,,0.94641,0.29095,-0.14020,-0.00271,
4.53906,0.37282,-0.83866,0.29390,0.17771,0.50984,0.82256,,,0.94639,0.29097,-0.14026,-0.00271,
4.54688,0.37282,-1.01868,0.15319,0.18886,0.51570,0.81869,,,0.94637,0.29099,-0.14032,-0.00272,
4.55469,0.37282,-0.98267,0.18836,0.19371,0.50984,0.82933,,,0.94636,0.29102,-0.14039,-0.00272,
4.56250,0.33854,-0.94667,0.25872,0.18741,0.51277,0.82353,,,0.94634,0.29104,-0.14046,-0.00272,
4.57031,0.30427,-0.94667,0.39944,0.18644,0.50740,0.82353,,,0.94633,0.29105,-0.14053,-0.00271,
4.57813,0.30427,-0.76665,0.32908,0.17965,0.50984,0.81289,,,0.94631,0.29107,-0.14058,-0.00270,
4.58594,0.47565,-0.98267,0.29390,0.19807,0.52205,0.82643,,,0.94629,0.29110,-0.14065,-0.00270,
4.59375,0.26999,-0.98267,0.32908,0.19468,0.51375,0.81821,,,0.94628,0.29111,-0.14072,-0.00269,
4.60156,0.30427,-1.01868,0.11801,0.19613,0.50838,0.81821,,,0.94626,0.29113,-0.14079,-0.00270,
4.60938,0.57849,-0.65863,0.04765,0.19128,0.52792,0.83030,,,0.94625,0.29116,-0.14083,-0.00270,
4.61719,0.44138,-0.87466,0.08283,0.19128,0.51961,0.82014,,,0.94623,0.29119,-0.14089,-0.00271,
4.62500,0.30427,-0.73064,0.11801,0.18207,0.50496,0.81869,,,0.94622,0.29121,-0.14094,-0.00272,
4.63281,0.30427,-0.62263,0.11801,0.18886,0.50642,0.83126,,,0.94620,0.29123,-0.14098,-0.00272,
4.64063,0.44138,-0.69464,0.11801,0.18256,0.51766,0.83513,,,0.94619,0.29126,-0.14103,-0.00272,
4.64844,0.33854,-0.62263,0.18836,0.18595,0.51326,0.82111,,,0.94618,0.29128,-0.14107,-0.00272,
4.65625,0.26999,-0.73064,0.15319,0.18595,0.51473,0.82208,,,0.94616,0.29129,-0.14112,-0.00272,
4.66406,0.50993,-0.69464,0.11801,0.18207,0.51180,0.82691,,,0.94615,0.29132,-0.14117,-0.00272,
4.67188,0.47565,-0.80265,0.04765,0.19710,0.52010,0.82449,,,0.94613,0.29135,-0.14122,-0.00273,
4.67969,0.40710,-0.80265,-0.02271,0.19274,0.52059,0.82933,,,0.94611,0.29138,-0.14128,-0.00274,
4.68750,0.20143,-0.87466,0.04765,0.18256,0.51717,0.82159,,,0.94610,0.29139,-0.14133,-0.00276,
4.69531,0.47565,-1.05468,0.08283,0.19904,0.52108,0.82981,,,0.94608,0.29142,-0.14140,-0.00277,
4.70313,0.57849,-1.01868,0.04765,0.20292,0.51473,0.82788,,,0.94606,0.29146,-0.14147,-0.00278,
4.71094,0.47565,-0.98267,0.04765,0.19322,0.51326,0.82208,,,0.94604,0.29149,-0.14153,-0.00279,
4.71875,0.50993,-0.65863,0.04765,0.18547,0.51375,0.82885,,,0.94603,0.29152,-0.14158,-0.00279,
4.72656,0.44138,-0.76665,0.04765,0.18159,0.51326,0.83465,,,0.94601,0.29155,-0.14163,-0.00280,
4.73438,0.54421,-0.76665,0.01247,0.18644,0.52205,0.81918,,,0.94599,0.29158,-0.14168,-0.00281,
4.74219,0.44138,-0.73064,0.11801,0.18207,0.51668,0.82208,,,0.94598,0.29161,-0.14173,-0.00281,
4.75000,0.44138,-0.73064,0.11801,0.19322,0.51180,0.82594,,,0.94596,0.29164,-0.14178,-0.00282,
4.75781,0.33854,-0.98267,0.18836,0.19080,0.51277,0.82740,,,0.94594,0.29166,-0.14184,-0.00282,
4.76563,0.33854,-0.73064,0.11801,0.19225,0.51228,0.81821,,,0.94593,0.29168,-0.14189,-0.00283,
4.77344,0.44138,-0.87466,0.18836,0.18886,0.52108,0.82643,,,0.94591,0.29170,-0.14195,-0.00283,
4.78125,0.40710,-0.65863,0.08283,0.18934,0.52010,0.83271,,,0.94590,0.29173,-0.14200,-0.00283,
4.78906,0.37282,-1.09069,0.32908,0.19565,0.51570,0.82498,,,0.94588,0.29175,-0.14207,-0.00283,
4.79688,0.40710,-0.83866,0.11801,0.19565,0.51570,0.83320,,,0.94586,0.29177,-0.14213,-0.00283,
4.80469,0.33854,-0.65863,0.08283,0.19080,0.51277,0.82449,,,0.94585,0.29180,-0.14217,-0.00284,
4.81250,0.50993,-0.91066,0.08283,0.19953,0.52156,0.83320,,,0.94583,0.29183,-0.14223,-0.00284,
4.82031,0.50993,-0.80265,0.22354,0.19080,0.51717,0.81966,,,0.94581,0.29186,-0.14229,-0.00284,
4.82813,0.44138,-0.69464,0.15319,0.18207,0.50789,0.82014,,,0.94580,0.29188,-0.14234,-0.00284,
4.83594,0.50993,-0.73064,0.01247,0.18256,0.50984,0.81869,,,0.94578,0.29192,-0.14239,-0.00285,
4.84375,0.50993,-0.87466,0.11801,0.20195,0.51863,0.82788,,,0.94576,0.29195,-0.14244,-0.00285,
4.85156,0.33854,-0.76665,0.11801,0.19565,0.51521,0.81434,,,0.94575,0.29197,-0.14250,-0.00286,
4.85938,0.26999,-0.83866,0.15319,0.18547,0.50154,0.82063,,,0.94574,0.29198,-0.14255,-0.00286,
4.86719,0.44138,-0.83866,0.11801,0.18983,0.52059,0.82981,,,0.94572,0.29201,-0.14261,-0.00287,
4.87500,0.54421,-0.91066,0.08283,0.19274,0.52303,0.83078,,,0.94570,0.29205,-0.14267,-0.00288,
4.88281,0.20143,-0.98267,0.15319,0.18983,0.52010,0.82256,,,0.94569,0.29206,-0.14274,-0.00288,
4.89063,0.33854,-0.69464,0.11801,0.17819,0.51570,0.83417,,,0.94567,0.29208,-0.14278,-0.00289,
4.89844,0.37282,-0.87466,0.11801,0.18837,0.52254,0.82256,,,0.94566,0.29210,-0.14284,-0.00289,
4.90625,0.37282,-0.94667,0.11801,0.18353,0.52010,0.82353,,,0.94564,0.29212,-0.14290,-0.00290,
4.91406,0.33854,-0.94667,0.15319,0.18983,0.51717,0.81386,,,0.94562,0.29214,-0.14297,-0.00291,
4.92188,0.26999,-0.94667,0.25872,0.18741,0.50935,0.82740,,,0.94561,0.29216,-0.14304,-0.00291,
4.92969,0.37282,-0.91066,0.15319,0.19031,0.51815,0.82740,,,0.94559,0.29218,-0.14310,-0.00291,
4.93750,0.23571,-0.91066,0.36426,0.18644,0.51375,0.81918,,,0.94558,0.29219,-0.14316,-0.00290,
4.94531,0.09860,-0.83866,0.29390,0.18547,0.51619,0.82256,,,0.94557,0.29219,-0.14322,-0.00290,
4.95313,0.16715,-0.80265,0.32908,0.19322,0.51717,0.82546,,,0.94556,0.29220,-0.14328,-0.00289,
4.96094,0.23571,-0.98267,0.32908,0.18886,0.51033,0.82063,,,0.94554,0.29221,-0.14335,-0.00289,
4.96875,0.09860,-0.91066,0.39944,0.18692,0.51228,0.81821,,,0.94553,0.29222,-0.14342,-0.00288,
4.97656,0.09860,-1.01868,0.32908,0.18886,0.52743,0.82885,,,0.94552,0.29222,-0.14349,-0.00288,
4.98438,-0.03851,-1.12669,0.43462,0.19031,0.52108,0.83078,,,0.94551,0.29221,-0.14357,-0.00287,
4.99219,0.09860,-1.23471,0.39944,0.19759,0.52743,0.82740,,,0.94550,0.29221,-0.14366,-0.00287,
5.00000,0.03004,-1.05468,0.61051,0.18450,0.51277,0.81821,,,0.94549,0.29221,-0.14374,-0.00285,
5.00781,-0.07279,-1.09069,0.54015,0.18498,0.52156,0.82691,1021.900,25.1,0.94548,0.29220,-0.14382,-0.00284,
5.01563,0.20143,-1.73877,0.96230,0.18256,0.50691,0.82208,,,0.94546,0.29220,-0.14395,-0.00281,
5.02344,0.23571,-1.70277,0.85676,0.19128,0.50593,0.82836,,,0.94544,0.29221,-0.14408,-0.00279,
5.03125,0.64704,-1.81078,1.63069,0.17432,0.49372,0.80950,,,0.94541,0.29223,-0.14423,-0.00271,
5.03906,-0.38129,-2.02681,1.10301,0.20777,0.49177,0.80805,,,0.94539,0.29220,-0.14438,-0.00268,
5.04688,-0.00424,-1.66676,0.85676,0.22667,0.49323,0.80080,,,0.94538,0.29219,-0.14450,-0.00266,
5.05469,0.20143,-1.05468,0.54015,0.19662,0.51082,0.82691,,,0.94536,0.29220,-0.14458,-0.00265,
5.06250,0.23571,-1.19870,0.46979,0.18886,0.52010,0.82691,,,0.94535,0.29221,-0.14467,-0.00264,
5.07031,0.20143,-1.01868,0.43462,0.20437,0.51815,0.82788,,,0.94533,0.29222,-0.14474,-0.00263,
5.07813,0.33854,-0.69464,0.32908,0.18450,0.50545,0.82159,,,0.94532,0.29223,-0.14479,-0.00262,
5.08594,0.44138,-0.76665,0.18836,0.18207,0.51033,0.82449,,,0.94530,0.29226,-0.14485,-0.00262,
5.09375,0.26999,-0.76665,0.15319,0.19225,0.51180,0.82788,,,0.94529,0.29228,-0.14490,-0.00262,
5.10156,0.09860,-0.73064,-0.09307,0.19710,0.51668,0.82304,,,0.94528,0.29228,-0.14494,-0.00264,
5.10938,0.03004,-0.55062,-0.12824,0.19662,0.50984,0.81434,,,0.94527,0.29229,-0.14498,-0.00266,
5.11719,0.13288,-0.26258,-0.26896,0.19031,0.50203,0.81821,,,0.94527,0.29230,-0.14499,-0.00268,
5.12500,0.44138,-0.08256,-0.62075,0.20049,0.51082,0.81676,,,0.94526,0.29233,-0.14498,-0.00272,
5.13281,0.30427,-0.19057,-0.62075,0.19662,0.51375,0.82594,,,0.94525,0.29236,-0.14498,-0.00276,
5.14063,0.16715,0.02546,-0.69111,0.18789,0.50984,0.82401,,,0.94525,0.29237,-0.14497,-0.00280,
5.14844,0.16715,0.24149,-0.62075,0.18837,0.51326,0.82449,,,0.94525,0.29239,-0.14494,-0.00283,
5.15625,0.30427,-0.01055,-0.69111,0.18983,0.52889,0.82353,,,0.94524,0.29242,-0.14492,-0.00288,
5.16406,0.23571,0.02546,-0.62075,0.18983,0.52254,0.82594,,,0.94524,0.29244,-0.14491,-0.00291,
5.17188,0.13288,0.52952,-0.72628,0.18837,0.51473,0.82159,,,0.94524,0.29245,-0.14486,-0.00295,
5.17969,0.13288,0.34950,-0.37450,0.17771,0.50251,0.82256,,,0.94524,0.29247,-0.14483,-0.00296,
5.18750,0.37282,-0.01055,-0.40967,0.19516,0.52987,0.82933,,,0.94523,0.29250,-0.14482,-0.00299,
5.19531,0.16715,0.02546,-0.30414,0.23298,0.59044,0.82740,,,0.94523,0.29251,-0.14482,-0.00300,
5.20313,0.23571,0.52952,-0.48003,0.19177,0.52303,0.86366,,,0.94523,0.29253,-0.14477,-0.00302,
5.21094,-0.51840,1.10560,-0.93736,0.18644,0.48395,0.80032,,,0.94525,0.29250,-0.14468,-0.00307,
5.21875,-0.07279,1.21361,-1.21879,0.22813,0.53280,0.82449,,,0.94526,0.29251,-0.14458,-0.00312,
5.22656,-0.51840,1.96971,-1.28914,0.16947,0.50789,0.82740,,,0.94529,0.29249,-0.14443,-0.00317,
5.23438,-0.72407,1.82569,-1.35950,0.19274,0.50593,0.81289,,,0.94533,0.29246,-0.14428,-0.00323,
5.24219,-0.44985,1.93371,-1.42986,0.19080,0.50300,0.82401,,,0.94535,0.29244,-0.14413,-0.00329,
5.25000,-0.27846,2.04172,-1.53540,0.18692,0.50789,0.82691,,,0.94538,0.29244,-0.14397,-0.00335,
5.25781,-0.31274,1.96971,-1.60575,0.19031,0.51473,0.81821,,,0.94540,0.29244,-0.14381,-0.00341,
5.26563,-0.38129,2.14973,-1.78165,0.18886,0.51180,0.81821,,,0.94543,0.29243,-0.14363,-0.00349,
5.27344,0.06432,1.96971,-2.23897,0.17771,0.48542,0.81676,,,0.94545,0.29246,-0.14346,-0.00359,
5.28125,0.09860,2.40177,-2.90737,0.18837,0.48249,0.81627,,,0.94547,0.29249,-0.14325,-0.00373,
5.28906,0.95554,3.48191,-4.20898,0.19371,0.50886,0.81676,,,0.94548,0.29260,-0.14294,-0.00393,
5.29688,1.33260,3.80595,-4.87738,0.19322,0.52645,0.84190,,,0.94549,0.29273,-0.14260,-0.00415,
5.30469,1.36688,3.76995,-4.91256,0.17965,0.48591,0.81192,,,0.94550,0.29287,-0.14226,-0.00438,
5.31250,2.01816,4.02198,-6.10863,0.23152,0.50203,0.82304,,,0.94550,0.29306,-0.14188,-0.00467,
5.32031,1.70966,5.89422,-7.37507,0.21164,0.49519,0.80757,,,0.94552,0.29324,-0.14135,-0.00501,
5.32813,2.42949,7.08238,-8.64151,0.23395,0.52254,0.82353,,,0.94553,0.29348,-0.14072,-0.00541,
5.33594,2.25810,8.99063,-10.15419,0.20195,0.50789,0.83126,,,0.94557,0.29373,-0.13994,-0.00586,
5.34375,1.74394,10.57483,-11.66688,0.20001,0.50496,0.82014,,,0.94563,0.29396,-0.13902,-0.00638,
5.35156,1.70966,12.12303,-12.96849,0.24607,0.51082,0.82981,,,0.94571,0.29420,-0.13798,-0.00696,
5.35938,1.29832,16.26357,-16.48637,0.26837,0.49519,0.81482,,,0.94582,0.29444,-0.13660,-0.00768,
5.36719,1.02410,21.34024,-20.21532,0.23928,0.49470,0.81144,,,0.94599,0.29471,-0.13482,-0.00855,
5.37500,1.33260,23.14047,-22.22051,0.22667,0.49763,0.82256,,,0.94616,0.29501,-0.13288,-0.00951,
5.38281,1.43543,27.13699,-25.70321,0.26255,0.49177,0.82401,,,0.94636,0.29535,-0.13062,-0.01060,
5.39063,2.12099,29.51330,-27.35661,0.24364,0.47711,0.83852,,,0.94656,0.29575,-0.12816,-0.01176,
5.39844,3.93772,32.82573,-31.82431,0.27806,0.47076,0.84239,,,0.94673,0.29631,-0.12541,-0.01311,
5.40625,7.46834,37.83039,-37.76952,0.32896,0.45464,0.83900,,,0.94687,0.29714,-0.12221,-0.01472,
5.41406,10.24484,40.99880,-41.25222,0.36629,0.48346,0.85544,,,0.94695,0.29819,-0.11873,-0.01647,
5.42188,19.39703,51.36815,-50.32834,0.38132,0.46930,0.87575,,,0.94690,0.29990,-0.11441,-0.01852,
5.42969,30.40023,59.61323,-59.89697,0.18110,0.46295,0.91492,,,0.94665,0.30240,-0.10938,-0.02093,
5.43750,34.82207,56.48082,-65.42003,-0.01912,0.48981,0.99277,,,0.94624,0.30521,-0.10443,-0.02373,
5.44531,39.38103,17.70376,-84.41656,-0.05596,0.67641,0.96907,,,0.94539,0.30837,-0.10159,-0.02852,
5.45313,47.98477,-11.35203,-120.43962,0.94416,0.85568,0.94151,,,0.94404,0.31227,-0.09988,-0.03619,
5.46094,48.87599,3.58992,-134.08898,1.32957,0.83761,1.00389,,,0.94264,0.31632,-0.09692,-0.04441,
5.46875,43.90570,50.18000,-160.29716,0.78564,0.81465,0.82208,,,0.94148,0.32033,-0.09036,-0.05333,
5.47656,40.88925,55.83273,-186.36462,0.82103,1.00858,1.05079,,,0.94016,0.32428,-0.08285,-0.06382,
5.48438,33.75946,54.03250,-196.60164,1.03821,0.80635,0.87527,,,0.93877,0.32775,-0.07518,-0.07503,
5.49219,31.59995,59.57722,-213.06531,0.78273,0.93237,1.18667,,,0.93717,0.33113,-0.06676,-0.08716,
5.50000,21.69365,62.70963,-222.70429,0.51464,0.78095,1.26790,,,0.93553,0.33386,-0.05785,-0.09986,
5.50781,13.22702,42.22296,-207.54224,1.43768,0.83614,1.12381,,,0.93388,0.33578,-0.05052,-0.11207,
5.51563,-9.67059,-27.37411,-123.25392,1.50652,0.75799,1.16007,,,0.93304,0.33536,-0.04937,-0.12057,
5.52344,-20.98229,-52.75742,-84.31103,1.61075,0.54403,0.92555,,,0.93262,0.33387,-0.05063,-0.12721,
5.53125,-18.54856,-80.76907,-17.11959,1.79885,0.23190,0.66251,,,0.93260,0.33204,-0.05522,-0.13020,
5.53906,-0.27846,-77.67267,30.30139,1.60833,-0.08805,0.37867,,,0.93257,0.33122,-0.06084,-0.13003,
5.54688,15.93497,-74.54026,48.55917,1.40568,-0.04946,0.45603,,,0.93231,0.33136,-0.06682,-0.12855,
5.55469,37.46146,-80.04898,80.39595,1.06633,0.02771,0.61174,,,0.93178,0.33266,-0.07405,-0.12508,
5.56250,48.01905,-95.81904,106.63931,0.98246,0.10538,0.79742,,,0.93107,0.33434,-0.08296,-0.12023,
5.57031,49.08166,-102.87596,117.96687,0.98149,0.13371,0.85206,,,0.93027,0.33592,-0.09258,-0.11480,
5.57813,44.76265,-103.88409,135.87286,0.96986,0.19722,0.99470,,,0.92959,0.33706,-0.10263,-0.10827,
5.58594,34.85635,-95.99906,150.33133,0.88453,0.22457,1.06772,,,0.92916,0.33748,-0.11241,-0.10069,
5.59375,28.96056,-90.92240,156.03029,0.80357,0.23385,1.09770,,,0.92879,0.33747,-0.12195,-0.09267,
5.60156,15.55791,-83.18139,166.23213,0.57863,0.19868,1.08754,,,0.92872,0.33652,-0.13113,-0.08392,
5.60938,9.59357,-82.13725,170.87573,0.45162,0.19233,1.08706,,,0.92866,0.33510,-0.14030,-0.07490,
5.61719,-0.41557,-85.84574,179.00202,0.27661,0.21138,1.05756,,,0.92868,0.33289,-0.14981,-0.06552,
5.62500,-8.84792,-86.78186,180.65543,0.19904,0.21382,1.00244,,,0.92872,0.33007,-0.15935,-0.05614,
5.63281,-12.24143,-84.29753,177.87630,0.16850,0.23092,0.99035,,,0.92867,0.32700,-0.16863,-0.04690,
5.64063,-18.78850,-74.79230,166.09142,0.07881,0.30273,0.99083,,,0.92869,0.32364,-0.17699,-0.03827,
5.64844,-27.08374,-67.12330,150.43687,-0.03075,0.38381,1.00921,,,0.92881,0.31991,-0.18447,-0.03055,
5.65625,-31.71126,-65.32306,142.27539,-0.06081,0.41605,1.01356,,,0.92892,0.31596,-0.19164,-0.02336,
5.66406,-41.65183,-64.06290,125.88209,-0.05644,0.46099,0.98600,,,0.92914,0.31156,-0.19833,-0.01731,
5.67188,-50.46124,-60.93049,111.56433,-0.02833,0.47467,0.90283,,,0.92948,0.30677,-0.20449,-0.01222,
5.67969,-52.89497,-58.59018,106.14680,-0.02057,0.48200,0.85738,,,0.92982,0.30188,-0.21037,-0.00746,
5.68750,-54.78025,-52.54139,100.65892,0.05021,0.52889,0.74519,,,0.93021,0.29692,-0.21573,-0.00294,
5.69531,-52.17514,-37.92349,100.86999,0.22861,0.55283,0.58998,,,0.93070,0.29211,-0.22016,0.00192,
5.70313,-48.78163,-25.10582,101.64392,0.30036,0.54794,0.51213,,,0.93125,0.28749,-0.22378,0.00714,
5.71094,-35.41326,6.75834,105.30251,0.33236,0.58018,0.44491,,,0.93197,0.28362,-0.22542,0.01341,
5.71875,-27.28941,22.63640,108.82039,0.29503,0.59484,0.43621,,,0.93272,0.28019,-0.22611,0.02034,
5.72656,-8.47087,45.85943,120.49974,0.14474,0.66176,0.46957,,,0.93338,0.27772,-0.22550,0.02875,
5.73438,10.34768,55.61670,136.08393,0.00755,0.86985,0.60255,,,0.93373,0.27616,-0.22450,0.03862,
5.74219,16.58625,57.59696,143.85844,-0.04384,1.05352,0.69926,,,0.93386,0.27485,-0.22348,0.04911,
5.75000,15.83214,64.47386,154.37689,-0.19558,1.33976,0.80370,,,0.93397,0.27327,-0.22220,0.06039,
5.75781,6.23434,72.79094,153.07527,-0.53493,1.48924,0.76889,,,0.93426,0.27104,-0.22038,0.07158,
5.76563,0.03004,74.73520,145.89881,-0.76763,1.53418,0.70313,,,0.93462,0.26847,-0.21830,0.08225,
5.77344,-11.79582,68.25435,117.50954,-1.18455,1.55714,0.52421,,,0.93515,0.26557,-0.21615,0.09080,
5.78125,-21.39362,51.72820,73.71198,-1.37362,1.71638,0.50245,,,0.93582,0.26280,-0.21431,0.09612,
5.78906,-28.31775,42.51100,49.19238,-1.39883,1.81505,0.48360,,,0.93662,0.26000,-0.21266,0.09960,
5.79688,-44.83968,26.95697,1.48998,-1.37168,1.82384,0.33273,,,0.93779,0.25693,-0.21126,0.09952,
5.80469,-54.67742,15.68750,-40.47829,-1.21364,1.64408,0.17268,,,0.93924,0.25391,-0.20991,0.09642,
5.81250,-52.51792,12.05103,-57.53999,-1.07935,1.55079,-0.16919,,,0.94068,0.25130,-0.20848,0.09219,
5.82031,-36.37304,12.01502,-80.93387,-0.73515,1.47800,-0.36502,,,0.94197,0.25004,-0.20655,0.08668,
5.82813,-24.61574,15.79551,-85.64782,-0.57905,1.52245,-0.37131,,,0.94310,0.24957,-0.20422,0.08110,
5.83594,-4.49463,25.87683,-78.47135,-0.36768,1.61673,-0.27121,,,0.94395,0.25023,-0.20124,0.07643,
5.84375,7.87967,32.46569,-51.06710,-0.26393,1.63822,-0.15855,,,0.94452,0.25127,-0.19823,0.07380,
5.85156,11.03324,35.63410,-32.95003,-0.23339,1.56007,-0.17160,,,0.94497,0.25225,-0.19532,0.07244,
5.85938,27.89794,57.81299,-13.39064,0.80212,0.70767,-1.12708,,,0.94532,0.25394,-0.19122,0.07294,
5.86719,114.72376,140.76780,-124.16857,-0.69831,-2.10937,-2.66185,,,0.94568,0.26222,-0.17941,0.06887,
5.87500,213.75250,129.82238,-193.11895,-0.79090,1.58889,1.72969,,,0.94413,0.27769,-0.16654,0.06134,
5.88281,193.39145,164.60291,-229.14200,5.15457,6.06284,6.08495,,,0.94304,0.29198,-0.15077,0.05189,
5.89063,-60.26471,123.88160,-3.11844,-2.07996,0.19087,0.02762,,,0.94548,0.28769,-0.14294,0.05353,
5.89844,-35.96171,108.14755,11.02342,-3.59978,-1.18322,-1.02699,,,0.94718,0.28486,-0.13630,0.05600,
5.90625,38.42124,16.98367,-22.95926,-1.70861,1.46579,3.87516,,,0.94667,0.28748,-0.13461,0.05521,
5.91406,-48.88446,-23.91766,-23.97945,2.06306,-1.07233,-0.29055,,,0.94749,0.28463,-0.13587,0.05274,
5.92188,44.69409,-2.63889,-23.45177,2.33212,1.19517,1.13735,,,0.94668,0.28775,-0.13543,0.05159,
5.92969,9.28506,37.83039,-1.35950,-0.66292,0.59972,0.48553,,,0.94685,0.28823,-0.13292,0.05233,
5.93750,15.11230,27.17300,-16.27530,-0.58584,1.44723,1.36461,,,0.94685,0.28925,-0.13079,0.05195,
5.94531,-22.69618,5.64219,-14.27011,0.53452,0.79462,0.64800,,,0.94740,0.28789,-0.13023,0.05094,
5.95313,-13.20121,13.02315,1.80659,0.05894,0.26707,0.85738,,,0.94777,0.28698,-0.12947,0.05119,
5.96094,-7.95670,7.87448,-1.99272,0.13505,0.26511,0.88059,,,0.94800,0.28645,-0.12895,0.05115,
5.96875,-2.50652,9.13464,-9.62651,0.22134,0.58653,0.77517,,,0.94816,0.28635,-0.12818,0.05068,
5.97656,-0.82690,7.04637,-7.51579,0.09481,0.73112,0.82498,,,0.94826,0.28633,-0.12758,0.05033,
5.98438,-0.89546,5.03011,-7.79722,0.18353,0.66811,0.82885,,,0.94835,0.28633,-0.12710,0.04991,
5.99219,0.50993,6.43429,-7.33989,0.01918,0.52694,0.85931,,,0.94842,0.28640,-0.12654,0.04957,
6.00000,4.48616,1.50165,-5.05327,0.09966,0.46392,0.83465,,,0.94836,0.28673,-0.12633,0.04931,
6.00781,6.09722,1.46565,-3.99791,0.08463,0.47272,0.82401,1021.848,25.1,0.94827,0.28715,-0.12614,0.04913,
6.01563,7.67401,-0.51461,-2.66112,0.14087,0.64710,0.88494,,,0.94813,0.28767,-0.12609,0.04901,
6.02344,7.50262,-2.85492,-1.42986,0.24267,0.66322,0.95505,,,0.94796,0.28818,-0.12622,0.04893,
6.03125,6.33717,-2.49487,0.29390,0.06136,0.48493,0.97439,,,0.94781,0.28860,-0.12637,0.04895,
6.03906,7.81112,-7.42751,0.96230,0.22086,0.43852,0.81482,,,0.94759,0.28912,-0.12684,0.04894,
6.04688,10.45051,-5.98733,1.13819,0.13893,0.51570,0.81241,,,0.94733,0.28980,-0.12721,0.04898,
6.05469,11.61596,-7.21149,1.34926,0.16850,0.59874,0.82546,,,0.94703,0.29056,-0.12767,0.04903,
6.06250,8.66806,-6.70742,1.45480,0.19807,0.56015,0.80273,,,0.94680,0.29113,-0.12810,0.04907,
6.07031,7.39978,-5.91532,0.89194,0.16462,0.49177,0.76550,,,0.94660,0.29162,-0.12847,0.04907,
6.07813,7.77684,-5.80730,-0.12824,0.20001,0.43169,0.72198,,,0.94639,0.29215,-0.12882,0.04901,
6.08594,9.25079,-4.25910,-2.02790,0.14814,0.47027,0.79113,,,0.94618,0.29277,-0.12902,0.04888,
6.09375,8.66806,-4.61915,-2.59076,0.19177,0.48786,0.78146,,,0.94597,0.29337,-0.12924,0.04870,
6.10156,7.19412,-3.46700,-3.04808,0.21940,0.53280,0.78194,,,0.94581,0.29387,-0.12938,0.04849,
6.10938,7.22839,-0.69464,-4.27934,0.13117,0.57676,0.79983,,,0.94567,0.29438,-0.12931,0.04827,
6.11719,6.71423,-2.45887,-4.31452,0.19759,0.55185,0.75873,,,0.94553,0.29486,-0.12936,0.04800,
6.12500,4.96605,-1.70277,-3.25915,0.17771,0.51375,0.85012,,,0.94542,0.29521,-0.12939,0.04780,
6.13281,4.10911,-1.27071,-3.29433,0.12681,0.51961,0.86511,,,0.94534,0.29551,-0.12939,0.04760,
6.14063,3.04649,-2.45887,-2.87219,0.22570,0.53280,0.83900,,,0.94527,0.29574,-0.12948,0.04739,
6.14844,3.32072,-1.37873,-2.73147,0.13117,0.54550,0.86269,,,0.94519,0.29598,-0.12950,0.04721,
6.15625,2.87510,-2.06281,-2.20379,0.17383,0.48933,0.87140,,,0.94513,0.29619,-0.12958,0.04706,
6.16406,3.59494,-2.24284,-1.99272,0.15929,0.45855,0.84190,,,0.94504,0.29645,-0.12968,0.04691,
6.17188,5.10317,-1.09069,-2.16861,0.14862,0.54697,0.77227,,,0.94493,0.29680,-0.12969,0.04680,
6.17969,5.72017,-1.59475,-2.34451,0.21989,0.55478,0.79065,,,0.94481,0.29720,-0.12972,0.04667,
6.18750,5.30883,-0.62263,-0.69111,0.13941,0.48298,0.81724,,,0.94470,0.29755,-0.12973,0.04665,
6.19531,4.86322,-1.37873,-1.67611,0.24461,0.48737,0.79065,,,0.94460,0.29788,-0.12977,0.04656,
6.20313,5.24028,-0.44260,-1.39468,0.20340,0.49079,0.79306,,,0.94449,0.29823,-0.12975,0.04651,
6.21094,5.41167,0.60153,-2.80183,0.16365,0.56015,0.80999,,,0.94439,0.29860,-0.12964,0.04639,
6.21875,4.45189,1.10560,-2.13343,0.16268,0.53280,0.83513,,,0.94432,0.29890,-0.12951,0.04631,
6.22656,3.80061,1.28562,-2.16861,0.13844,0.52205,0.85496,,,0.94426,0.29916,-0.12937,0.04623,
6.23438,3.52638,1.06959,-2.41486,0.16898,0.58800,0.78968,,,0.94421,0.29941,-0.12924,0.04613,
6.24219,4.72611,1.68167,-2.37969,0.13602,0.61047,0.83610,,,0.94413,0.29973,-0.12907,0.04605,
6.25000,6.33717,-0.15457,-0.86700,0.08948,0.49079,0.88735,,,0.94400,0.30014,-0.12904,0.04605,
6.25781,7.84539,-2.81891,-1.28914,0.21068,0.51082,0.83078,,,0.94382,0.30067,-0.12917,0.04598,
6.26563,9.90207,-2.13482,-0.40967,0.16656,0.52059,0.85302,,,0.94360,0.30131,-0.12927,0.04600,
6.27344,14.15252,-3.64702,0.29390,0.11420,0.52938,0.83803,,,0.94328,0.30223,-0.12947,0.04606,
6.28125,18.81431,-5.51927,2.68606,0.09481,0.44829,0.85931,,,0.94283,0.30344,-0.12982,0.04629,
6.28906,20.87098,-6.05934,3.35445,0.10645,0.46051,0.81579,,,0.94233,0.30477,-0.13021,0.04656,
6.29688,25.60133,-7.57153,4.02285,0.23782,0.50984,0.74229,,,0.94172,0.30640,-0.13070,0.04689,
6.30469,32.45690,-6.88744,3.70624,0.17626,0.52547,0.79258,,,0.94097,0.30847,-0.13111,0.04728,
6.31250,35.33624,-8.36364,4.90232,0.12535,0.47760,0.82449,,,0.94013,0.31072,-0.13164,0.04773,
6.32031,40.95781,-11.35203,4.51535,0.18886,0.49323,0.82353,,,0.93914,0.31334,-0.13233,0.04815,
6.32813,46.81932,-11.20801,4.02285,0.21261,0.50691,0.82546,,,0.93802,0.31634,-0.13298,0.04859,
6.33594,49.97288,-10.41590,3.91731,0.12196,0.52840,0.84384,,,0.93683,0.31953,-0.13356,0.04906,
6.34375,55.04601,-13.40429,3.53035,0.18450,0.52010,0.84093,,,0.93549,0.32305,-0.13431,0.04950,
6.35156,57.99390,-13.62032,3.81178,0.20146,0.51912,0.84335,,,0.93407,0.32676,-0.13506,0.04997,
6.35938,64.23247,-13.98037,3.98767,0.18013,0.49616,0.82836,,,0.93249,0.33086,-0.13582,0.05051,
6.36719,72.49344,-13.72834,2.89713,0.16947,0.59191,0.79790,,,0.93070,0.33548,-0.13651,0.05105,
6.37500,76.94956,-16.89675,3.35445,0.24849,0.52498,0.80080,,,0.92876,0.34039,-0.13739,0.05159,
6.38281,85.79325,-16.35668,2.33427,0.18886,0.51668,0.81386,,,0.92659,0.34585,-0.13817,0.05216,
6.39063,95.18538,-16.68072,1.63069,0.22280,0.56553,0.77711,,,0.92417,0.35190,-0.13892,0.05277,
6.39844,99.71006,-17.29280,1.66587,0.17771,0.56992,0.76889,,,0.92158,0.35822,-0.13969,0.05340,
6.40625,108.75941,-18.98502,-1.39468,0.20631,0.52840,0.77082,,,0.91872,0.36512,-0.14045,0.05388,
6.41406,119.31699,-19.74112,-2.48522,0.29891,0.54306,0.71908,,,0.91554,0.37268,-0.14118,0.05438,
6.42188,125.65840,-17.40081,-3.01290,0.19274,0.59386,0.76018,,,0.91216,0.38060,-0.14172,0.05496,
6.42969,137.38142,-16.46469,-7.26953,0.14620,0.65736,0.75873,,,0.90842,0.38926,-0.14203,0.05540,
6.43750,148.79595,-17.86888,-7.37507,0.33624,0.64466,0.79887,,,0.90428,0.39859,-0.14237,0.05591,
6.44531,153.01213,-13.87235,-6.35489,0.16947,0.60558,0.89654,,,0.89997,0.40812,-0.14246,0.05662,
6.45313,163.60399,-17.43682,-10.08384,0.25673,0.55674,0.80902,,,0.89523,0.41829,-0.14261,0.05710,
6.46094,170.39100,-18.69698,-10.25973,0.25673,0.58116,0.72972,,,0.89016,0.42884,-0.14279,0.05760,
6.46875,184.44493,-18.58897,-12.44081,0.17674,0.70279,0.68620,,,0.88457,0.44019,-0.14281,0.05809,
6.47656,196.88779,-21.79339,-12.86296,0.20437,0.76629,0.73987,,,0.87842,0.45223,-0.14295,0.05857,
6.48438,202.26941,-21.79339,-11.87795,0.18353,0.75945,0.70119,,,0.87193,0.46450,-0.14307,0.05915,
6.49219,215.53494,-23.05355,-10.96330,0.18789,0.79609,0.66686,,,0.86483,0.47746,-0.14320,0.05987,
6.50000,233.01665,-27.01407,-12.26492,0.21552,0.81563,0.68185,,,0.85693,0.49137,-0.14343,0.06053,
6.50781,241.82606,-28.74229,-13.00367,0.18110,0.72770,0.71376,,,0.84848,0.50567,-0.14365,0.06116,
6.51563,260.67888,-37.63545,-15.60690,0.21601,0.77313,0.76792,,,0.83905,0.52098,-0.14418,0.06151,
6.52344,277.54359,-46.60062,-18.87853,0.28582,0.97438,0.69684,,,0.82867,0.53713,-0.14499,0.06149,
6.53125,285.90739,-47.53674,-21.51693,0.26206,1.05205,0.80128,,,0.81766,0.55359,-0.14566,0.06135,
6.53906,299.68709,-55.56579,-24.36641,0.19419,1.05987,0.89509,,,0.80572,0.57064,-0.14655,0.06085,
6.54688,311.30728,-67.08729,-25.42178,0.30909,1.03056,0.81095,,,0.79286,0.58813,-0.14792,0.05994,
6.55469,317.99147,-69.64362,-26.68821,0.39587,1.08869,0.81772,,,0.77932,0.60573,-0.14927,0.05890,
6.56250,325.12126,-66.54722,-34.63861,0.38714,1.34221,0.84384,,,0.76516,0.62346,-0.15003,0.05761,
6.57031,324.70993,-66.40320,-39.70435,0.53694,1.44869,0.90621,,,0.75064,0.64089,-0.15050,0.05602,
6.57813,316.89457,-58.37416,-49.16744,0.51997,1.35100,0.87285,,,0.73621,0.65767,-0.15009,0.05419,
6.58594,312.36990,-53.51352,-57.11784,0.58396,1.57472,1.04644,,,0.72169,0.67397,-0.14902,0.05211,
6.59375,304.82877,-48.00480,-59.96732,0.59269,1.62943,1.00776,,,0.70725,0.68959,-0.14751,0.05004,
6.60156,289.74651,-32.77482,-66.05325,0.57281,1.62259,1.00679,,,0.69339,0.70418,-0.14497,0.04822,
6.60938,263.90100,-26.72603,-64.22395,0.50446,1.63480,1.30320,,,0.68055,0.71725,-0.14226,0.04650,
6.61719,242.20312,-22.58549,-56.51980,-0.21061,0.98366,1.29160,,,0.66857,0.72900,-0.13975,0.04511,
6.62500,228.32059,-18.22892,-72.73721,0.66395,1.21129,1.23212,,,0.65719,0.74006,-0.13624,0.04306,
6.63281,206.79409,5.24614,-68.69166,0.29939,0.61047,1.20988,,,0.64694,0.74986,-0.13192,0.04217,
6.64063,201.82380,-3.50300,-65.03307,0.30472,0.68569,1.53869,,,0.63672,0.75927,-0.12816,0.04093,
6.64844,175.70407,-8.54366,-71.43560,0.58542,2.37485,2.80363,,,0.62771,0.76747,-0.12433,0.03892,
6.65625,42.98020,14.82339,-56.90677,0.92235,1.39301,2.37231,,,0.62574,0.76974,-0.12060,0.03763,
6.66406,-3.19208,25.33676,-51.38370,0.95822,1.13900,1.93713,,,0.62625,0.76995,-0.11683,0.03674,
6.67188,-60.23043,58.67710,-45.22742,0.75752,0.74431,1.71566,,,0.62998,0.76757,-0.11210,0.03741,
6.67969,-87.10428,70.70267,-43.04634,0.52046,0.45757,1.44778,,,0.63517,0.76394,-0.10703,0.03860,
6.68750,-112.74411,65.62601,-36.29201,0.20874,0.08438,1.11462,,,0.64160,0.75912,-0.10259,0.03962,
6.69531,-121.79347,42.47499,-28.30644,0.11226,-0.12029,0.88590,,,0.64825,0.75384,-0.09960,0.03973,
6.70313,-122.78753,27.71307,-24.12016,0.10208,-0.15009,0.82014,,,0.65479,0.74847,-0.09746,0.03925,
6.71094,-123.40453,2.90583,-17.11959,0.21310,-0.10759,0.76792,,,0.66113,0.74304,-0.09678,0.03781,
6.71875,-127.31220,-8.25562,-12.22974,0.38375,0.00720,0.78243,,,0.66754,0.73737,-0.09686,0.03601,
6.72656,-131.04849,-7.93158,-10.36527,0.46034,0.08487,0.82014,,,0.67407,0.73146,-0.09702,0.03427,
6.73438,-143.69702,1.93371,-6.49560,0.56748,0.27879,0.92459,,,0.68124,0.72486,-0.09694,0.03312,
6.74219,-164.22946,15.29145,0.01247,0.57475,0.47565,1.03532,,,0.68941,0.71715,-0.09660,0.03279,
6.75000,-177.49499,20.62014,4.83196,0.55633,0.54745,1.06723,,,0.69817,0.70867,-0.09625,0.03285,
6.75781,-206.45978,25.19274,17.46114,0.48846,0.62170,1.08271,,,0.70820,0.69860,-0.09635,0.03355,
6.76563,-234.63618,21.84430,32.16586,0.44337,0.63685,1.02178,,,0.71936,0.68692,-0.09735,0.03459,
6.77344,-246.94193,18.81991,39.48304,0.44289,0.62659,0.97488,,,0.73085,0.67440,-0.09885,0.03577,
6.78125,-266.68598,13.52722,52.67508,0.43659,0.58507,0.85061,,,0.74295,0.66060,-0.10123,0.03721,
6.78906,-273.23305,11.72698,58.19815,0.41817,0.59337,0.79935,,,0.75505,0.64621,-0.10393,0.03880,
6.79688,-282.69374,8.66658,67.52052,0.37260,0.61486,0.74568,,,0.76724,0.63103,-0.10719,0.04064,
6.80469,-287.86970,4.77808,73.53609,0.32945,0.63050,0.73310,,,0.77930,0.61530,-0.11088,0.04258,
6.81250,-289.48076,2.72581,75.15431,0.30376,0.65150,0.73794,,,0.79108,0.59921,-0.11470,0.04449,
6.82031,-291.84593,-2.42286,76.66700,0.26546,0.69449,0.76792,,,0.80258,0.58276,-0.11882,0.04624,
6.82813,-294.00543,-8.36364,75.71717,0.24170,0.77264,0.82401,,,0.81378,0.56596,-0.12319,0.04766,
6.83594,-295.54794,-11.24401,74.48591,0.24219,0.83468,0.86028,,,0.82467,0.54885,-0.12762,0.04886,
6.84375,-299.07856,-17.79687,71.28465,0.21116,0.93628,0.93909,,,0.83529,0.53136,-0.13225,0.04959,
6.85156,-303.87746,-25.17783,67.02802,0.18692,1.05156,0.99422,,,0.84566,0.51341,-0.13711,0.04975,
6.85938,-306.85963,-29.24636,64.53032,0.18207,1.10969,1.02033,,,0.85571,0.49510,-0.14206,0.04956,
6.86719,-311.79564,-36.69933,59.07762,0.22570,1.17417,1.02226,,,0.86547,0.47635,-0.14722,0.04874,
6.87500,-312.41264,-41.16391,53.06205,0.29164,1.22986,1.03193,,,0.87482,0.45741,-0.15237,0.04739,
6.88281,-311.93275,-41.59597,50.38846,0.33187,1.24598,1.01839,,,0.88375,0.43831,-0.15739,0.04584,
6.89063,-306.13980,-40.62384,47.22237,0.42204,1.34074,1.01308,,,0.89211,0.41939,-0.16217,0.04418,
6.89844,-301.99218,-39.65171,47.85559,0.45404,1.41499,1.00824,,,0.89996,0.40053,-0.16682,0.04261,
6.90625,-292.87427,-36.91536,54.50438,0.53209,1.55127,0.98842,,,0.90719,0.38197,-0.17139,0.04160,
6.91406,-281.32263,-31.80269,66.71141,0.59414,1.66607,0.92894,,,0.91378,0.36381,-0.17586,0.04160,
6.92188,-274.80983,-27.87818,73.88788,0.61596,1.71101,0.88010,,,0.91987,0.34582,-0.18017,0.04221,
6.92969,-259.89896,-18.48095,89.36653,0.61305,1.76718,0.76937,,,0.92535,0.32842,-0.18415,0.04418,
6.93750,-241.76598,-9.15574,104.70447,0.54615,1.74666,0.64268,,,0.93018,0.31184,-0.18777,0.04754,
6.94531,-230.86562,-5.87931,111.52915,0.49040,1.77353,0.60255,,,0.93451,0.29575,-0.19123,0.05152,
6.95313,-210.09323,-2.09882,122.25868,0.40702,1.88246,0.53389,,,0.93816,0.28074,-0.19454,0.05652,
6.96094,-193.05714,0.38550,127.60585,0.37793,2.02461,0.46329,,,0.94125,0.26668,-0.19768,0.06212,
6.96875,-186.51007,2.86983,127.85210,0.36969,2.08811,0.42702,,,0.94402,0.25295,-0.20059,0.06785,
6.97656,-177.97488,10.75486,122.82154,0.32363,2.13403,0.34434,,,0.94657,0.23975,-0.20281,0.07350,
6.98438,-173.69015,15.03941,118.10758,0.17432,2.11498,0.29260,,,0.94892,0.22682,-0.20462,0.07895,
6.99219,-171.90770,18.71189,105.75984,0.08511,2.03975,0.19831,,,0.95118,0.21411,-0.20595,0.08367,
7.00000,-167.93147,11.29493,93.83423,-0.04723,1.92935,0.07645,,,0.95317,0.20183,-0.20752,0.08756,
7.00781,-164.19518,4.77808,88.76849,-0.06178,1.86341,0.01553,1021.896,25.1,0.95489,0.18987,-0.20940,0.09106,
7.01563,-153.02060,-5.69929,77.33539,-0.01427,1.80626,-0.08070,,,0.95624,0.17883,-0.21170,0.09383,
7.02344,-140.68057,-8.32763,64.38961,0.05118,1.74227,-0.17354,,,0.95737,0.16879,-0.21392,0.09588,
7.03125,-133.44794,-6.63541,57.63529,0.05845,1.70221,-0.22915,,,0.95838,0.15928,-0.21587,0.09762,
7.03906,-115.45207,-2.35085,44.72468,0.04197,1.60110,-0.33552,,,0.95927,0.15110,-0.21727,0.09881,
7.04688,-93.13718,-0.33459,33.85444,0.02209,1.51855,-0.42740,,,0.95997,0.14451,-0.21827,0.09963,
7.05469,-80.45437,-0.47861,29.10531,0.03373,1.48679,-0.46221,,,0.96054,0.13882,-0.21913,0.10033,
7.06250,-53.58053,-1.70277,20.62723,0.05894,1.44821,-0.47430,,,0.96088,0.13502,-0.21980,0.10086,
7.07031,-26.43246,-2.99894,13.55629,0.10063,1.45749,-0.41579,,,0.96098,0.13312,-0.22030,0.10133,
7.07813,-13.92105,-3.32298,10.53092,0.11129,1.46335,-0.36792,,,0.96098,0.13208,-0.22071,0.10178,
7.08594,8.42812,-3.68303,6.59090,0.16462,1.51708,-0.21512,,,0.96080,0.13256,-0.22095,0.10230,
7.09375,17.13469,-2.96293,5.60589,0.18595,1.54248,-0.13969,,,0.96056,0.13363,-0.22108,0.10290,
7.10156,29.71467,0.20548,4.90232,0.21552,1.40962,0.00731,,,0.96026,0.13551,-0.22090,0.10366,
7.10938,57.58257,26.45290,-9.73205,0.22376,0.88792,-0.76201,,,0.96018,0.13924,-0.21867,0.10414,
7.11719,89.25531,52.41229,-27.56768,-0.39047,1.08820,-0.88241,,,0.96029,0.14513,-0.21434,0.10416,
7.12500,159.07931,63.17769,-63.97770,-0.46949,-0.15156,-0.65708,,,0.96001,0.15602,-0.20842,0.10291,
7.13281,218.24289,42.69102,-89.30641,0.19128,0.79951,1.30659,,,0.95880,0.17125,-0.20312,0.10060,
7.14063,205.73148,39.52261,-92.15589,0.16559,0.81514,1.73404,,,0.95746,0.18568,-0.19802,0.09788,
7.14844,163.36404,36.10216,-94.40733,0.13650,0.72673,1.99660,,,0.95643,0.19736,-0.19336,0.09437,
7.15625,118.25438,37.39833,-95.53305,-0.19558,0.60607,1.38976,,,0.95589,0.20608,-0.18886,0.09020,
7.16406,108.65658,24.90470,-93.45751,-0.33374,0.51180,0.95602,,,0.95521,0.21420,-0.18524,0.08585,
7.17188,123.49889,3.15787,-92.12071,-0.21255,0.75017,0.76502,,,0.95394,0.22338,-0.18295,0.08145,
7.17969,131.79413,-10.63193,-86.84390,0.20777,1.18296,1.37960,,,0.95222,0.23308,-0.18158,0.07728,
7.18750,120.65383,-13.87235,-81.77816,0.47246,1.26307,1.45793,,,0.95052,0.24199,-0.18053,0.07324,
7.19531,97.99616,-7.31950,-68.65648,0.71825,1.09455,1.14218,,,0.94912,0.24921,-0.17938,0.06987,
7.20313,94.94543,-3.50300,-61.48001,0.76867,1.05645,0.97633,,,0.94773,0.25612,-0.17810,0.06699,
7.21094,96.35083,10.21479,-47.44368,0.72261,1.12581,1.03870,,,0.94636,0.26287,-0.17617,0.06527,
7.21875,84.62780,27.38902,-36.04576,0.61257,1.19517,1.21520,,,0.94531,0.26864,-0.17338,0.06445,
7.22656,73.04188,36.96627,-32.87967,0.42059,1.03740,1.14025,,,0.94454,0.27357,-0.17007,0.06387,
7.23438,58.57663,40.60275,-30.38198,0.16559,0.71305,0.90573,,,0.94404,0.27751,-0.16663,0.06335,
7.24219,56.65707,38.65849,-30.73377,0.19468,0.61047,0.88107,,,0.94353,0.28134,-0.16331,0.06275,
7.25000,55.38879,38.33445,-30.69859,0.26158,0.78192,0.99132,,,0.94301,0.28508,-0.16002,0.06212,
7.25781,37.97563,39.45060,-27.42697,0.19225,0.79804,1.04789,,,0.94281,0.28765,-0.15678,0.06154,
7.26563,20.66531,37.14630,-25.38660,0.09723,0.62317,0.91153,,,0.94290,0.28909,-0.15381,0.06086,
7.27344,17.75170,35.59809,-24.68302,0.19468,0.62854,0.98551,,,0.94302,0.29034,-0.15096,0.06016,
7.28125,4.96605,31.63758,-19.96907,0.19371,0.51717,0.94490,,,0.94333,0.29074,-0.14851,0.05955,
7.28906,2.73799,25.26475,-16.97887,0.18401,0.53720,0.98455,,,0.94360,0.29098,-0.14653,0.05899,
7.29688,1.09266,22.63640,-15.00886,0.06330,0.53524,0.93909,,,0.94386,0.29111,-0.14477,0.05848,
7.30469,1.05838,13.70724,-11.49099,0.07009,0.58702,0.90186,,,0.94402,0.29123,-0.14366,0.05802,
7.31250,1.05838,8.63058,-8.81740,0.11178,0.56699,0.89799,,,0.94412,0.29135,-0.14292,0.05764,
7.32031,3.59494,2.54579,-3.54058,0.09966,0.49372,0.86801,,,0.94409,0.29161,-0.14267,0.05749,
7.32813,5.37739,-3.25097,-0.62075,0.20874,0.54257,0.80612,,,0.94395,0.29198,-0.14285,0.05744,
7.33594,6.44000,-2.56688,-0.02271,0.16462,0.58165,0.83658,,,0.94380,0.29240,-0.14299,0.05745,
7.34375,7.02273,-4.83518,1.20855,0.20486,0.50740,0.85931,,,0.94361,0.29286,-0.14329,0.05750,
7.35156,8.46240,-5.26723,0.43462,0.20971,0.50154,0.86995,,,0.94339,0.29342,-0.14361,0.05751,
7.35938,8.49667,-4.72716,-0.02271,0.23152,0.49519,0.83223,,,0.94317,0.29398,-0.14388,0.05749,
7.36719,10.38196,-3.79104,-0.40967,0.15735,0.54062,0.81918,,,0.94293,0.29467,-0.14407,0.05749,
7.37500,11.27318,-4.97919,-0.37450,0.22667,0.48884,0.80515,,,0.94265,0.29542,-0.14434,0.05748,
7.38281,11.78735,-4.76317,-0.51521,0.20146,0.50642,0.83417,,,0.94237,0.29620,-0.14459,0.05747,
7.39063,12.54146,-3.28697,-2.37969,0.21164,0.58409,0.78533,,,0.94209,0.29704,-0.14470,0.05737,
7.39844,14.39247,-2.85492,-3.01290,0.25285,0.59581,0.81531,,,0.94178,0.29801,-0.14477,0.05726,
7.40625,13.74119,-2.45887,-2.41486,0.20243,0.54501,0.81869,,,0.94149,0.29892,-0.14482,0.05719,
7.41406,13.08991,-2.63889,-3.32951,0.21892,0.52645,0.82256,,,0.94121,0.29980,-0.14487,0.05705,
7.42188,13.19274,-1.88279,-3.29433,0.21455,0.54892,0.83900,,,0.94093,0.30069,-0.14487,0.05693,
7.42969,13.15846,-1.66676,-3.54058,0.18644,0.59142,0.83078,,,0.94066,0.30158,-0.14485,0.05680,
7.43750,11.95874,-2.09882,-3.22398,0.18789,0.56309,0.82740,,,0.94041,0.30238,-0.14488,0.05667,
7.44531,11.27318,-2.71090,-2.73147,0.18401,0.50691,0.83803,,,0.94016,0.30314,-0.14495,0.05655,
7.45313,10.79329,-2.45887,-2.94255,0.15977,0.54306,0.81918,,,0.93992,0.30387,-0.14500,0.05642,
7.46094,11.71879,-3.03494,-2.59076,0.18207,0.59191,0.81386,,,0.93966,0.30466,-0.14510,0.05630,
7.46875,11.10179,-4.43912,-1.71129,0.18837,0.54257,0.80757,,,0.93939,0.30541,-0.14530,0.05621,
7.47656,10.31340,-4.97919,-1.46504,0.19468,0.52450,0.79306,,,0.93913,0.30610,-0.14555,0.05612,
7.48438,10.41623,-5.15922,-0.72628,0.22328,0.52792,0.77711,,,0.93887,0.30679,-0.14583,0.05607,
7.49219,10.55335,-4.87118,-0.69111,0.16753,0.54501,0.79693,,,0.93860,0.30749,-0.14608,0.05602,
7.50000,9.83351,-5.77130,-1.11325,0.22183,0.54062,0.79451,,,0.93834,0.30816,-0.14639,0.05593,
7.50781,9.14795,-5.05120,-0.48003,0.21019,0.52498,0.80419,,,0.93810,0.30876,-0.14667,0.05588,
7.51563,8.87373,-3.14296,-1.42986,0.16026,0.54501,0.83513,,,0.93789,0.30936,-0.14680,0.05581,
7.52344,8.35956,-1.88279,-1.67611,0.16171,0.58702,0.78001,,,0.93770,0.30992,-0.14686,0.05575,
7.53125,8.05106,-2.31485,-2.13343,0.19953,0.59044,0.78049,,,0.93751,0.31046,-0.14693,0.05565,
7.53906,6.88561,-2.38686,-1.64093,0.19274,0.52792,0.79403,,,0.93735,0.31093,-0.14702,0.05556,
7.54688,6.85134,-0.98267,-2.37969,0.19759,0.55820,0.79742,,,0.93720,0.31139,-0.14700,0.05546,
7.55469,6.54284,-1.95480,-1.88718,0.21019,0.54355,0.77759,,,0.93705,0.31184,-0.14706,0.05536,
7.56250,6.81706,-0.51461,-3.01290,0.18644,0.60949,0.77372,,,0.93691,0.31230,-0.14701,0.05522,
7.57031,6.23434,-1.19870,-1.85200,0.19419,0.52156,0.79065,,,0.93678,0.31273,-0.14702,0.05514,
7.57813,6.26861,-0.83866,-2.20379,0.16171,0.52108,0.81869,,,0.93664,0.31315,-0.14700,0.05505,
7.58594,5.99439,-0.83866,-2.97772,0.18692,0.59386,0.74809,,,0.93652,0.31357,-0.14697,0.05490,
7.59375,5.68589,-1.99081,-2.83701,0.25285,0.56064,0.75245,,,0.93639,0.31397,-0.14701,0.05473,
7.60156,5.96011,0.13347,-3.08326,0.09723,0.52450,0.85544,,,0.93627,0.31438,-0.14692,0.05460,
7.60938,5.68589,-2.09882,-3.50541,0.21504,0.50496,0.82353,,,0.93614,0.31478,-0.14695,0.05438,
7.61719,6.91989,-1.84679,-3.54058,0.14717,0.56015,0.79258,,,0.93599,0.31526,-0.14697,0.05419,
7.62500,7.94823,-1.34272,-4.63113,0.12875,0.59386,0.81289,,,0.93582,0.31582,-0.14692,0.05394,
7.63281,8.83945,-3.97106,-3.25915,0.14038,0.53036,0.83755,,,0.93560,0.31643,-0.14707,0.05374,
7.64063,9.18223,-5.55527,-2.62594,0.14717,0.52205,0.79548,,,0.93536,0.31707,-0.14734,0.05354,
7.64844,10.07346,-7.28350,-1.74647,0.21358,0.59484,0.73601,,,0.93507,0.31775,-0.14773,0.05337,
7.65625,11.54740,-7.03146,-0.48003,0.21795,0.59288,0.73987,,,0.93475,0.31852,-0.14812,0.05331,
7.66406,11.58168,-6.38338,0.32908,0.13844,0.54843,0.79451,,,0.93444,0.31928,-0.14849,0.05331,
7.67188,12.09585,-6.81543,0.96230,0.19856,0.50447,0.79838,,,0.93410,0.32006,-0.14890,0.05334,
7.67969,14.49530,-5.48326,1.45480,0.22280,0.56357,0.74616,,,0.93372,0.32099,-0.14923,0.05346,
7.68750,15.93497,-3.32298,1.27891,0.17480,0.57872,0.79306,,,0.93334,0.32200,-0.14941,0.05363,
7.69531,17.44320,-3.82704,2.93231,0.18837,0.46783,0.84674,,,0.93290,0.32310,-0.14965,0.05391,
7.70313,21.69365,-3.03494,3.42481,0.18983,0.51180,0.84287,,,0.93238,0.32445,-0.14984,0.05428,
7.71094,23.85315,-4.94319,4.48017,0.26206,0.48981,0.77904,,,0.93178,0.32594,-0.15017,0.05470,
7.71875,30.70873,-4.11508,4.05803,0.19759,0.56357,0.80660,,,0.93104,0.32786,-0.15040,0.05518,
7.72656,36.87874,-5.44726,5.07821,0.15056,0.50398,0.85883,,,0.93014,0.33017,-0.15072,0.05576,
7.73438,40.23797,-7.75156,5.39482,0.19662,0.49958,0.84287,,,0.92913,0.33269,-0.15118,0.05634,
7.74219,47.98477,-9.29976,5.92250,0.19953,0.54403,0.82643,,,0.92792,0.33570,-0.15172,0.05700,
7.75000,52.16667,-10.01985,5.81697,0.17819,0.54941,0.79983,,,0.92659,0.33898,-0.15228,0.05768,
7.75781,61.01035,-13.15226,5.43000,0.19371,0.50545,0.82159,,,0.92502,0.34283,-0.15299,0.05835,
7.76563,70.50532,-15.06051,4.58571,0.18256,0.49616,0.82546,,,0.92318,0.34728,-0.15377,0.05902,
7.77344,76.46967,-17.22079,3.81178,0.24170,0.49665,0.82836,,,0.92117,0.35212,-0.15463,0.05966,
7.78125,89.76948,-18.22892,1.41962,0.19322,0.54843,0.79451,,,0.91879,0.35780,-0.15544,0.06025,
7.78906,105.26307,-21.21731,-0.93736,0.22328,0.49421,0.86076,,,0.91598,0.36448,-0.15631,0.06079,
7.79688,112.42714,-22.51348,-2.69629,0.20971,0.42680,0.87140,,,0.91293,0.37161,-0.15718,0.06126,
7.80469,129.01763,-24.38572,-8.14900,0.26546,0.53915,0.80709,,,0.90940,0.37982,-0.15794,0.06151,
7.81250,145.98517,-25.24984,-12.01867,0.22328,0.60021,0.79500,,,0.90535,0.38908,-0.15858,0.06168,
7.82031,154.31469,-27.48213,-14.86815,0.23976,0.56406,0.79645,,,0.90097,0.39886,-0.15922,0.06170,
7.82813,171.41934,-28.27423,-18.49156,0.25964,0.53280,0.78629,,,0.89602,0.40968,-0.15972,0.06165,
7.83594,191.33478,-29.31837,-22.39640,0.27030,0.54062,0.82691,,,0.89037,0.42169,-0.16007,0.06154,
7.84375,201.51530,-29.28236,-24.01463,0.20825,0.56895,0.77662,,,0.88428,0.43427,-0.16029,0.06144,
7.85156,226.26391,-32.99085,-27.98983,0.25625,0.56064,0.82449,,,0.87723,0.44830,-0.16048,0.06124,
7.85938,239.08383,-33.17087,-29.15073,0.17916,0.53573,0.81869,,,0.86956,0.46299,-0.16056,0.06109,
7.86719,269.07696,-40.22779,-31.61324,0.25382,0.66615,0.81434,,,0.86061,0.47937,-0.16079,0.06088,
7.87500,302.84065,-46.67263,-32.42235,0.13311,0.71158,0.87140,,,0.85015,0.49757,-0.16118,0.06076,
7.88281,321.28214,-54.55766,-33.89986,0.25091,0.82686,0.93909,,,0.83858,0.51666,-0.16182,0.06046,
7.89063,354.94300,-66.11516,-35.69398,0.19128,0.82833,1.06385,,,0.82525,0.53745,-0.16283,0.05998,
7.89844,392.23731,-88.07803,-37.20666,0.30230,1.18003,1.18183,,,0.80975,0.56008,-0.16475,0.05900,
7.90625,405.57140,-100.10359,-37.76952,0.47295,1.38324,1.18812,,,0.79297,0.58305,-0.16713,0.05762,
7.91406,417.05448,-101.61579,-51.20781,0.77643,1.61819,1.17119,,,0.77510,0.60631,-0.16888,0.05554,
7.92188,405.50284,-95.71102,-68.44541,0.54373,1.64213,1.13735,,,0.75718,0.62863,-0.16950,0.05261,
7.92969,400.49827,-101.21974,-73.33525,0.45695,1.65678,1.19102,,,0.73882,0.65024,-0.17007,0.04910,
7.93750,391.96309,-107.80860,-79.21011,0.64650,1.85413,1.30610,,,0.72017,0.67099,-0.17061,0.04486,
7.94531,365.56913,-85.98976,-90.53767,0.64699,1.87318,1.27274,,,0.70249,0.69001,-0.16951,0.04072,
7.95313,348.67015,-76.98858,-93.14090,0.54615,1.63627,1.26210,,,0.68525,0.70777,-0.16780,0.03665,
7.96094,315.38635,-72.30797,-94.86466,0.47392,1.50096,1.60300,,,0.66927,0.72357,-0.16576,0.03233,
7.96875,289.64368,-69.64362,-96.65877,0.46616,1.23767,1.57737,,,0.65427,0.73786,-0.16350,0.02775,
7.97656,243.30001,-53.22548,-105.98115,0.58396,0.75848,1.15959,,,0.64153,0.74986,-0.16005,0.02306,
7.98438,241.10623,-21.46934,-110.44885,0.70468,0.23043,0.99712,,,0.62905,0.76151,-0.15494,0.01976,
7.99219,253.13776,-17.40081,-119.41943,0.87096,1.72517,1.67601,,,0.61578,0.77350,-0.14912,0.01641,
8.00000,155.44586,-8.57966,-100.42290,1.21759,2.38999,3.21464,,,0.60758,0.78098,-0.14400,0.01333,
8.00781,9.35362,23.82456,-59.19339,0.99943,1.23865,2.08557,1021.872,25.2,0.60738,0.78191,-0.13985,0.01224,
8.01563,-25.78119,32.03363,-42.20205,0.96016,0.98171,1.90376,,,0.60910,0.78120,-0.13630,0.01196,
8.02344,-84.15638,55.68871,-21.48175,0.60772,0.33057,1.36509,,,0.61411,0.77783,-0.13291,0.01325,
8.03125,-108.21944,57.88500,-8.99329,0.30133,-0.08268,0.93571,,,0.62037,0.77330,-0.13010,0.01497,
8.03906,-111.44156,54.82460,-5.65131,0.21601,-0.18526,0.80757,,,0.62672,0.76855,-0.12759,0.01663,
8.04688,-112.57273,41.28684,-0.12824,0.11760,-0.27026,0.64945,,,0.63296,0.76367,-0.12595,0.01781,
8.05469,-111.20161,25.80482,3.67106,0.14087,-0.19747,0.62818,,,0.63895,0.75878,-0.12516,0.01836,
8.06250,-112.67556,20.29610,4.97268,0.18353,-0.14423,0.64172,,,0.64493,0.75378,-0.12467,0.01866,
8.07031,-119.53113,15.54348,7.32965,0.29503,-0.02993,0.67605,,,0.65117,0.74841,-0.12451,0.01877,
8.07813,-124.74137,16.98367,8.38502,0.35369,0.03748,0.70554,,,0.65765,0.74275,-0.12434,0.01895,
8.08594,-139.00095,25.44477,10.77717,0.44774,0.17035,0.78388,,,0.66487,0.73635,-0.12392,0.01955,
8.09375,-157.64811,37.00228,15.52631,0.46228,0.32862,0.87865,,,0.67303,0.72898,-0.12323,0.02078,
8.10156,-169.30258,41.86291,19.18490,0.45404,0.40091,0.91298,,,0.68173,0.72093,-0.12249,0.02232,
8.10938,-194.35970,46.86756,28.96459,0.42738,0.50154,0.97488,,,0.69157,0.71151,-0.12202,0.02434,
8.11719,-221.23354,45.85943,40.64394,0.41429,0.57432,0.96569,,,0.70253,0.70058,-0.12218,0.02664,
8.12500,-233.95062,44.34724,46.55398,0.41768,0.58604,0.93909,,,0.71390,0.68880,-0.12269,0.02904,
8.13281,-256.12840,41.46686,56.65028,0.43174,0.59630,0.88639,,,0.72605,0.67566,-0.12382,0.03160,
8.14063,-272.85600,39.48660,64.56550,0.41671,0.63733,0.84287,,,0.73868,0.66140,-0.12541,0.03430,
8.14844,-279.98579,38.44247,67.73159,0.39635,0.65394,0.82353,,,0.75133,0.64650,-0.12715,0.03705,
8.15625,-291.60598,35.02202,72.58626,0.35272,0.69693,0.77952,,,0.76414,0.63071,-0.12927,0.03977,
8.16406,-296.02783,32.14164,74.31002,0.33236,0.71891,0.77421,,,0.77679,0.61441,-0.13156,0.04241,
8.17188,-302.57490,24.40063,75.92824,0.31151,0.75457,0.77807,,,0.78928,0.59749,-0.13430,0.04473,
8.17969,-306.34546,16.40759,75.89307,0.33430,0.81221,0.81579,,,0.80150,0.58012,-0.13741,0.04667,
8.18750,-307.99080,13.20318,75.36538,0.33914,0.83907,0.83320,,,0.81338,0.56241,-0.14061,0.04841,
8.19531,-310.56164,7.01037,73.85270,0.34787,0.95484,0.91540,,,0.82491,0.54433,-0.14405,0.04979,
8.20313,-315.01776,1.50165,72.09376,0.36629,1.06231,0.98793,,,0.83617,0.52577,-0.14767,0.05079,
8.21094,-317.58860,-1.27071,71.21429,0.37890,1.12337,1.01936,,,0.84709,0.50682,-0.15136,0.05160,
8.21875,-323.14161,-6.38338,69.38499,0.42689,1.22644,1.06095,,,0.85773,0.48734,-0.15522,0.05203,
8.22656,-327.11785,-10.77595,68.75178,0.41720,1.26307,1.09721,,,0.86802,0.46740,-0.15925,0.05222,
8.23438,-327.52918,-13.62032,68.68142,0.41865,1.28652,1.11269,,,0.87783,0.44720,-0.16337,0.05228,
8.24219,-326.26090,-20.35320,69.10356,0.43029,1.34709,1.15959,,,0.88708,0.42687,-0.16781,0.05215,
8.25000,-322.49034,-27.33811,70.15893,0.46858,1.41548,1.19634,,,0.89567,0.40655,-0.17261,0.05189,
8.25781,-319.81666,-30.50652,70.82732,0.52482,1.45700,1.21181,,,0.90370,0.38620,-0.17752,0.05159,
8.26563,-313.50954,-32.59479,71.84751,0.69547,1.57472,1.22922,,,0.91109,0.36605,-0.18248,0.05136,
8.27344,-310.15031,-31.01059,72.79733,0.79291,1.64164,1.23357,,,0.91796,0.34590,-0.18726,0.05123,
8.28125,-303.19190,-20.56923,76.35039,0.99458,1.78525,1.19634,,,0.92437,0.32596,-0.19136,0.05164,
8.28906,-293.55982,-3.35898,84.61740,0.97180,1.91372,1.10737,,,0.93035,0.30630,-0.19445,0.05306,
8.29688,-286.66997,2.25775,92.88441,0.79824,1.97234,1.06481,,,0.93583,0.28683,-0.19724,0.05518,
8.30469,-271.79338,-5.41125,116.84115,0.54130,2.21023,1.09673,,,0.94044,0.26789,-0.20085,0.05886,
8.31250,-264.93781,-22.76551,133.79731,0.53306,2.38120,1.00486,,,0.94423,0.24913,-0.20577,0.06338,
8.32031,-262.74403,-29.10234,137.03376,0.53161,2.44665,0.92507,,,0.94750,0.23038,-0.21106,0.06800,
8.32813,-261.44147,-34.68307,140.05913,0.45743,2.46814,0.67701,,,0.95026,0.21161,-0.21667,0.07273,
8.33594,-255.95701,-33.06286,145.61738,0.43126,2.53165,0.38254,,,0.95254,0.19302,-0.22213,0.07788,
8.34375,-252.42639,-27.95019,147.90400,0.44192,2.52578,0.20991,,,0.95446,0.17452,-0.22719,0.08327,
8.35156,-240.42914,-8.97572,149.38150,0.41235,2.38999,-0.16483,,,0.95615,0.15660,-0.23087,0.08914,
8.35938,-218.42275,18.17182,144.21023,0.22522,2.17115,-0.56424,,,0.95774,0.13997,-0.23252,0.09528,
8.36719,-201.69516,29.54931,139.63699,0.07203,2.14331,-0.71704,,,0.95909,0.12440,-0.23320,0.10146,
8.37500,-164.53796,38.37046,125.24887,-0.21449,2.29474,-0.91578,,,0.96013,0.11139,-0.23287,0.10735,
8.38281,-148.32453,34.87800,115.39882,-0.35992,2.35384,-1.01829,,,0.96088,0.09961,-0.23252,0.11280,
8.39063,-117.44018,13.09516,89.19064,-0.58971,2.44079,-1.14546,,,0.96115,0.09041,-0.23316,0.11685,
8.39844,-88.74961,-19.56110,56.43921,-0.59650,2.31134,-1.22331,,,0.96091,0.08387,-0.23549,0.11901,
8.40625,-72.29624,-33.71094,38.84983,-0.51166,2.17164,-1.24217,,,0.96045,0.07880,-0.23850,0.12020,
8.41406,-33.04809,-45.73651,3.70624,-0.22709,1.83215,-1.19091,,,0.95984,0.07697,-0.24178,0.11965,
8.42188,12.74713,-33.71094,-26.65303,0.03712,1.68512,-0.92835,,,0.95943,0.07853,-0.24375,0.11794,
8.42969,34.20507,-22.40547,-37.66399,0.14426,1.67877,-0.73155,,,0.95917,0.08159,-0.24474,0.11592,
8.43750,67.72881,1.42964,-48.85083,0.26643,1.76474,-0.31280,,,0.95919,0.08684,-0.24383,0.11386,
8.44531,86.82158,18.49587,-45.71992,0.33527,1.82238,0.07887,,,0.95931,0.09314,-0.24167,0.11241,
8.45313,91.65476,23.46451,-39.88025,0.36290,1.80968,0.23844,,,0.95940,0.09963,-0.23918,0.11146,
8.46094,95.01399,29.04524,-23.48694,0.34739,1.47067,0.55371,,,0.95938,0.10601,-0.23639,0.11166,
8.46875,126.34395,12.41107,-26.33642,-0.01815,1.43550,1.36123,,,0.95883,0.11461,-0.23441,0.11206,
8.47656,113.55831,6.36228,-35.23665,1.36981,-3.69155,2.38730,,,0.95829,0.12251,-0.23285,0.11162,
8.48438,162.13004,23.42851,-41.63919,1.49828,-0.27319,3.97622,,,0.95756,0.13357,-0.22972,0.11167,
8.49219,64.54097,61.19743,-49.51923,0.25673,-1.77916,1.44536,,,0.95829,0.13807,-0.22477,0.11000,
8.50000,102.00667,52.95236,-84.13513,-1.02797,-0.80611,-0.65370,,,0.95873,0.14561,-0.21974,0.10656,
8.50781,197.77901,47.08359,-129.51574,-0.90628,0.88548,0.27809,,,0.95828,0.16012,-0.21390,0.10151,
8.51563,214.81511,26.88496,-135.84792,-0.59262,1.79747,1.66344,,,0.95712,0.17594,-0.20913,0.09605,
8.52344,138.61543,-0.65863,-119.77122,0.24849,1.96208,2.16584,,,0.95616,0.18669,-0.20681,0.09019,
8.53125,70.91666,14.71537,-114.21298,0.39635,0.61438,0.94683,,,0.95613,0.19282,-0.20395,0.08393,
8.53906,75.74983,15.61549,-113.26315,0.34739,0.23532,0.66541,,,0.95596,0.19924,-0.20100,0.07780,
8.54688,114.44954,-4.58314,-92.75393,0.65329,0.44780,0.78194,,,0.95478,0.20798,-0.19942,0.07325,
8.55469,129.87457,-10.88396,-58.87678,0.98246,1.09943,1.21471,,,0.95304,0.21729,-0.19864,0.07103,
8.56250,123.08756,-2.38686,-45.01635,0.85254,1.27577,1.32158,,,0.95136,0.22590,-0.19753,0.06973,
8.57031,102.17806,9.99876,-26.75857,0.31587,1.00418,1.14267,,,0.95003,0.23284,-0.19597,0.06952,
8.57813,93.77999,6.25427,-21.76318,-0.01087,0.77215,1.16878,,,0.94870,0.23917,-0.19477,0.06946,
8.58594,89.73520,4.74207,-25.06999,-0.10444,0.71354,1.19344,,,0.94740,0.24528,-0.19362,0.06911,
8.59375,79.52040,-1.63076,-36.36237,0.05651,0.77069,1.21278,,,0.94621,0.25090,-0.19273,0.06778,
8.60156,71.46510,-3.25097,-39.00078,0.22716,0.74333,1.09576,,,0.94511,0.25603,-0.19194,0.06615,
8.60938,61.73019,-2.13482,-34.04057,0.67947,0.71061,0.86995,,,0.94415,0.26046,-0.19120,0.06472,
8.61719,56.75990,11.33093,-24.36641,0.85836,0.69155,0.90718,,,0.94338,0.26438,-0.18979,0.06409,
8.62500,53.64061,20.58414,-20.95407,0.73813,0.68862,0.92991,,,0.94277,0.26801,-0.18786,0.06381,
8.63281,48.77316,30.23340,-19.26549,0.39053,0.62317,0.93523,,,0.94234,0.27126,-0.18535,0.06375,
8.64063,42.91164,31.45755,-19.58210,0.10596,0.66420,0.92991,,,0.94202,0.27413,-0.18277,0.06361,
8.64844,39.48386,29.76533,-19.68764,0.03615,0.68130,0.92314,,,0.94173,0.27678,-0.18032,0.06340,
8.65625,31.77134,22.70841,-18.73781,0.16026,0.68325,0.97488,,,0.94149,0.27895,-0.17837,0.06301,
8.66406,24.64155,20.98019,-16.69744,0.25770,0.63733,0.88977,,,0.94134,0.28064,-0.17659,0.06264,
8.67188,22.96193,20.54813,-16.62709,0.29891,0.58116,0.82208,,,0.94122,0.28223,-0.17486,0.06224,
8.67969,20.87098,19.64802,-14.86815,0.32121,0.58995,0.90331,,,0.94111,0.28366,-0.17322,0.06191,
8.68750,15.66075,20.08007,-13.67207,0.20825,0.48249,0.89654,,,0.94111,0.28474,-0.17160,0.06161,
8.69531,14.83808,19.32397,-14.58672,0.22764,0.48102,0.88639,,,0.94110,0.28578,-0.17001,0.06122,
8.70313,15.28369,18.67589,-15.18476,0.34496,0.55478,0.84335,,,0.94108,0.28686,-0.16846,0.06079,
8.71094,15.83214,18.89192,-13.28510,0.28873,0.57383,0.84480,,,0.94104,0.28795,-0.16692,0.06049,
8.71875,15.59219,18.35185,-12.12420,0.14135,0.52205,0.92072,,,0.94100,0.28901,-0.16544,0.06025,
8.72656,13.98113,14.39133,-10.92813,0.08802,0.49274,0.89364,,,0.94093,0.28997,-0.16424,0.05998,
8.73438,14.46102,10.86287,-10.50598,0.19565,0.53671,0.84335,,,0.94081,0.29097,-0.16327,0.05969,
8.74219,15.35225,9.27866,-8.64151,0.19031,0.56406,0.85302,,,0.94064,0.29202,-0.16244,0.05949,
8.75000,14.59813,6.79434,-5.86238,0.13699,0.49274,0.85496,,,0.94045,0.29299,-0.16183,0.05941,
8.75781,14.63241,5.64219,-5.58095,0.13068,0.46246,0.81289,,,0.94024,0.29396,-0.16129,0.05932,
8.76563,15.90069,3.22988,-5.75685,0.23540,0.52498,0.81192,,,0.93998,0.29503,-0.16091,0.05919,
8.77344,16.72336,5.03011,-5.68649,0.16801,0.55527,0.80273,,,0.93972,0.29615,-0.16040,0.05911,
8.78125,16.17491,3.69794,-5.26434,0.22134,0.52254,0.83030,,,0.93946,0.29723,-0.15999,0.05903,
8.78906,14.22108,5.31815,-4.59595,0.15250,0.46148,0.80370,,,0.93924,0.29816,-0.15950,0.05900,
8.79688,13.26130,4.88609,-5.93274,0.23588,0.54257,0.79403,,,0.93905,0.29906,-0.15901,0.05886,
8.80469,12.16440,6.18226,-6.07346,0.22280,0.56309,0.80177,,,0.93889,0.29988,-0.15844,0.05873,
8.81250,10.45051,7.04637,-4.84220,0.16656,0.54013,0.84722,,,0.93878,0.30057,-0.15785,0.05867,
8.82031,9.31934,5.78621,-4.49041,0.18207,0.52694,0.82498,,,0.93866,0.30119,-0.15735,0.05861,
8.82813,7.70828,4.92210,-4.91256,0.28145,0.53524,0.82836,,,0.93858,0.30172,-0.15690,0.05847,
8.83594,6.71423,7.44242,-5.01809,0.14571,0.57530,0.83658,,,0.93854,0.30217,-0.15629,0.05838,
8.84375,5.89156,4.34602,-4.45523,0.22231,0.52596,0.86076,,,0.93848,0.30258,-0.15590,0.05824,
8.85156,3.90344,3.94997,-2.52040,0.14717,0.43608,0.82546,,,0.93846,0.30284,-0.15557,0.05821,
8.85938,3.76633,1.89770,-2.34451,0.22861,0.54257,0.81434,,,0.93841,0.30310,-0.15539,0.05814,
8.86719,2.49805,3.04985,-2.09826,0.16414,0.53866,0.77711,,,0.93840,0.30327,-0.15514,0.05809,
8.87500,2.08671,1.17761,-0.44485,0.17189,0.48688,0.82304,,,0.93837,0.30340,-0.15504,0.05811,
8.88281,2.18955,-0.33459,-0.33932,0.16559,0.45904,0.85931,,,0.93832,0.30354,-0.15505,0.05810,
8.89063,2.29238,-1.09069,-0.40967,0.21989,0.50251,0.85496,,,0.93826,0.30370,-0.15510,0.05808,
8.89844,3.52638,-0.65863,-0.40967,0.11178,0.56602,0.86124,,,0.93819,0.30393,-0.15512,0.05807,
8.90625,2.60088,-5.73529,2.40463,0.12729,0.47711,0.86705,,,0.93806,0.30409,-0.15552,0.05814,
8.91406,3.42355,-7.85957,3.95249,0.15541,0.47711,0.86318,,,0.93789,0.30430,-0.15609,0.05826,
8.92188,4.76039,-9.44378,5.21893,0.18062,0.56015,0.83078,,,0.93767,0.30458,-0.15678,0.05845,
8.92969,4.96605,-9.58780,5.88732,0.18595,0.54794,0.79161,,,0.93744,0.30488,-0.15750,0.05868,
8.93750,5.24028,-10.41590,7.36483,0.21989,0.49323,0.80273,,,0.93719,0.30517,-0.15829,0.05899,
8.94531,5.92583,-9.87583,6.87233,0.24800,0.48542,0.82643,,,0.93694,0.30552,-0.15904,0.05929,
8.95313,5.48022,-8.90371,6.13358,0.26691,0.47516,0.79355,,,0.93670,0.30584,-0.15972,0.05955,
8.96094,6.50856,-6.20335,4.09321,0.19128,0.56260,0.78968,,,0.93648,0.30623,-0.16017,0.05976,
8.96875,4.82894,-7.57153,3.00267,0.30133,0.50984,0.76260,,,0.93629,0.30654,-0.16070,0.05984,
8.97656,4.93178,-5.91532,2.96749,0.20680,0.49177,0.77130,,,0.93611,0.30684,-0.16112,0.05996,
8.98438,4.31477,-4.87118,0.68087,0.25867,0.55722,0.77807,,,0.93596,0.30713,-0.16142,0.05995,
8.99219,4.04055,-2.38686,-1.67611,0.29551,0.60998,0.78194,,,0.93585,0.30742,-0.16152,0.05984,
9.00000,3.08077,-2.96293,-0.90218,0.29939,0.49665,0.73649,,,0.93576,0.30764,-0.16168,0.05975,
9.00781,4.24622,-0.62263,-0.79664,0.18304,0.49421,0.86173,1021.895,25.2,0.93567,0.30792,-0.16168,0.05973,
9.01563,4.10911,-0.55062,-0.62075,0.30618,0.47711,0.87720,,,0.93558,0.30819,-0.16169,0.05973,
9.02344,3.11505,1.24962,-0.26896,0.27564,0.42631,0.77421,,,0.93553,0.30838,-0.16159,0.05977,
9.03125,4.14339,3.19387,-0.12824,0.22861,0.46588,0.78871,,,0.93548,0.30864,-0.16137,0.05988,
9.03906,4.89750,3.87796,0.39944,0.18498,0.47223,0.89364,,,0.93542,0.30893,-0.16111,0.06004,
9.04688,6.02867,2.40177,1.20855,0.23588,0.44732,0.88590,,,0.93531,0.30929,-0.16095,0.06023,
9.05469,11.03324,3.04985,-0.97254,0.17480,0.53768,0.85979,,,0.93512,0.30999,-0.16069,0.06035,
9.06250,14.52958,0.99758,-1.18361,0.19177,0.52938,0.86656,,,0.93483,0.31092,-0.16054,0.06046,
9.07031,19.87692,-1.91880,0.89194,0.09626,0.51570,0.86028,,,0.93438,0.31219,-0.16060,0.06069,
9.07813,25.12144,-6.70742,4.48017,0.22183,0.51619,0.83852,,,0.93375,0.31376,-0.16101,0.06111,
9.08594,27.65800,-7.06747,5.67625,0.19177,0.52938,0.79113,,,0.93306,0.31549,-0.16147,0.06162,
9.09375,34.47929,-7.35550,4.05803,0.21164,0.50545,0.79161,,,0.93222,0.31767,-0.16188,0.06210,
9.10156,42.67170,-6.09534,4.30428,0.18547,0.45562,0.83803,,,0.93120,0.32036,-0.16218,0.06271,
9.10938,47.71054,-5.12321,4.55053,0.11614,0.46686,0.88687,,,0.93008,0.32335,-0.16239,0.06342,
9.11719,57.68540,-10.63193,4.12839,0.16074,0.55869,0.81434,,,0.92867,0.32701,-0.16291,0.06408,
9.12500,69.78549,-13.76434,4.58571,0.10838,0.48346,0.81869,,,0.92693,0.33143,-0.16357,0.06484,
9.13281,75.50989,-16.03264,3.14338,0.18062,0.47174,0.90960,,,0.92502,0.33623,-0.16432,0.06552,
9.14063,86.71875,-19.70511,2.51016,0.16947,0.51326,0.87140,,,0.92278,0.34175,-0.16523,0.06619,
9.14844,91.92898,-23.30558,2.19355,0.23298,0.46344,0.78049,,,0.92035,0.34761,-0.16632,0.06682,
9.15625,104.33757,-25.93393,-0.12824,0.23685,0.53817,0.82740,,,0.91756,0.35426,-0.16747,0.06738,
9.16406,118.80282,-28.59827,-0.76146,0.19953,0.45709,0.84093,,,0.91433,0.36182,-0.16868,0.06800,
9.17188,125.76123,-29.46239,-3.11844,0.15783,0.49568,0.88397,,,0.91087,0.36982,-0.16985,0.06852,
9.17969,138.68398,-33.67494,-6.56596,0.27321,0.52547,0.82256,,,0.90698,0.37864,-0.17112,0.06887,
9.18750,154.76030,-35.65519,-12.79260,0.28533,0.46099,0.81724,,,0.90257,0.38850,-0.17226,0.06896,
9.19531,163.94677,-36.44730,-15.25511,0.24025,0.41508,0.87623,,,0.89782,0.39891,-0.17331,0.06897,
9.20313,182.93670,-38.03150,-22.11497,0.29067,0.42778,0.80757,,,0.89242,0.41051,-0.17416,0.06874,
9.21094,206.93120,-38.53557,-26.16053,0.27515,0.54452,0.79838,,,0.88621,0.42355,-0.17479,0.06852,
9.21875,219.51118,-37.41942,-27.70840,0.23104,0.58995,0.76792,,,0.87945,0.43726,-0.17520,0.06837,
9.22656,249.19580,-44.62036,-28.86930,0.23831,0.57725,0.83755,,,0.87149,0.45269,-0.17583,0.06828,
9.23438,264.41517,-47.10469,-29.78394,0.19856,0.57041,0.87768,,,0.86276,0.46889,-0.17644,0.06821,
9.24219,299.58425,-53.65754,-32.80932,0.31345,0.62268,0.77662,,,0.85251,0.48705,-0.17712,0.06816,
9.25000,341.47180,-63.55883,-35.27183,0.14184,0.78485,0.86269,,,0.84033,0.50747,-0.17800,0.06810,
9.25781,361.66146,-75.58440,-37.13630,0.25237,0.84494,0.91685,,,0.82681,0.52882,-0.17931,0.06772,
9.26563,394.53393,-89.62623,-44.38313,0.53161,0.78241,0.85254,,,0.81139,0.55179,-0.18087,0.06679,
9.27344,426.48089,-95.85504,-55.42926,0.39974,1.33439,1.15959,,,0.79406,0.57624,-0.18206,0.06535,
9.28125,432.20529,-109.14077,-59.22857,0.28533,1.56202,1.24808,,,0.77563,0.60057,-0.18362,0.06319,
9.28906,433.95346,-132.07576,-68.33987,0.55488,1.65337,1.06868,,,0.75614,0.62463,-0.18585,0.05957,
9.29688,423.56727,-134.77611,-77.45117,0.70516,1.79405,1.34382,,,0.73637,0.64768,-0.18769,0.05518,
9.30469,410.47313,-125.16286,-84.83871,0.74685,1.84192,1.33608,,,0.71665,0.66954,-0.18859,0.05062,
9.31250,383.70212,-90.02228,-101.72452,0.71098,1.80430,1.26790,,,0.69807,0.68963,-0.18695,0.04646,
9.32031,351.54949,-67.80738,-108.23259,0.63729,1.77255,1.36558,,,0.68081,0.70772,-0.18391,0.04259,
9.32813,330.87994,-58.73420,-109.39349,0.53839,1.63041,1.36558,,,0.66424,0.72440,-0.18035,0.03882,
9.33594,284.43344,-51.31724,-104.71471,0.41429,1.13509,1.13783,,,0.64971,0.73853,-0.17671,0.03503,
9.34375,262.42706,-45.98854,-104.74989,0.44725,0.99148,1.27032,,,0.63608,0.75137,-0.17281,0.03123,
9.35156,223.11035,-49.08494,-93.63340,0.51222,0.22506,0.90766,,,0.62419,0.76214,-0.16964,0.02728,
9.35938,223.55596,-31.51465,-98.55843,0.64456,0.31054,1.04499,,,0.61232,0.77274,-0.16542,0.02404,
9.36719,227.73786,-26.76203,-105.66454,0.85351,2.20290,2.09863,,,0.60013,0.78335,-0.16058,0.02079,
9.37500,96.00805,3.76995,-80.58208,1.31891,2.26298,3.04782,,,0.59516,0.78810,-0.15598,0.01875,
9.38281,-47.54763,49.60392,-42.87044,1.08378,1.15219,1.89844,,,0.59831,0.78654,-0.15172,0.01918,
9.39063,-82.57960,65.22996,-30.03019,0.97858,0.91577,1.77369,,,0.60345,0.78336,-0.14756,0.02060,
9.39844,-141.29757,94.50177,-14.65707,0.57524,0.29735,1.22245,,,0.61194,0.77750,-0.14308,0.02363,
9.40625,-165.08641,94.39376,-6.21417,0.25334,-0.08170,0.80805,,,0.62157,0.77045,-0.13906,0.02676,
9.41406,-168.47991,88.45298,-4.34970,0.15783,-0.16621,0.69587,,,0.63122,0.76312,-0.13538,0.02963,
9.42188,-171.18786,66.52613,-0.12824,0.03615,-0.25414,0.54404,,,0.64069,0.75556,-0.13285,0.03150,
9.42969,-169.43969,40.53074,2.89713,0.04488,-0.24632,0.49182,,,0.64974,0.74799,-0.13158,0.03218,
9.43750,-168.20569,29.47730,4.16356,0.09045,-0.20040,0.49617,,,0.65853,0.74038,-0.13085,0.03236,
9.44531,-169.06264,14.21131,6.13358,0.24219,-0.06461,0.52760,,,0.66714,0.73265,-0.13089,0.03184,
9.45313,-171.05075,11.43895,7.04822,0.32460,0.00427,0.56290,,,0.67573,0.72473,-0.13108,0.03121,
9.46094,-178.72899,14.75138,9.33484,0.45259,0.17914,0.64848,,,0.68463,0.71632,-0.13124,0.03077,
9.46875,-191.65175,25.51678,13.16933,0.51852,0.31738,0.73117,,,0.69413,0.70714,-0.13108,0.03092,
9.47656,-199.74132,31.34954,16.26506,0.52240,0.38479,0.76405,,,0.70394,0.69740,-0.13079,0.03141,
9.48438,-217.90859,39.88265,24.88386,0.51367,0.49665,0.81579,,,0.71453,0.68655,-0.13052,0.03256,
9.49219,-237.00135,43.44712,36.52803,0.50300,0.57530,0.82401,,,0.72583,0.67448,-0.13062,0.03426,
9.50000,-246.05071,43.98719,43.10646,0.49234,0.60754,0.82304,,,0.73734,0.66172,-0.13098,0.03622,
9.50781,-262.29841,42.97906,56.01706,0.47392,0.66567,0.80225,,,0.74929,0.64781,-0.13197,0.03863,
9.51563,-275.49539,40.71076,67.20391,0.44871,0.71207,0.77904,,,0.76151,0.63290,-0.13356,0.04138,
9.52344,-281.25407,39.30658,71.81233,0.42398,0.72379,0.75873,,,0.77365,0.61740,-0.13539,0.04423,
9.53125,-289.58359,35.52609,78.91844,0.40217,0.75408,0.75922,,,0.78576,0.60116,-0.13768,0.04721,
9.53906,-293.83405,30.77347,83.59721,0.36387,0.79072,0.78484,,,0.79765,0.58440,-0.14037,0.05018,
9.54688,-294.96521,27.78508,85.21544,0.33236,0.82784,0.82304,,,0.80921,0.56732,-0.14323,0.05309,
9.55469,-297.50178,20.11608,86.65777,0.29067,0.92212,0.89751,,,0.82041,0.54986,-0.14652,0.05573,
9.56250,-299.24995,15.54348,86.44669,0.27515,0.97829,0.93523,,,0.83127,0.53208,-0.14999,0.05815,
9.57031,-303.67179,4.85009,84.08972,0.26643,1.08624,0.99712,,,0.84181,0.51387,-0.15393,0.05997,
9.57813,-308.33358,-4.94319,80.11452,0.29406,1.16391,1.01791,,,0.85204,0.49523,-0.15824,0.06114,
9.58594,-310.32170,-8.72368,77.54647,0.32799,1.18101,1.01453,,,0.86189,0.47629,-0.16262,0.06199,
9.59375,-310.97297,-12.97224,72.02340,0.40362,1.21667,1.00486,,,0.87134,0.45716,-0.16700,0.06234,
9.60156,-307.20241,-12.82822,67.41498,0.48119,1.23230,0.99277,,,0.88028,0.43810,-0.17112,0.06243,
9.60938,-303.46612,-11.92810,66.18373,0.51755,1.23474,0.99277,,,0.88872,0.41907,-0.17507,0.06249,
9.61719,-293.07993,-10.19988,67.73159,0.58930,1.28408,1.02807,,,0.89650,0.40046,-0.17883,0.06279,
9.62500,-281.83679,-8.18361,73.92305,0.70516,1.33146,1.05756,,,0.90360,0.38230,-0.18252,0.06364,
9.63281,-274.80983,-6.23936,78.25004,0.75073,1.39008,1.07787,,,0.91017,0.36435,-0.18610,0.06486,
9.64063,-262.46980,0.16948,89.19064,0.82491,1.48191,1.09286,,,0.91613,0.34688,-0.18943,0.06706,
9.64844,-249.51277,6.03824,103.64911,0.70419,1.59573,1.10011,,,0.92148,0.32988,-0.19262,0.07044,
9.65625,-243.03426,5.49817,112.79559,0.59851,1.67779,1.12284,,,0.92632,0.31305,-0.19594,0.07444,
9.66406,-233.29935,-5.84331,130.94783,0.48701,1.86488,1.15427,,,0.93040,0.29656,-0.20025,0.07945,
9.67188,-230.83134,-12.32415,137.28001,0.49476,1.95915,1.13348,,,0.93399,0.28008,-0.20502,0.08474,
9.67969,-231.13984,-17.32880,140.41092,0.56942,2.08909,1.05369,,,0.93719,0.26346,-0.21010,0.09010,
9.68750,-235.97302,-9.19174,133.23445,0.55876,2.13207,0.86318,,,0.94032,0.24651,-0.21449,0.09505,
9.69531,-237.82402,-3.17896,128.23907,0.50252,2.13745,0.75196,,,0.94327,0.22938,-0.21835,0.09972,
9.70313,-239.94925,7.04637,118.67044,0.38714,2.13989,0.49472,,,0.94616,0.21212,-0.22135,0.10386,
9.71094,-236.79569,12.84313,109.45361,0.26546,1.98748,0.14705,,,0.94885,0.19509,-0.22374,0.10751,
9.71875,-230.76278,13.88726,105.09144,0.19080,1.88637,-0.01058,,,0.95122,0.17845,-0.22589,0.11096,
9.72656,-208.68784,10.46682,96.57818,-0.00990,1.79014,-0.30893,,,0.95307,0.16335,-0.22794,0.11411,
9.73438,-180.47716,-1.84679,86.23562,-0.12238,1.94596,-0.53716,,,0.95429,0.15031,-0.23040,0.11687,
9.74219,-167.28019,-9.29976,79.30541,-0.16358,2.01875,-0.67545,,,0.95515,0.13827,-0.23313,0.11930,
9.75000,-139.68651,-25.50187,62.34924,-0.25327,2.15601,-0.92206,,,0.95549,0.12840,-0.23650,0.12088,
9.75781,-110.10472,-42.28006,42.40288,-0.30223,2.13598,-1.12902,,,0.95539,0.12092,-0.24052,0.12149,
9.76563,-92.72584,-49.01293,31.28639,-0.26830,2.03096,-1.20107,,,0.95506,0.11479,-0.24473,0.12159,
9.77344,-51.14680,-52.57740,7.11858,-0.08989,1.75790,-1.22718,,,0.95451,0.11180,-0.24864,0.12078,
9.78125,-26.94663,-48.11282,-5.89756,0.01918,1.64799,-1.15900,,,0.95394,0.11056,-0.25195,0.11957,
9.78906,20.01403,-27.98619,-29.29144,0.24170,1.61771,-0.84856,,,0.95354,0.11261,-0.25338,0.11779,
9.79688,55.18312,-2.81891,-41.88544,0.36532,1.67779,-0.46366,,,0.95339,0.11696,-0.25280,0.11599,
9.80469,67.45459,8.12651,-43.15187,0.40459,1.71931,-0.27460,,,0.95332,0.12205,-0.25140,0.11441,
