Gait Up - Physilog data export
Created on: YYYY-MM-DD hh:mm:ss
Total data points: 20693

Time [128 hz],Gyro [128 hz],,,Accel [128 hz],,,Baro [1 hz],,Event [128 hz],Quaternion [128 hz],,,,
Time,Gyro X,Gyro Y,Gyro Z,Accel X,Accel Y,Accel Z,Pressure,Temperature,Quat W,Quat X,Quat Y,Quat Z,
[s],[deg/s],[deg/s],[deg/s],[g],[g],[g],[mBar],[degree C],[],[],[],[],
0.00781,0.33465,0.46665,-0.39704,0.09930,0.95625,0.28822,1022.728,24.7,0.80052,0.59656,-0.05719,-0.00180,
0.01563,0.50636,0.32418,-0.53674,0.10561,0.97186,0.30225,,,0.80050,0.59659,-0.05715,-0.00181,
0.02344,0.50636,0.21733,-0.53674,0.10464,0.95576,0.30031,,,0.80048,0.59662,-0.05712,-0.00183,
0.03125,0.50636,0.25295,-0.60659,0.10804,0.95966,0.29112,,,0.80046,0.59665,-0.05708,-0.00185,
0.03906,0.43768,0.39542,-0.53674,0.10852,0.95722,0.28338,,,0.80045,0.59668,-0.05704,-0.00186,
0.04688,0.40333,0.25295,-0.64152,0.10464,0.96601,0.29644,,,0.80043,0.59670,-0.05700,-0.00189,
0.05469,0.36899,0.43104,-0.67645,0.11095,0.96650,0.30757,,,0.80042,0.59673,-0.05695,-0.00190,
0.06250,0.40333,0.35980,-0.60659,0.10852,0.96015,0.29935,,,0.80040,0.59675,-0.05690,-0.00192,
0.07031,0.36899,0.32418,-0.60659,0.10852,0.96259,0.31144,,,0.80039,0.59677,-0.05686,-0.00194,
0.07813,0.30030,0.43104,-0.74630,0.11435,0.97284,0.30031,,,0.80038,0.59679,-0.05681,-0.00196,
0.08594,0.26596,0.25295,-0.85107,0.10852,0.96650,0.29693,,,0.80037,0.59681,-0.05676,-0.00200,
0.09375,0.36899,0.25295,-0.85107,0.10852,0.95966,0.29209,,,0.80035,0.59684,-0.05671,-0.00203,
0.10156,0.50636,0.28856,-0.85107,0.11289,0.95820,0.29160,,,0.80033,0.59687,-0.05666,-0.00206,
0.10938,0.40333,0.28856,-0.78122,0.10513,0.96894,0.28773,,,0.80032,0.59689,-0.05661,-0.00209,
0.11719,0.40333,0.60913,-0.67645,0.10076,0.96552,0.29548,,,0.80031,0.59692,-0.05655,-0.00210,
0.12500,0.40333,0.43104,-0.71137,0.10124,0.96796,0.30709,,,0.80029,0.59694,-0.05650,-0.00212,
0.13281,0.54071,0.43104,-0.67645,0.11046,0.97381,0.29838,,,0.80027,0.59697,-0.05645,-0.00214,
0.14063,0.57505,0.28856,-0.64152,0.10464,0.96698,0.29838,,,0.80025,0.59701,-0.05641,-0.00216,
0.14844,0.30030,0.39542,-0.53674,0.10076,0.96064,0.29112,,,0.80024,0.59703,-0.05636,-0.00217,
0.15625,0.33465,0.43104,-0.53674,0.10610,0.96942,0.29838,,,0.80022,0.59705,-0.05632,-0.00218,
0.16406,0.36899,0.25295,-0.64152,0.11386,0.96162,0.29644,,,0.80021,0.59707,-0.05628,-0.00221,
0.17188,0.33465,0.46665,-0.78122,0.10464,0.96796,0.29354,,,0.80020,0.59709,-0.05622,-0.00223,
0.17969,0.30030,0.11047,-0.64152,0.11143,0.95381,0.29306,,,0.80019,0.59711,-0.05619,-0.00226,
0.18750,0.36899,0.14609,-0.74630,0.11143,0.95674,0.30080,,,0.80017,0.59713,-0.05615,-0.00229,
0.19531,0.19727,0.25295,-0.71137,0.11338,0.96698,0.29886,,,0.80017,0.59715,-0.05611,-0.00232,
0.20313,0.23162,0.46665,-0.64152,0.09493,0.96747,0.30370,,,0.80016,0.59716,-0.05606,-0.00234,
0.21094,0.36899,0.32418,-0.78122,0.10852,0.96064,0.28676,,,0.80014,0.59718,-0.05601,-0.00236,
0.21875,0.23162,0.18171,-0.88600,0.10610,0.96064,0.30515,,,0.80013,0.59720,-0.05596,-0.00240,
0.22656,0.36899,0.32418,-0.74630,0.10755,0.96601,0.29935,,,0.80012,0.59722,-0.05591,-0.00243,
0.23438,0.40333,0.28856,-0.71137,0.10804,0.96796,0.29983,,,0.80011,0.59725,-0.05587,-0.00246,
0.24219,0.30030,0.18171,-0.67645,0.10804,0.95283,0.29789,,,0.80009,0.59727,-0.05583,-0.00248,
0.25000,0.43768,0.14609,-0.81615,0.10464,0.96406,0.30370,,,0.80008,0.59729,-0.05579,-0.00252,
0.25781,0.40333,0.39542,-0.67645,0.10513,0.97137,0.30757,,,0.80006,0.59732,-0.05574,-0.00254,
0.26563,0.40333,0.50227,-0.71137,0.09785,0.96454,0.30273,,,0.80005,0.59734,-0.05569,-0.00256,
0.27344,0.47202,0.07486,-0.53674,0.10804,0.95820,0.28773,,,0.80003,0.59737,-0.05566,-0.00258,
0.28125,0.40333,0.18171,-0.60659,0.10464,0.96454,0.29112,,,0.80001,0.59740,-0.05563,-0.00260,
0.28906,0.43768,0.28856,-0.64152,0.10173,0.96894,0.30128,,,0.79999,0.59742,-0.05558,-0.00263,
0.29688,0.54071,0.32418,-0.67645,0.11046,0.96894,0.30564,,,0.79997,0.59745,-0.05554,-0.00265,
0.30469,0.43768,0.46665,-0.78122,0.10124,0.96210,0.29741,,,0.79996,0.59748,-0.05548,-0.00267,
0.31250,0.36899,0.28856,-0.78122,0.10318,0.95527,0.29499,,,0.79994,0.59750,-0.05543,-0.00270,
0.32031,0.57505,0.43104,-0.78122,0.10755,0.96942,0.30031,,,0.79992,0.59754,-0.05538,-0.00272,
0.32813,0.54071,0.43104,-0.78122,0.10416,0.96991,0.30225,,,0.79990,0.59757,-0.05532,-0.00275,
0.33594,0.54071,0.28856,-0.67645,0.09979,0.96601,0.29935,,,0.79988,0.59760,-0.05528,-0.00277,
0.34375,0.36899,0.35980,-0.60659,0.10416,0.95088,0.28773,,,0.79987,0.59763,-0.05524,-0.00279,
0.35156,0.33465,0.50227,-0.71137,0.10852,0.95625,0.29064,,,0.79985,0.59765,-0.05518,-0.00280,
0.35938,0.60939,0.39542,-0.57167,0.10318,0.97089,0.29789,,,0.79983,0.59768,-0.05513,-0.00282,
0.36719,0.30030,0.28856,-0.57167,0.09979,0.96503,0.30322,,,0.79982,0.59770,-0.05510,-0.00283,
0.37500,0.33465,0.39542,-0.50182,0.10610,0.96308,0.29596,,,0.79981,0.59772,-0.05505,-0.00284,
0.38281,0.23162,0.25295,-0.50182,0.10076,0.95869,0.29160,,,0.79980,0.59773,-0.05502,-0.00286,
0.39063,0.33465,0.25295,-0.60659,0.10513,0.97040,0.29838,,,0.79979,0.59776,-0.05498,-0.00288,
0.39844,0.33465,0.28856,-0.50182,0.10949,0.96503,0.29693,,,0.79977,0.59778,-0.05495,-0.00290,
0.40625,0.12859,0.21733,-0.36212,0.10367,0.95869,0.29693,,,0.79977,0.59778,-0.05492,-0.00291,
0.41406,0.40333,0.21733,-0.64152,0.10464,0.96650,0.29983,,,0.79975,0.59781,-0.05488,-0.00293,
0.42188,0.43768,0.32418,-0.64152,0.10804,0.96552,0.29644,,,0.79974,0.59783,-0.05484,-0.00295,
0.42969,0.36899,0.32418,-0.57167,0.10318,0.96650,0.29644,,,0.79972,0.59786,-0.05480,-0.00297,
0.43750,0.30030,0.21733,-0.50182,0.09930,0.95527,0.30467,,,0.79971,0.59788,-0.05476,-0.00298,
0.44531,0.40333,0.32418,-0.64152,0.10707,0.96357,0.30128,,,0.79970,0.59790,-0.05472,-0.00300,
0.45313,0.47202,0.25295,-0.50182,0.10416,0.96845,0.28773,,,0.79968,0.59793,-0.05469,-0.00302,
0.46094,0.54071,0.18171,-0.39704,0.09639,0.96991,0.29548,,,0.79966,0.59796,-0.05466,-0.00303,
0.46875,0.26596,0.11047,-0.32719,0.10367,0.95771,0.30273,,,0.79964,0.59797,-0.05464,-0.00304,
0.47656,0.33465,0.28856,-0.43197,0.10367,0.95674,0.29402,,,0.79963,0.59799,-0.05461,-0.00306,
0.48438,0.43768,0.28856,-0.39704,0.11532,0.95722,0.28870,,,0.79962,0.59802,-0.05458,-0.00306,
0.49219,0.36899,0.28856,-0.39704,0.10270,0.96698,0.29596,,,0.79960,0.59804,-0.05454,-0.00307,
0.50000,0.23162,0.25295,-0.39704,0.10270,0.96650,0.30031,,,0.79959,0.59806,-0.05451,-0.00308,
0.50781,0.23162,0.25295,-0.43197,0.11386,0.96162,0.29693,,,0.79958,0.59807,-0.05448,-0.00309,
0.51563,0.43768,0.18171,-0.60659,0.10755,0.96552,0.28338,,,0.79957,0.59810,-0.05445,-0.00312,
0.52344,0.40333,0.25295,-0.53674,0.11240,0.97284,0.30177,,,0.79955,0.59812,-0.05441,-0.00314,
0.53125,0.40333,0.35980,-0.53674,0.10998,0.96747,0.30612,,,0.79954,0.59814,-0.05437,-0.00315,
0.53906,0.40333,0.35980,-0.64152,0.11240,0.96454,0.29693,,,0.79952,0.59817,-0.05433,-0.00317,
0.54688,0.43768,0.46665,-0.67645,0.10707,0.96162,0.28531,,,0.79950,0.59819,-0.05427,-0.00318,
0.55469,0.64374,0.18171,-0.57167,0.10464,0.96308,0.29064,,,0.79948,0.59823,-0.05424,-0.00321,
0.56250,0.23162,0.25295,-0.71137,0.10755,0.97089,0.29983,,,0.79947,0.59825,-0.05420,-0.00323,
0.57031,0.40333,0.28856,-0.60659,0.10852,0.96259,0.30273,,,0.79945,0.59827,-0.05416,-0.00325,
0.57813,0.47202,0.53789,-0.60659,0.11143,0.95966,0.30031,,,0.79944,0.59830,-0.05410,-0.00326,
0.58594,0.36899,0.21733,-0.50182,0.09542,0.96162,0.29257,,,0.79942,0.59832,-0.05407,-0.00328,
0.59375,0.30030,0.32418,-0.60659,0.10513,0.97430,0.30515,,,0.79941,0.59834,-0.05403,-0.00330,
0.60156,0.40333,0.25295,-0.53674,0.10658,0.96503,0.30467,,,0.79940,0.59836,-0.05399,-0.00332,
0.60938,0.36899,0.25295,-0.60659,0.10464,0.95186,0.28434,,,0.79938,0.59839,-0.05395,-0.00334,
0.61719,0.36899,0.21733,-0.53674,0.11095,0.95722,0.28483,,,0.79937,0.59841,-0.05392,-0.00336,
0.62500,0.30030,0.46665,-0.64152,0.10076,0.96015,0.28967,,,0.79936,0.59843,-0.05387,-0.00337,
0.63281,0.30030,0.28856,-0.60659,0.10658,0.96796,0.30806,,,0.79935,0.59845,-0.05383,-0.00339,
0.64063,0.36899,0.39542,-0.71137,0.10221,0.96015,0.29693,,,0.79933,0.59847,-0.05378,-0.00341,
0.64844,0.43768,0.32418,-0.60659,0.09882,0.95674,0.29015,,,0.79931,0.59850,-0.05374,-0.00343,
0.65625,0.36899,0.32418,-0.81615,0.11046,0.97040,0.29160,,,0.79930,0.59852,-0.05368,-0.00346,
0.66406,0.30030,0.14609,-0.88600,0.11338,0.96210,0.30273,,,0.79929,0.59854,-0.05364,-0.00350,
0.67188,0.33465,0.35980,-0.78122,0.10173,0.95966,0.29451,,,0.79928,0.59856,-0.05359,-0.00353,
0.67969,0.43768,0.35980,-0.81615,0.09833,0.96406,0.29064,,,0.79926,0.59859,-0.05354,-0.00356,
0.68750,0.50636,0.28856,-0.74630,0.10367,0.96747,0.29402,,,0.79924,0.59862,-0.05349,-0.00358,
0.69531,0.33465,0.28856,-0.57167,0.10027,0.96406,0.30515,,,0.79923,0.59864,-0.05345,-0.00360,
0.70313,0.36899,0.28856,-0.74630,0.10804,0.96210,0.30177,,,0.79921,0.59866,-0.05340,-0.00363,
0.71094,0.47202,0.28856,-0.67645,0.10561,0.96259,0.29548,,,0.79919,0.59869,-0.05336,-0.00365,
0.71875,0.54071,0.21733,-0.71137,0.10755,0.96991,0.28870,,,0.79917,0.59872,-0.05332,-0.00368,
0.72656,0.33465,0.25295,-0.71137,0.11240,0.96406,0.30177,,,0.79916,0.59874,-0.05328,-0.00371,
0.73438,0.40333,0.32418,-0.64152,0.11240,0.96698,0.30757,,,0.79914,0.59877,-0.05323,-0.00373,
0.74219,0.50636,0.32418,-0.71137,0.10707,0.96845,0.28580,,,0.79912,0.59880,-0.05319,-0.00375,
0.75000,0.50636,0.11047,-0.60659,0.10561,0.96308,0.29644,,,0.79910,0.59883,-0.05316,-0.00378,
0.75781,0.19727,0.21733,-0.57167,0.10416,0.96210,0.29499,,,0.79910,0.59884,-0.05312,-0.00380,
0.76563,0.19727,0.35980,-0.78122,0.10901,0.96650,0.30273,,,0.79909,0.59885,-0.05307,-0.00383,
0.77344,0.50636,0.21733,-0.64152,0.10221,0.96406,0.29644,,,0.79907,0.59888,-0.05303,-0.00385,
0.78125,0.47202,0.50227,-0.71137,0.10901,0.96991,0.29354,,,0.79905,0.59891,-0.05298,-0.00387,
0.78906,0.40333,0.32418,-0.64152,0.10367,0.96796,0.29741,,,0.79904,0.59893,-0.05293,-0.00389,
0.79688,0.33465,0.25295,-0.64152,0.10610,0.96552,0.30225,,,0.79902,0.59896,-0.05289,-0.00391,
0.80469,0.43768,0.39542,-0.67645,0.11095,0.96406,0.30080,,,0.79901,0.59898,-0.05284,-0.00393,
0.81250,0.43768,0.07486,-0.53674,0.10658,0.96357,0.28870,,,0.79899,0.59901,-0.05282,-0.00396,
0.82031,0.47202,0.18171,-0.50182,0.10513,0.95918,0.30128,,,0.79897,0.59904,-0.05279,-0.00397,
0.82813,0.33465,0.18171,-0.43197,0.10124,0.96308,0.30322,,,0.79896,0.59906,-0.05276,-0.00399,
0.83594,0.36899,0.46665,-0.36212,0.10221,0.96601,0.30273,,,0.79894,0.59908,-0.05272,-0.00399,
0.84375,0.26596,0.32418,-0.39704,0.10513,0.95722,0.29596,,,0.79893,0.59909,-0.05269,-0.00400,
0.85156,0.43768,0.14609,-0.46689,0.10755,0.96698,0.29112,,,0.79892,0.59912,-0.05266,-0.00401,
0.85938,0.30030,0.25295,-0.53674,0.11629,0.96064,0.29983,,,0.79891,0.59914,-0.05262,-0.00403,
0.86719,0.36899,0.39542,-0.46689,0.10901,0.96454,0.29789,,,0.79889,0.59916,-0.05258,-0.00404,
0.87500,0.36899,0.25295,-0.57167,0.10561,0.96064,0.29644,,,0.79888,0.59918,-0.05255,-0.00406,
0.88281,0.23162,0.21733,-0.53674,0.10513,0.96454,0.29789,,,0.79887,0.59920,-0.05251,-0.00408,
0.89063,0.40333,0.21733,-0.64152,0.10270,0.96015,0.29064,,,0.79885,0.59922,-0.05247,-0.00410,
0.89844,0.54071,0.18171,-0.50182,0.11580,0.96552,0.29644,,,0.79883,0.59925,-0.05244,-0.00412,
0.90625,0.43768,0.32418,-0.60659,0.11046,0.96454,0.29886,,,0.79881,0.59928,-0.05240,-0.00414,
0.91406,0.43768,0.21733,-0.57167,0.10416,0.96064,0.29838,,,0.79880,0.59930,-0.05237,-0.00416,
0.92188,0.30030,0.18171,-0.64152,0.10949,0.95576,0.29209,,,0.79879,0.59932,-0.05233,-0.00419,
0.92969,0.36899,0.18171,-0.74630,0.10998,0.96357,0.29983,,,0.79877,0.59934,-0.05229,-0.00422,
0.93750,0.54071,0.14609,-0.71137,0.10901,0.96308,0.30225,,,0.79875,0.59938,-0.05225,-0.00425,
0.94531,0.40333,0.18171,-0.67645,0.10804,0.96357,0.29741,,,0.79873,0.59940,-0.05222,-0.00428,
0.95313,0.26596,0.39542,-0.67645,0.10658,0.95234,0.29499,,,0.79872,0.59942,-0.05217,-0.00430,
0.96094,0.33465,0.28856,-0.71137,0.10658,0.96698,0.29983,,,0.79871,0.59944,-0.05212,-0.00432,
0.96875,0.43768,0.32418,-0.74630,0.10561,0.96991,0.30031,,,0.79869,0.59947,-0.05207,-0.00435,
0.97656,0.33465,0.21733,-0.67645,0.10367,0.96357,0.30177,,,0.79868,0.59949,-0.05204,-0.00437,
0.98438,0.40333,0.21733,-0.53674,0.10561,0.95820,0.28822,,,0.79866,0.59951,-0.05200,-0.00439,
0.99219,0.30030,0.28856,-0.60659,0.11143,0.96650,0.30370,,,0.79865,0.59953,-0.05196,-0.00441,
1.00000,0.47202,0.18171,-0.60659,0.09882,0.95820,0.30515,,,0.79863,0.59956,-0.05193,-0.00444,
1.00781,0.40333,0.35980,-0.57167,0.10658,0.96991,0.30273,1022.705,24.8,0.79862,0.59958,-0.05188,-0.00445,
1.01563,0.33465,0.18171,-0.64152,0.10998,0.95722,0.28870,,,0.79861,0.59960,-0.05185,-0.00448,
1.02344,0.30030,0.25295,-0.71137,0.10270,0.96162,0.28870,,,0.79859,0.59962,-0.05181,-0.00451,
1.03125,0.33465,0.28856,-0.74630,0.10318,0.97381,0.30951,,,0.79858,0.59964,-0.05176,-0.00453,
1.03906,0.33465,0.32418,-0.64152,0.10367,0.97235,0.30854,,,0.79857,0.59966,-0.05172,-0.00455,
1.04688,0.33465,0.14609,-0.60659,0.10318,0.96210,0.29741,,,0.79855,0.59968,-0.05168,-0.00458,
1.05469,0.26596,0.21733,-0.64152,0.11386,0.95966,0.29886,,,0.79854,0.59970,-0.05164,-0.00461,
1.06250,0.36899,0.35980,-0.67645,0.09833,0.96894,0.30177,,,0.79853,0.59972,-0.05160,-0.00463,
1.07031,0.36899,0.28856,-0.67645,0.10658,0.97089,0.30128,,,0.79852,0.59974,-0.05155,-0.00465,
1.07813,0.54071,0.21733,-0.64152,0.10755,0.96308,0.29789,,,0.79849,0.59978,-0.05152,-0.00467,
1.08594,0.30030,0.32418,-0.78122,0.10949,0.96503,0.29693,,,0.79848,0.59979,-0.05147,-0.00470,
1.09375,0.33465,0.28856,-0.67645,0.10270,0.97381,0.30322,,,0.79847,0.59982,-0.05142,-0.00473,
1.10156,0.30030,0.39542,-0.53674,0.10804,0.96210,0.29644,,,0.79846,0.59983,-0.05138,-0.00474,
1.10938,0.43768,0.25295,-0.64152,0.11046,0.96503,0.30225,,,0.79844,0.59986,-0.05134,-0.00476,
1.11719,0.26596,0.35980,-0.71137,0.10416,0.95430,0.29548,,,0.79843,0.59988,-0.05129,-0.00478,
1.12500,0.36899,0.11047,-0.60659,0.10173,0.96747,0.29693,,,0.79842,0.59990,-0.05126,-0.00481,
1.13281,0.47202,0.18171,-0.67645,0.10707,0.97186,0.30031,,,0.79840,0.59993,-0.05122,-0.00484,
1.14063,0.36899,0.25295,-0.71137,0.11435,0.96552,0.29693,,,0.79838,0.59995,-0.05118,-0.00487,
1.14844,0.30030,0.39542,-0.57167,0.10416,0.95625,0.29306,,,0.79837,0.59997,-0.05114,-0.00488,
1.15625,0.30030,0.18171,-0.67645,0.10658,0.96210,0.29886,,,0.79836,0.59999,-0.05110,-0.00491,
1.16406,0.54071,0.18171,-0.64152,0.11338,0.96796,0.30322,,,0.79834,0.60002,-0.05106,-0.00493,
1.17188,0.54071,0.32418,-0.53674,0.10804,0.97235,0.30370,,,0.79832,0.60005,-0.05102,-0.00495,
1.17969,0.23162,0.35980,-0.57167,0.10270,0.95722,0.29257,,,0.79831,0.60007,-0.05098,-0.00496,
1.18750,0.36899,0.50227,-0.57167,0.10707,0.96650,0.29789,,,0.79830,0.60009,-0.05093,-0.00497,
1.19531,0.36899,0.35980,-0.64152,0.11143,0.96406,0.29354,,,0.79828,0.60011,-0.05088,-0.00499,
1.20313,0.50636,0.35980,-0.67645,0.10513,0.97040,0.29644,,,0.79826,0.60014,-0.05084,-0.00501,
1.21094,0.47202,0.25295,-0.71137,0.10173,0.96113,0.29789,,,0.79824,0.60017,-0.05079,-0.00504,
1.21875,0.57505,0.25295,-0.71137,0.10561,0.96210,0.29451,,,0.79822,0.60020,-0.05075,-0.00507,
1.22656,0.54071,0.14609,-0.85107,0.10416,0.96552,0.28773,,,0.79820,0.60023,-0.05071,-0.00510,
1.23438,0.47202,0.21733,-0.74630,0.09591,0.96552,0.29354,,,0.79818,0.60026,-0.05067,-0.00513,
1.24219,0.26596,0.18171,-0.67645,0.09688,0.96552,0.30661,,,0.79817,0.60028,-0.05063,-0.00516,
1.25000,0.30030,0.18171,-0.74630,0.10270,0.95966,0.29886,,,0.79816,0.60030,-0.05059,-0.00519,
1.25781,0.36899,0.28856,-0.67645,0.09979,0.96357,0.29499,,,0.79814,0.60032,-0.05055,-0.00522,
1.26563,0.47202,0.25295,-0.60659,0.10416,0.96747,0.29983,,,0.79812,0.60035,-0.05051,-0.00524,
1.27344,0.43768,0.18171,-0.53674,0.10949,0.96894,0.29354,,,0.79811,0.60037,-0.05048,-0.00526,
1.28125,0.43768,0.14609,-0.64152,0.10416,0.96894,0.30225,,,0.79809,0.60040,-0.05044,-0.00529,
1.28906,0.40333,0.14609,-0.57167,0.10610,0.95820,0.28676,,,0.79807,0.60042,-0.05041,-0.00531,
1.29688,0.47202,0.21733,-0.57167,0.10270,0.96259,0.28918,,,0.79805,0.60045,-0.05038,-0.00533,
1.30469,0.33465,0.21733,-0.53674,0.10707,0.97089,0.29935,,,0.79804,0.60047,-0.05034,-0.00535,
1.31250,0.33465,0.07486,-0.71137,0.10901,0.95918,0.29741,,,0.79803,0.60049,-0.05031,-0.00538,
1.32031,0.33465,0.25295,-0.67645,0.10804,0.95332,0.29112,,,0.79801,0.60051,-0.05027,-0.00541,
1.32813,0.30030,0.18171,-0.67645,0.10173,0.96015,0.29064,,,0.79800,0.60053,-0.05023,-0.00544,
1.33594,0.33465,0.18171,-0.64152,0.10416,0.97089,0.29741,,,0.79799,0.60055,-0.05019,-0.00546,
1.34375,0.26596,0.21733,-0.67645,0.10513,0.96552,0.30951,,,0.79798,0.60057,-0.05016,-0.00549,
1.35156,0.40333,0.28856,-0.78122,0.10221,0.96113,0.29596,,,0.79796,0.60059,-0.05011,-0.00552,
1.35938,0.50636,0.11047,-0.67645,0.10076,0.96357,0.28918,,,0.79794,0.60062,-0.05007,-0.00555,
1.36719,0.40333,0.00362,-0.67645,0.10221,0.96650,0.29886,,,0.79793,0.60065,-0.05005,-0.00559,
1.37500,0.36899,0.25295,-0.53674,0.10513,0.96650,0.30128,,,0.79791,0.60067,-0.05001,-0.00560,
1.38281,0.36899,0.43104,-0.64152,0.10852,0.96064,0.28870,,,0.79790,0.60069,-0.04996,-0.00562,
1.39063,0.40333,0.39542,-0.57167,0.09736,0.96406,0.28773,,,0.79788,0.60072,-0.04992,-0.00563,
1.39844,0.36899,0.43104,-0.53674,0.10318,0.97089,0.29354,,,0.79787,0.60074,-0.04987,-0.00564,
1.40625,0.43768,0.11047,-0.60659,0.10367,0.96601,0.31048,,,0.79785,0.60077,-0.04984,-0.00567,
1.41406,0.40333,0.14609,-0.46689,0.10318,0.95869,0.29741,,,0.79783,0.60079,-0.04981,-0.00569,
1.42188,0.54071,0.07486,-0.64152,0.09833,0.96601,0.29306,,,0.79781,0.60082,-0.04978,-0.00572,
1.42969,0.30030,0.28856,-0.67645,0.09930,0.96503,0.29499,,,0.79780,0.60084,-0.04974,-0.00574,
1.43750,0.26596,0.18171,-0.57167,0.10270,0.96454,0.30515,,,0.79779,0.60086,-0.04971,-0.00577,
1.44531,0.16293,0.35980,-0.64152,0.10124,0.96064,0.29451,,,0.79778,0.60087,-0.04966,-0.00579,
1.45313,0.36899,0.28856,-0.67645,0.10124,0.95869,0.29015,,,0.79777,0.60089,-0.04962,-0.00581,
1.46094,0.43768,0.14609,-0.67645,0.09833,0.96259,0.29935,,,0.79775,0.60092,-0.04958,-0.00584,
1.46875,0.26596,0.18171,-0.60659,0.11143,0.96894,0.29983,,,0.79774,0.60093,-0.04955,-0.00586,
1.47656,0.19727,0.25295,-0.74630,0.11289,0.96650,0.29935,,,0.79773,0.60095,-0.04950,-0.00589,
1.48438,0.57505,0.21733,-0.64152,0.10318,0.95918,0.29112,,,0.79771,0.60098,-0.04947,-0.00592,
1.49219,0.30030,0.35980,-0.53674,0.10173,0.96552,0.29015,,,0.79770,0.60100,-0.04942,-0.00593,
1.50000,0.19727,0.28856,-0.57167,0.10270,0.96552,0.29741,,,0.79769,0.60101,-0.04939,-0.00595,
1.50781,0.26596,0.21733,-0.50182,0.11289,0.96845,0.30080,,,0.79768,0.60103,-0.04935,-0.00597,
1.51563,0.47202,0.35980,-0.60659,0.10173,0.95966,0.28822,,,0.79766,0.60105,-0.04931,-0.00598,
1.52344,0.54071,0.25295,-0.57167,0.10561,0.96015,0.29306,,,0.79764,0.60109,-0.04927,-0.00600,
1.53125,0.40333,0.21733,-0.64152,0.10755,0.95722,0.29499,,,0.79763,0.60111,-0.04923,-0.00603,
1.53906,0.43768,0.14609,-0.60659,0.10513,0.96259,0.30854,,,0.79761,0.60114,-0.04920,-0.00605,
1.54688,0.47202,0.50227,-0.57167,0.10949,0.96064,0.29838,,,0.79759,0.60116,-0.04915,-0.00606,
1.55469,0.43768,0.32418,-0.60659,0.10270,0.95820,0.29112,,,0.79757,0.60119,-0.04911,-0.00608,
1.56250,0.36899,0.28856,-0.60659,0.10998,0.96503,0.29354,,,0.79756,0.60121,-0.04907,-0.00610,
1.57031,0.33465,0.28856,-0.71137,0.09930,0.96162,0.30661,,,0.79755,0.60123,-0.04902,-0.00612,
1.57813,0.50636,0.25295,-0.60659,0.09979,0.95478,0.30031,,,0.79753,0.60126,-0.04899,-0.00615,
1.58594,0.43768,0.28856,-0.50182,0.10464,0.96113,0.28531,,,0.79751,0.60129,-0.04895,-0.00616,
1.59375,0.54071,0.18171,-0.46689,0.10027,0.96991,0.29644,,,0.79749,0.60132,-0.04892,-0.00618,
1.60156,0.26596,0.28856,-0.53674,0.10561,0.96357,0.30322,,,0.79748,0.60133,-0.04888,-0.00619,
1.60938,0.47202,0.39542,-0.74630,0.10949,0.97235,0.31628,,,0.79746,0.60136,-0.04883,-0.00621,
1.61719,0.30030,0.43104,-0.53674,0.10076,0.96357,0.29596,,,0.79745,0.60138,-0.04879,-0.00622,
1.62500,0.30030,0.39542,-0.67645,0.10658,0.97040,0.28725,,,0.79744,0.60140,-0.04874,-0.00624,
1.63281,0.09424,0.28856,-0.64152,0.11095,0.96747,0.30031,,,0.79743,0.60141,-0.04869,-0.00627,
1.64063,0.36899,0.35980,-0.85107,0.11192,0.96845,0.30999,,,0.79742,0.60143,-0.04864,-0.00630,
1.64844,0.40333,0.18171,-0.71137,0.09785,0.96845,0.29983,,,0.79740,0.60146,-0.04860,-0.00633,
1.65625,0.43768,0.32418,-0.60659,0.10173,0.97479,0.31241,,,0.79738,0.60148,-0.04856,-0.00635,
1.66406,0.33465,0.35980,-0.64152,0.10270,0.95918,0.29112,,,0.79737,0.60150,-0.04851,-0.00636,
1.67188,0.40333,0.32418,-0.71137,0.11046,0.96698,0.29886,,,0.79736,0.60153,-0.04847,-0.00639,
1.67969,0.60939,0.46665,-0.57167,0.10173,0.97577,0.30322,,,0.79733,0.60156,-0.04842,-0.00640,
1.68750,0.40333,0.28856,-0.50182,0.09348,0.96406,0.30806,,,0.79732,0.60158,-0.04838,-0.00641,
1.69531,0.36899,0.07486,-0.46689,0.10755,0.95332,0.29499,,,0.79730,0.60161,-0.04836,-0.00643,
1.70313,0.50636,0.14609,-0.46689,0.10367,0.96162,0.31048,,,0.79728,0.60164,-0.04833,-0.00645,
1.71094,0.40333,0.32418,-0.39704,0.10804,0.96845,0.28967,,,0.79727,0.60166,-0.04830,-0.00646,
1.71875,0.50636,0.14609,-0.39704,0.09591,0.96454,0.29451,,,0.79724,0.60169,-0.04827,-0.00647,
1.72656,0.26596,0.14609,-0.36212,0.10416,0.94795,0.29112,,,0.79723,0.60170,-0.04825,-0.00649,
1.73438,0.30030,0.18171,-0.57167,0.10707,0.96308,0.29983,,,0.79722,0.60172,-0.04822,-0.00651,
1.74219,0.43768,0.18171,-0.57167,0.09542,0.97089,0.30806,,,0.79720,0.60175,-0.04819,-0.00653,
1.75000,0.47202,0.46665,-0.64152,0.10076,0.96845,0.29693,,,0.79719,0.60178,-0.04813,-0.00654,
1.75781,0.33465,0.28856,-0.64152,0.10270,0.95674,0.29354,,,0.79717,0.60180,-0.04809,-0.00657,
1.76563,0.26596,0.35980,-0.71137,0.10318,0.96210,0.30273,,,0.79716,0.60181,-0.04804,-0.00659,
1.77344,0.47202,0.35980,-0.81615,0.10173,0.96942,0.29935,,,0.79714,0.60184,-0.04799,-0.00662,
1.78125,0.54071,0.28856,-0.57167,0.09736,0.96552,0.29886,,,0.79712,0.60187,-0.04795,-0.00663,
1.78906,0.40333,0.28856,-0.50182,0.11095,0.96308,0.29983,,,0.79711,0.60190,-0.04792,-0.00665,
1.79688,0.30030,0.43104,-0.64152,0.10221,0.96454,0.28967,,,0.79710,0.60192,-0.04787,-0.00666,
1.80469,0.43768,0.39542,-0.71137,0.10561,0.97479,0.30322,,,0.79708,0.60194,-0.04782,-0.00669,
1.81250,0.36899,0.43104,-0.67645,0.09493,0.96162,0.29838,,,0.79707,0.60196,-0.04777,-0.00670,
1.82031,0.36899,0.25295,-0.50182,0.10610,0.96942,0.29257,,,0.79705,0.60199,-0.04773,-0.00672,
1.82813,0.23162,0.35980,-0.46689,0.10076,0.96357,0.29257,,,0.79704,0.60200,-0.04769,-0.00673,
1.83594,0.43768,0.21733,-0.29227,0.10561,0.97430,0.30564,,,0.79702,0.60202,-0.04767,-0.00673,
1.84375,0.33465,0.18171,-0.36212,0.10901,0.96503,0.29741,,,0.79701,0.60204,-0.04764,-0.00675,
1.85156,0.33465,0.07486,-0.46689,0.10949,0.96259,0.29886,,,0.79700,0.60206,-0.04762,-0.00677,
1.85938,0.30030,0.46665,-0.57167,0.11386,0.96698,0.29596,,,0.79699,0.60208,-0.04757,-0.00678,
1.86719,0.26596,0.25295,-0.53674,0.10610,0.95869,0.29209,,,0.79698,0.60210,-0.04754,-0.00680,
1.87500,0.30030,0.21733,-0.50182,0.10852,0.95966,0.29741,,,0.79696,0.60212,-0.04750,-0.00681,
1.88281,0.40333,0.00362,-0.50182,0.10949,0.95674,0.29402,,,0.79695,0.60214,-0.04748,-0.00684,
1.89063,0.30030,0.21733,-0.46689,0.10318,0.96357,0.30419,,,0.79694,0.60216,-0.04745,-0.00685,
1.89844,0.36899,0.28856,-0.60659,0.11192,0.96503,0.30128,,,0.79692,0.60218,-0.04741,-0.00687,
1.90625,0.43768,0.28856,-0.60659,0.10027,0.96942,0.29499,,,0.79690,0.60221,-0.04737,-0.00689,
1.91406,0.43768,0.25295,-0.60659,0.10804,0.96991,0.30273,,,0.79689,0.60223,-0.04733,-0.00691,
1.92188,0.36899,0.21733,-0.57167,0.10318,0.96454,0.29983,,,0.79687,0.60225,-0.04730,-0.00694,
1.92969,0.36899,0.32418,-0.60659,0.10707,0.96308,0.29838,,,0.79686,0.60228,-0.04726,-0.00695,
1.93750,0.36899,0.28856,-0.57167,0.10270,0.96503,0.29499,,,0.79684,0.60230,-0.04722,-0.00697,
1.94531,0.16293,0.28856,-0.57167,0.09688,0.96503,0.29693,,,0.79684,0.60231,-0.04718,-0.00699,
1.95313,0.36899,0.18171,-0.64152,0.09930,0.96259,0.30419,,,0.79682,0.60233,-0.04714,-0.00702,
1.96094,0.43768,0.35980,-0.57167,0.10901,0.96162,0.28870,,,0.79681,0.60236,-0.04710,-0.00703,
1.96875,0.36899,0.25295,-0.60659,0.11143,0.96406,0.29935,,,0.79679,0.60238,-0.04706,-0.00705,
1.97656,0.33465,0.32418,-0.57167,0.09785,0.96503,0.30322,,,0.79678,0.60240,-0.04702,-0.00707,
1.98438,0.26596,0.21733,-0.60659,0.10658,0.96503,0.29935,,,0.79677,0.60242,-0.04698,-0.00709,
1.99219,0.26596,0.11047,-0.67645,0.11143,0.96601,0.29886,,,0.79676,0.60243,-0.04695,-0.00712,
2.00000,0.33465,0.32418,-0.64152,0.10318,0.96601,0.28967,,,0.79674,0.60245,-0.04691,-0.00715,
2.00781,0.43768,0.18171,-0.67645,0.09930,0.96747,0.29644,1022.769,24.8,0.79673,0.60248,-0.04687,-0.00717,
2.01563,0.26596,0.21733,-0.78122,0.11289,0.96601,0.29693,,,0.79671,0.60250,-0.04683,-0.00721,
2.02344,0.26596,0.14609,-0.81615,0.10852,0.96503,0.29935,,,0.79670,0.60251,-0.04678,-0.00724,
2.03125,0.43768,0.25295,-0.57167,0.10318,0.96064,0.29209,,,0.79669,0.60254,-0.04675,-0.00726,
2.03906,0.47202,0.11047,-0.50182,0.10707,0.95820,0.29209,,,0.79667,0.60257,-0.04672,-0.00728,
2.04688,0.33465,0.21733,-0.53674,0.09979,0.97089,0.30854,,,0.79665,0.60259,-0.04669,-0.00730,
2.05469,0.36899,0.35980,-0.43197,0.10318,0.95332,0.29983,,,0.79664,0.60261,-0.04665,-0.00731,
2.06250,0.36899,0.46665,-0.53674,0.10707,0.96503,0.29644,,,0.79663,0.60263,-0.04660,-0.00732,
2.07031,0.47202,0.25295,-0.57167,0.09833,0.95869,0.28338,,,0.79661,0.60266,-0.04657,-0.00734,
2.07813,0.40333,0.25295,-0.43197,0.11046,0.97528,0.30128,,,0.79659,0.60268,-0.04653,-0.00735,
2.08594,0.23162,0.25295,-0.43197,0.11386,0.96454,0.30709,,,0.79658,0.60269,-0.04650,-0.00736,
2.09375,0.19727,0.28856,-0.46689,0.10852,0.95820,0.28870,,,0.79657,0.60271,-0.04647,-0.00737,
2.10156,0.30030,0.32418,-0.43197,0.11192,0.96747,0.30177,,,0.79656,0.60272,-0.04643,-0.00738,
2.10938,0.23162,0.25295,-0.57167,0.11483,0.97089,0.29789,,,0.79655,0.60274,-0.04640,-0.00740,
2.11719,0.30030,0.39542,-0.57167,0.09591,0.96796,0.30999,,,0.79654,0.60276,-0.04635,-0.00742,
2.12500,0.30030,0.35980,-0.57167,0.10464,0.95527,0.29209,,,0.79653,0.60278,-0.04631,-0.00743,
2.13281,0.43768,0.39542,-0.50182,0.09882,0.95966,0.28241,,,0.79651,0.60280,-0.04627,-0.00744,
2.14063,0.50636,0.25295,-0.57167,0.10804,0.96991,0.28386,,,0.79649,0.60283,-0.04623,-0.00746,
2.14844,0.47202,0.32418,-0.46689,0.10658,0.96454,0.30322,,,0.79647,0.60286,-0.04619,-0.00747,
2.15625,0.40333,0.28856,-0.46689,0.10658,0.95674,0.29838,,,0.79646,0.60288,-0.04616,-0.00748,
2.16406,0.50636,0.32418,-0.46689,0.10416,0.96650,0.29886,,,0.79644,0.60291,-0.04612,-0.00749,
2.17188,0.40333,0.18171,-0.46689,0.10124,0.96552,0.29693,,,0.79642,0.60293,-0.04609,-0.00751,
2.17969,0.40333,0.21733,-0.32719,0.10173,0.96894,0.30999,,,0.79641,0.60296,-0.04607,-0.00752,
2.18750,0.33465,0.28856,-0.46689,0.10561,0.96552,0.30370,,,0.79639,0.60298,-0.04603,-0.00753,
2.19531,0.40333,0.03924,-0.53674,0.10852,0.95820,0.28918,,,0.79638,0.60300,-0.04601,-0.00756,
2.20313,0.30030,0.25295,-0.50182,0.10513,0.96747,0.28967,,,0.79636,0.60302,-0.04598,-0.00757,
2.21094,0.36899,0.32418,-0.50182,0.10610,0.96454,0.29693,,,0.79635,0.60304,-0.04594,-0.00759,
2.21875,0.26596,0.18171,-0.57167,0.10270,0.96503,0.30031,,,0.79634,0.60306,-0.04590,-0.00761,
2.22656,0.33465,0.28856,-0.78122,0.10464,0.95918,0.29402,,,0.79633,0.60308,-0.04586,-0.00764,
2.23438,0.47202,0.25295,-0.67645,0.10367,0.97040,0.29160,,,0.79631,0.60311,-0.04582,-0.00766,
2.24219,0.26596,0.14609,-0.71137,0.10804,0.96845,0.29596,,,0.79630,0.60312,-0.04578,-0.00770,
2.25000,0.40333,0.11047,-0.74630,0.10707,0.96942,0.29789,,,0.79628,0.60315,-0.04574,-0.00773,
2.25781,0.40333,0.14609,-0.64152,0.10755,0.96747,0.29257,,,0.79626,0.60317,-0.04571,-0.00776,
2.26563,0.33465,0.32418,-0.67645,0.10707,0.96747,0.29644,,,0.79625,0.60319,-0.04566,-0.00778,
2.27344,0.43768,0.14609,-0.64152,0.10901,0.96357,0.29451,,,0.79623,0.60322,-0.04563,-0.00781,
2.28125,0.40333,0.14609,-0.57167,0.10901,0.96308,0.29886,,,0.79622,0.60324,-0.04560,-0.00783,
2.28906,0.43768,0.14609,-0.53674,0.11192,0.96357,0.29935,,,0.79620,0.60327,-0.04557,-0.00785,
2.29688,0.36899,0.35980,-0.57167,0.10270,0.96064,0.29789,,,0.79618,0.60329,-0.04552,-0.00787,
2.30469,0.40333,0.18171,-0.46689,0.10561,0.96162,0.29354,,,0.79617,0.60331,-0.04550,-0.00788,
2.31250,0.30030,0.28856,-0.46689,0.09785,0.96162,0.29838,,,0.79616,0.60333,-0.04546,-0.00790,
2.32031,0.33465,0.50227,-0.46689,0.09882,0.97089,0.30903,,,0.79614,0.60335,-0.04542,-0.00790,
2.32813,0.26596,0.43104,-0.50182,0.10804,0.96552,0.29693,,,0.79613,0.60337,-0.04537,-0.00791,
2.33594,0.47202,0.25295,-0.71137,0.10124,0.96503,0.29064,,,0.79611,0.60339,-0.04533,-0.00794,
2.34375,0.33465,0.25295,-0.71137,0.10998,0.96259,0.29499,,,0.79610,0.60341,-0.04529,-0.00796,
2.35156,0.43768,0.25295,-0.78122,0.10804,0.96894,0.30661,,,0.79608,0.60344,-0.04524,-0.00799,
2.35938,0.36899,0.53789,-0.78122,0.09882,0.96308,0.29160,,,0.79607,0.60346,-0.04518,-0.00801,
2.36719,0.43768,0.28856,-0.71137,0.10367,0.96601,0.29015,,,0.79605,0.60349,-0.04513,-0.00804,
2.37500,0.33465,0.28856,-0.60659,0.10027,0.96503,0.29838,,,0.79604,0.60351,-0.04509,-0.00806,
2.38281,0.50636,0.32418,-0.57167,0.09688,0.96698,0.30806,,,0.79602,0.60354,-0.04505,-0.00807,
2.39063,0.47202,0.35980,-0.50182,0.10852,0.96601,0.30370,,,0.79600,0.60357,-0.04501,-0.00809,
2.39844,0.40333,0.32418,-0.43197,0.10221,0.96113,0.29402,,,0.79598,0.60359,-0.04498,-0.00809,
2.40625,0.23162,0.32418,-0.46689,0.10707,0.95820,0.29257,,,0.79598,0.60360,-0.04494,-0.00811,
2.41406,0.26596,0.21733,-0.43197,0.11095,0.96552,0.30951,,,0.79597,0.60362,-0.04491,-0.00812,
2.42188,0.36899,0.32418,-0.64152,0.09882,0.97186,0.30999,,,0.79595,0.60364,-0.04487,-0.00814,
2.42969,0.47202,0.32418,-0.46689,0.10221,0.95674,0.29935,,,0.79593,0.60367,-0.04483,-0.00815,
2.43750,0.47202,0.11047,-0.64152,0.10707,0.94990,0.28676,,,0.79591,0.60370,-0.04480,-0.00818,
2.44531,0.33465,0.21733,-0.50182,0.10221,0.96552,0.30225,,,0.79590,0.60372,-0.04477,-0.00820,
2.45313,0.40333,0.25295,-0.53674,0.10173,0.96991,0.29886,,,0.79588,0.60374,-0.04473,-0.00821,
2.46094,0.47202,0.32418,-0.39704,0.10076,0.96210,0.29741,,,0.79586,0.60377,-0.04470,-0.00822,
2.46875,0.19727,0.21733,-0.53674,0.10270,0.94942,0.29644,,,0.79586,0.60378,-0.04466,-0.00824,
2.47656,0.50636,0.21733,-0.57167,0.10318,0.97381,0.30854,,,0.79584,0.60381,-0.04463,-0.00826,
2.48438,0.40333,0.39542,-0.46689,0.10416,0.96503,0.30951,,,0.79582,0.60383,-0.04459,-0.00827,
2.49219,0.43768,0.35980,-0.46689,0.10270,0.96454,0.29451,,,0.79580,0.60386,-0.04455,-0.00828,
2.50000,0.40333,0.18171,-0.39704,0.10416,0.95674,0.29741,,,0.79579,0.60388,-0.04452,-0.00829,
2.50781,0.40333,0.28856,-0.67645,0.10270,0.96650,0.29354,,,0.79577,0.60390,-0.04448,-0.00831,
2.51563,0.33465,0.43104,-0.64152,0.10755,0.97528,0.30177,,,0.79576,0.60393,-0.04443,-0.00833,
2.52344,0.36899,0.25295,-0.57167,0.10076,0.96454,0.29741,,,0.79574,0.60395,-0.04439,-0.00835,
2.53125,0.36899,0.14609,-0.46689,0.10658,0.96162,0.29306,,,0.79573,0.60397,-0.04437,-0.00837,
2.53906,0.43768,0.18171,-0.50182,0.10755,0.96308,0.29693,,,0.79571,0.60399,-0.04434,-0.00839,
2.54688,0.30030,0.39542,-0.50182,0.10367,0.97284,0.30757,,,0.79570,0.60401,-0.04430,-0.00840,
2.55469,0.33465,0.18171,-0.36212,0.10027,0.96698,0.30564,,,0.79569,0.60403,-0.04427,-0.00841,
2.56250,0.40333,0.28856,-0.36212,0.10513,0.96747,0.30757,,,0.79567,0.60405,-0.04424,-0.00841,
2.57031,0.19727,0.25295,-0.43197,0.10658,0.95722,0.29499,,,0.79566,0.60407,-0.04421,-0.00843,
2.57813,0.67808,0.18171,-0.39704,0.10270,0.96747,0.29693,,,0.79563,0.60410,-0.04418,-0.00844,
2.58594,0.54071,0.32418,-0.50182,0.11143,0.96552,0.29693,,,0.79561,0.60414,-0.04415,-0.00845,
2.59375,0.50636,0.21733,-0.46689,0.10124,0.96162,0.29354,,,0.79559,0.60416,-0.04412,-0.00846,
2.60156,0.43768,0.18171,-0.53674,0.10318,0.96210,0.30564,,,0.79557,0.60419,-0.04408,-0.00848,
2.60938,0.23162,0.35980,-0.50182,0.10513,0.96552,0.30128,,,0.79557,0.60420,-0.04404,-0.00850,
2.61719,0.57505,0.32418,-0.50182,0.10852,0.96698,0.29789,,,0.79554,0.60424,-0.04401,-0.00851,
2.62500,0.36899,0.18171,-0.53674,0.11046,0.96503,0.30128,,,0.79553,0.60426,-0.04397,-0.00853,
2.63281,0.40333,0.11047,-0.43197,0.10416,0.95576,0.29838,,,0.79551,0.60428,-0.04395,-0.00855,
2.64063,0.30030,0.39542,-0.50182,0.11192,0.96064,0.30515,,,0.79550,0.60430,-0.04391,-0.00856,
2.64844,0.50636,0.25295,-0.57167,0.10464,0.96357,0.28725,,,0.79548,0.60433,-0.04387,-0.00858,
2.65625,0.43768,0.21733,-0.53674,0.10755,0.97284,0.30080,,,0.79546,0.60435,-0.04384,-0.00859,
2.66406,0.30030,0.43104,-0.57167,0.10367,0.95820,0.30322,,,0.79545,0.60437,-0.04379,-0.00861,
2.67188,0.36899,0.21733,-0.46689,0.10949,0.96991,0.29402,,,0.79544,0.60439,-0.04376,-0.00862,
2.67969,0.54071,0.35980,-0.60659,0.10804,0.96601,0.29693,,,0.79541,0.60443,-0.04372,-0.00864,
2.68750,0.50636,0.53789,-0.43197,0.09542,0.96308,0.29548,,,0.79539,0.60446,-0.04367,-0.00864,
2.69531,0.47202,0.25295,-0.36212,0.09979,0.96259,0.30322,,,0.79538,0.60448,-0.04364,-0.00865,
2.70313,0.54071,0.25295,-0.39704,0.10318,0.96162,0.29596,,,0.79535,0.60451,-0.04361,-0.00866,
2.71094,0.54071,0.35980,-0.39704,0.10804,0.97137,0.29644,,,0.79533,0.60454,-0.04358,-0.00866,
2.71875,0.36899,0.39542,-0.25734,0.10221,0.96796,0.29257,,,0.79532,0.60456,-0.04354,-0.00866,
2.72656,0.33465,0.11047,-0.29227,0.10124,0.96454,0.31386,,,0.79530,0.60458,-0.04353,-0.00867,
2.73438,0.19727,0.14609,-0.29227,0.10804,0.95625,0.29064,,,0.79530,0.60459,-0.04351,-0.00868,
2.74219,0.36899,0.35980,-0.39704,0.10949,0.96503,0.29693,,,0.79528,0.60462,-0.04347,-0.00868,
2.75000,0.30030,0.39542,-0.22242,0.10464,0.96650,0.29644,,,0.79527,0.60463,-0.04344,-0.00868,
2.75781,0.40333,0.18171,-0.32719,0.10755,0.96552,0.29838,,,0.79525,0.60466,-0.04342,-0.00869,
2.76563,0.26596,0.32418,-0.43197,0.11726,0.96601,0.30999,,,0.79524,0.60467,-0.04338,-0.00870,
2.77344,0.47202,0.25295,-0.50182,0.10561,0.96552,0.28773,,,0.79523,0.60470,-0.04335,-0.00871,
2.78125,0.40333,0.28856,-0.53674,0.10513,0.96698,0.29306,,,0.79521,0.60472,-0.04331,-0.00873,
2.78906,0.36899,0.25295,-0.43197,0.10464,0.96894,0.30564,,,0.79519,0.60474,-0.04328,-0.00874,
2.79688,0.30030,0.32418,-0.46689,0.10221,0.96406,0.30903,,,0.79518,0.60476,-0.04324,-0.00875,
2.80469,0.33465,0.43104,-0.53674,0.10367,0.96454,0.28822,,,0.79517,0.60478,-0.04320,-0.00876,
2.81250,0.43768,0.39542,-0.53674,0.10416,0.96259,0.29354,,,0.79515,0.60481,-0.04315,-0.00877,
2.82031,0.43768,0.14609,-0.53674,0.10852,0.97235,0.29402,,,0.79514,0.60483,-0.04312,-0.00879,
2.82813,0.40333,0.25295,-0.50182,0.11338,0.96113,0.30273,,,0.79512,0.60486,-0.04309,-0.00881,
2.83594,0.43768,0.25295,-0.39704,0.10027,0.95430,0.29257,,,0.79510,0.60488,-0.04306,-0.00882,
2.84375,0.40333,0.43104,-0.39704,0.10804,0.95430,0.28676,,,0.79509,0.60491,-0.04302,-0.00882,
2.85156,0.19727,0.25295,-0.43197,0.10658,0.96991,0.30322,,,0.79508,0.60492,-0.04299,-0.00883,
2.85938,0.23162,0.21733,-0.36212,0.10610,0.96357,0.31386,,,0.79507,0.60493,-0.04296,-0.00884,
2.86719,0.30030,0.43104,-0.46689,0.10270,0.96162,0.29354,,,0.79506,0.60495,-0.04292,-0.00885,
2.87500,0.40333,0.25295,-0.57167,0.10707,0.96015,0.28628,,,0.79504,0.60497,-0.04288,-0.00887,
2.88281,0.40333,0.32418,-0.46689,0.10561,0.96454,0.29886,,,0.79503,0.60500,-0.04285,-0.00888,
2.89063,0.23162,0.35980,-0.43197,0.10318,0.96601,0.31193,,,0.79502,0.60501,-0.04281,-0.00889,
2.89844,0.33465,0.46665,-0.57167,0.10416,0.96162,0.29160,,,0.79500,0.60503,-0.04276,-0.00890,
2.90625,0.47202,0.21733,-0.57167,0.10658,0.96601,0.29112,,,0.79498,0.60506,-0.04273,-0.00892,
2.91406,0.36899,0.28856,-0.71137,0.10998,0.96698,0.29015,,,0.79497,0.60508,-0.04268,-0.00894,
2.92188,0.33465,0.18171,-0.50182,0.10561,0.96503,0.30661,,,0.79496,0.60510,-0.04265,-0.00896,
2.92969,0.33465,0.35980,-0.60659,0.10173,0.96064,0.30467,,,0.79494,0.60512,-0.04261,-0.00898,
2.93750,0.43768,0.25295,-0.60659,0.10513,0.96601,0.29015,,,0.79493,0.60515,-0.04257,-0.00900,
2.94531,0.40333,0.21733,-0.43197,0.10367,0.96601,0.28725,,,0.79491,0.60517,-0.04254,-0.00901,
2.95313,0.33465,0.21733,-0.43197,0.10707,0.96747,0.30128,,,0.79490,0.60519,-0.04251,-0.00903,
2.96094,0.47202,0.03924,-0.43197,0.10804,0.96601,0.30467,,,0.79488,0.60521,-0.04249,-0.00905,
2.96875,0.33465,0.32418,-0.36212,0.10658,0.96650,0.29644,,,0.79486,0.60523,-0.04246,-0.00905,
2.97656,0.40333,0.07486,-0.25734,0.10513,0.97089,0.29064,,,0.79485,0.60526,-0.04244,-0.00906,
2.98438,0.26596,0.07486,-0.22242,0.11240,0.96503,0.29306,,,0.79484,0.60527,-0.04243,-0.00907,
2.99219,0.40333,0.18171,-0.29227,0.11095,0.96698,0.30903,,,0.79482,0.60529,-0.04241,-0.00908,
3.00000,0.30030,0.21733,-0.46689,0.10173,0.96357,0.29499,,,0.79481,0.60531,-0.04238,-0.00909,
3.00781,0.33465,0.21733,-0.39704,0.10027,0.96406,0.28918,1022.723,24.8,0.79479,0.60533,-0.04235,-0.00911,
3.01563,0.33465,0.18171,-0.29227,0.11289,0.95918,0.29160,,,0.79478,0.60535,-0.04233,-0.00911,
3.02344,0.16293,0.07486,-0.50182,0.11677,0.96357,0.29935,,,0.79477,0.60536,-0.04230,-0.00914,
3.03125,0.30030,0.28856,-0.53674,0.10124,0.96698,0.29983,,,0.79476,0.60538,-0.04227,-0.00915,
3.03906,0.43768,0.25295,-0.60659,0.10076,0.96650,0.30080,,,0.79474,0.60540,-0.04223,-0.00917,
3.04688,0.16293,0.25295,-0.50182,0.10561,0.96942,0.29789,,,0.79474,0.60542,-0.04219,-0.00919,
3.05469,0.33465,0.18171,-0.53674,0.10852,0.96454,0.30225,,,0.79472,0.60543,-0.04216,-0.00921,
3.06250,0.50636,-0.03200,-0.57167,0.10804,0.96650,0.29983,,,0.79470,0.60546,-0.04214,-0.00924,
3.07031,0.43768,0.21733,-0.57167,0.09930,0.96796,0.29451,,,0.79468,0.60549,-0.04211,-0.00926,
3.07813,0.43768,0.14609,-0.43197,0.10270,0.96259,0.29548,,,0.79467,0.60551,-0.04208,-0.00928,
3.08594,0.26596,0.14609,-0.43197,0.10367,0.95674,0.29693,,,0.79466,0.60553,-0.04205,-0.00930,
3.09375,0.50636,0.25295,-0.43197,0.10707,0.96552,0.30467,,,0.79464,0.60556,-0.04202,-0.00931,
3.10156,0.47202,0.25295,-0.46689,0.10464,0.96503,0.29983,,,0.79462,0.60559,-0.04199,-0.00932,
3.10938,0.36899,0.11047,-0.39704,0.10707,0.96454,0.29596,,,0.79460,0.60561,-0.04197,-0.00934,
3.11719,0.36899,0.14609,-0.43197,0.10755,0.96113,0.30273,,,0.79459,0.60563,-0.04194,-0.00935,
3.12500,0.47202,0.46665,-0.57167,0.10173,0.96796,0.30661,,,0.79457,0.60566,-0.04189,-0.00936,
3.13281,0.47202,0.39542,-0.60659,0.09882,0.96601,0.30080,,,0.79455,0.60568,-0.04185,-0.00938,
3.14063,0.36899,0.11047,-0.53674,0.10318,0.96991,0.30370,,,0.79453,0.60571,-0.04182,-0.00940,
3.14844,0.43768,0.28856,-0.78122,0.09930,0.95918,0.29402,,,0.79452,0.60573,-0.04177,-0.00943,
3.15625,0.43768,0.11047,-0.74630,0.10804,0.96113,0.30612,,,0.79450,0.60576,-0.04174,-0.00946,
3.16406,0.47202,0.14609,-0.57167,0.11386,0.96894,0.30177,,,0.79448,0.60578,-0.04171,-0.00949,
3.17188,0.19727,0.25295,-0.53674,0.10755,0.96454,0.29983,,,0.79447,0.60580,-0.04167,-0.00951,
3.17969,0.26596,0.21733,-0.53674,0.11046,0.96601,0.30080,,,0.79446,0.60581,-0.04164,-0.00953,
3.18750,0.33465,0.14609,-0.64152,0.10318,0.97089,0.29983,,,0.79445,0.60583,-0.04160,-0.00955,
3.19531,0.47202,0.14609,-0.60659,0.10755,0.97284,0.30419,,,0.79443,0.60586,-0.04157,-0.00958,
3.20313,0.33465,0.28856,-0.57167,0.10658,0.96406,0.30612,,,0.79441,0.60588,-0.04153,-0.00960,
3.21094,0.33465,0.14609,-0.67645,0.10561,0.95283,0.29596,,,0.79440,0.60590,-0.04149,-0.00963,
3.21875,0.36899,0.28856,-0.67645,0.10755,0.95722,0.29257,,,0.79438,0.60592,-0.04145,-0.00965,
3.22656,0.60939,0.07486,-0.74630,0.10561,0.96747,0.30031,,,0.79436,0.60596,-0.04142,-0.00969,
3.23438,0.36899,0.32418,-0.78122,0.10901,0.96601,0.30225,,,0.79434,0.60598,-0.04137,-0.00971,
3.24219,0.26596,0.28856,-0.64152,0.10949,0.96162,0.30031,,,0.79433,0.60600,-0.04133,-0.00974,
3.25000,0.43768,0.53789,-0.67645,0.10901,0.97430,0.30225,,,0.79432,0.60602,-0.04127,-0.00975,
3.25781,0.43768,0.28856,-0.74630,0.10221,0.97723,0.30515,,,0.79430,0.60605,-0.04122,-0.00978,
3.26563,0.43768,0.43104,-0.74630,0.10318,0.97137,0.31338,,,0.79428,0.60607,-0.04117,-0.00980,
3.27344,0.33465,0.35980,-0.60659,0.10513,0.94844,0.29838,,,0.79427,0.60609,-0.04112,-0.00981,
3.28125,0.47202,0.43104,-0.71137,0.10367,0.96113,0.29789,,,0.79425,0.60612,-0.04107,-0.00983,
3.28906,0.50636,0.50227,-0.67645,0.10513,0.97040,0.29838,,,0.79423,0.60615,-0.04102,-0.00985,
3.29688,0.50636,0.39542,-0.60659,0.09445,0.96162,0.29548,,,0.79421,0.60618,-0.04097,-0.00986,
3.30469,0.43768,0.25295,-0.64152,0.11095,0.96259,0.29596,,,0.79419,0.60621,-0.04093,-0.00989,
3.31250,0.33465,0.32418,-0.71137,0.10124,0.95576,0.29789,,,0.79418,0.60623,-0.04088,-0.00991,
3.32031,0.40333,0.32418,-0.57167,0.10221,0.97040,0.29886,,,0.79416,0.60625,-0.04084,-0.00993,
3.32813,0.36899,0.18171,-0.64152,0.10124,0.97040,0.29499,,,0.79415,0.60627,-0.04081,-0.00995,
3.33594,0.33465,0.32418,-0.53674,0.10416,0.96015,0.30419,,,0.79413,0.60629,-0.04077,-0.00997,
3.34375,0.30030,0.25295,-0.67645,0.10707,0.95918,0.29112,,,0.79412,0.60631,-0.04073,-0.00999,
3.35156,0.43768,0.25295,-0.60659,0.10707,0.95966,0.29548,,,0.79410,0.60634,-0.04069,-0.01001,
3.35938,0.40333,0.14609,-0.67645,0.10852,0.96894,0.29257,,,0.79409,0.60636,-0.04065,-0.01004,
3.36719,0.30030,0.25295,-0.71137,0.10173,0.96698,0.30757,,,0.79407,0.60638,-0.04061,-0.01007,
3.37500,0.30030,0.25295,-0.67645,0.10901,0.97137,0.29935,,,0.79406,0.60640,-0.04057,-0.01010,
3.38281,0.43768,0.35980,-0.60659,0.10464,0.96796,0.30225,,,0.79405,0.60642,-0.04052,-0.01011,
3.39063,0.47202,0.35980,-0.50182,0.11483,0.96454,0.30322,,,0.79403,0.60645,-0.04048,-0.01012,
3.39844,0.26596,0.25295,-0.53674,0.10949,0.96601,0.30225,,,0.79402,0.60647,-0.04045,-0.01014,
3.40625,0.33465,0.28856,-0.43197,0.10027,0.95625,0.30515,,,0.79400,0.60648,-0.04042,-0.01015,
3.41406,0.36899,0.18171,-0.29227,0.10707,0.95478,0.29160,,,0.79399,0.60651,-0.04039,-0.01016,
3.42188,0.40333,0.28856,-0.50182,0.10804,0.95283,0.28338,,,0.79397,0.60653,-0.04036,-0.01017,
3.42969,0.43768,0.32418,-0.43197,0.10755,0.96845,0.29693,,,0.79395,0.60655,-0.04032,-0.01018,
3.43750,0.30030,0.35980,-0.50182,0.09979,0.96259,0.30128,,,0.79394,0.60657,-0.04028,-0.01019,
3.44531,0.16293,0.35980,-0.53674,0.10367,0.95430,0.29451,,,0.79394,0.60658,-0.04024,-0.01021,
3.45313,0.36899,0.21733,-0.64152,0.10852,0.96503,0.29354,,,0.79392,0.60660,-0.04020,-0.01023,
3.46094,0.30030,0.18171,-0.53674,0.09930,0.96357,0.29064,,,0.79391,0.60662,-0.04017,-0.01025,
3.46875,0.30030,0.28856,-0.50182,0.10318,0.97089,0.31290,,,0.79390,0.60664,-0.04014,-0.01027,
3.47656,0.26596,0.25295,-0.57167,0.10998,0.96308,0.31048,,,0.79389,0.60666,-0.04010,-0.01029,
3.48438,0.47202,0.28856,-0.60659,0.10464,0.96503,0.29112,,,0.79387,0.60668,-0.04006,-0.01031,
3.49219,0.36899,0.25295,-0.60659,0.10124,0.96162,0.29402,,,0.79385,0.60671,-0.04002,-0.01033,
3.50000,0.33465,0.11047,-0.46689,0.10610,0.96747,0.29548,,,0.79384,0.60672,-0.03999,-0.01035,
3.50781,0.30030,0.14609,-0.50182,0.10416,0.96210,0.31144,,,0.79383,0.60674,-0.03997,-0.01037,
3.51563,0.36899,0.35980,-0.46689,0.09833,0.95966,0.29112,,,0.79381,0.60676,-0.03993,-0.01038,
3.52344,0.40333,0.28856,-0.50182,0.10416,0.96357,0.29935,,,0.79379,0.60679,-0.03989,-0.01039,
3.53125,0.30030,0.21733,-0.53674,0.11240,0.96698,0.30080,,,0.79378,0.60681,-0.03986,-0.01041,
3.53906,0.40333,0.28856,-0.67645,0.10804,0.96308,0.29983,,,0.79377,0.60683,-0.03981,-0.01043,
3.54688,0.40333,0.53789,-0.46689,0.10949,0.96747,0.29257,,,0.79375,0.60685,-0.03977,-0.01044,
3.55469,0.43768,0.35980,-0.39704,0.10513,0.95722,0.29548,,,0.79373,0.60688,-0.03973,-0.01044,
3.56250,0.26596,0.07486,-0.57167,0.11289,0.97284,0.29644,,,0.79372,0.60689,-0.03970,-0.01047,
3.57031,0.23162,0.32418,-0.74630,0.10561,0.96357,0.30177,,,0.79371,0.60691,-0.03966,-0.01049,
3.57813,0.23162,0.25295,-0.74630,0.10027,0.95674,0.29935,,,0.79370,0.60692,-0.03961,-0.01052,
3.58594,0.30030,0.18171,-0.57167,0.10852,0.95918,0.29354,,,0.79369,0.60694,-0.03958,-0.01055,
3.59375,0.16293,0.28856,-0.60659,0.11192,0.96113,0.29306,,,0.79368,0.60695,-0.03954,-0.01057,
3.60156,0.30030,0.39542,-0.71137,0.10416,0.97040,0.30564,,,0.79367,0.60697,-0.03949,-0.01059,
3.60938,0.33465,0.32418,-0.85107,0.09639,0.95966,0.29112,,,0.79366,0.60699,-0.03943,-0.01062,
3.61719,0.12859,0.32418,-0.78122,0.10027,0.96015,0.30370,,,0.79365,0.60700,-0.03938,-0.01065,
3.62500,0.33465,0.25295,-0.71137,0.10658,0.97089,0.29402,,,0.79364,0.60702,-0.03934,-0.01068,
3.63281,0.19727,0.39542,-0.67645,0.11338,0.96210,0.30370,,,0.79363,0.60703,-0.03929,-0.01069,
3.64063,0.30030,0.53789,-0.60659,0.10076,0.95966,0.29402,,,0.79362,0.60705,-0.03924,-0.01070,
3.64844,0.16293,0.53789,-0.60659,0.10027,0.96796,0.29209,,,0.79362,0.60706,-0.03918,-0.01071,
3.65625,0.33465,0.35980,-0.57167,0.09882,0.97040,0.30419,,,0.79360,0.60708,-0.03914,-0.01073,
3.66406,0.26596,0.35980,-0.60659,0.10416,0.96503,0.30128,,,0.79359,0.60710,-0.03910,-0.01075,
3.67188,0.36899,0.43104,-0.60659,0.10027,0.95381,0.29015,,,0.79358,0.60712,-0.03905,-0.01076,
3.67969,0.57505,0.18171,-0.60659,0.11143,0.96796,0.29451,,,0.79355,0.60715,-0.03901,-0.01078,
3.68750,0.40333,0.07486,-0.57167,0.11289,0.96942,0.29354,,,0.79354,0.60718,-0.03899,-0.01081,
3.69531,0.36899,0.21733,-0.57167,0.10610,0.96894,0.29789,,,0.79352,0.60720,-0.03895,-0.01083,
3.70313,0.30030,0.18171,-0.60659,0.10027,0.96113,0.29354,,,0.79351,0.60721,-0.03892,-0.01086,
3.71094,0.40333,0.25295,-0.60659,0.10998,0.96210,0.29354,,,0.79349,0.60724,-0.03888,-0.01088,
3.71875,0.33465,0.25295,-0.53674,0.10998,0.97040,0.29354,,,0.79348,0.60726,-0.03884,-0.01090,
3.72656,0.23162,0.25295,-0.57167,0.11338,0.95918,0.29015,,,0.79347,0.60727,-0.03881,-0.01092,
3.73438,0.33465,0.18171,-0.67645,0.11483,0.96503,0.29983,,,0.79346,0.60729,-0.03877,-0.01094,
3.74219,0.36899,0.28856,-0.71137,0.10901,0.96406,0.29983,,,0.79344,0.60731,-0.03872,-0.01097,
3.75000,0.33465,0.18171,-0.67645,0.10076,0.96942,0.29402,,,0.79343,0.60733,-0.03869,-0.01100,
3.75781,0.30030,0.18171,-0.60659,0.10949,0.96845,0.30177,,,0.79342,0.60735,-0.03865,-0.01102,
3.76563,0.47202,0.21733,-0.57167,0.10755,0.96454,0.30225,,,0.79340,0.60738,-0.03862,-0.01104,
3.77344,0.36899,0.35980,-0.57167,0.10513,0.96406,0.29935,,,0.79338,0.60740,-0.03857,-0.01106,
3.78125,0.54071,0.28856,-0.57167,0.10318,0.96308,0.29596,,,0.79336,0.60743,-0.03854,-0.01107,
3.78906,0.64374,0.18171,-0.53674,0.11386,0.96503,0.29596,,,0.79333,0.60747,-0.03850,-0.01109,
3.79688,0.23162,0.39542,-0.50182,0.10755,0.96698,0.29741,,,0.79332,0.60748,-0.03846,-0.01110,
3.80469,0.33465,0.35980,-0.36212,0.10318,0.96601,0.30128,,,0.79331,0.60750,-0.03843,-0.01111,
3.81250,0.47202,0.50227,-0.57167,0.09979,0.96015,0.29499,,,0.79329,0.60753,-0.03838,-0.01112,
3.82031,0.30030,0.18171,-0.60659,0.10998,0.96064,0.29306,,,0.79328,0.60755,-0.03834,-0.01114,
3.82813,0.33465,0.46665,-0.57167,0.11046,0.96308,0.29983,,,0.79327,0.60757,-0.03829,-0.01115,
3.83594,0.40333,0.39542,-0.71137,0.09979,0.96601,0.30806,,,0.79325,0.60759,-0.03824,-0.01117,
3.84375,0.43768,0.25295,-0.67645,0.10464,0.96308,0.29402,,,0.79323,0.60762,-0.03820,-0.01120,
3.85156,0.33465,0.39542,-0.67645,0.10221,0.96650,0.29983,,,0.79322,0.60764,-0.03815,-0.01122,
3.85938,0.19727,0.32418,-0.74630,0.10027,0.96113,0.29789,,,0.79321,0.60765,-0.03811,-0.01124,
3.86719,0.47202,0.46665,-0.67645,0.10173,0.96747,0.31193,,,0.79319,0.60768,-0.03805,-0.01126,
3.87500,0.50636,0.25295,-0.78122,0.10658,0.96991,0.30564,,,0.79317,0.60771,-0.03801,-0.01129,
3.88281,0.40333,0.35980,-0.60659,0.10027,0.96894,0.29789,,,0.79316,0.60773,-0.03796,-0.01131,
3.89063,0.30030,0.21733,-0.64152,0.10464,0.96503,0.29935,,,0.79314,0.60775,-0.03792,-0.01133,
3.89844,0.40333,0.18171,-0.60659,0.10173,0.96845,0.30080,,,0.79313,0.60777,-0.03789,-0.01136,
3.90625,0.47202,0.32418,-0.64152,0.10998,0.96406,0.29983,,,0.79311,0.60780,-0.03785,-0.01138,
3.91406,0.40333,0.21733,-0.57167,0.10901,0.96503,0.29983,,,0.79309,0.60782,-0.03781,-0.01140,
3.92188,0.36899,0.11047,-0.60659,0.11240,0.95674,0.29354,,,0.79308,0.60784,-0.03778,-0.01142,
3.92969,0.36899,0.28856,-0.46689,0.10852,0.96942,0.30128,,,0.79306,0.60787,-0.03775,-0.01144,
3.93750,0.43768,0.32418,-0.46689,0.10949,0.96650,0.30322,,,0.79304,0.60789,-0.03771,-0.01145,
3.94531,0.33465,0.25295,-0.57167,0.10318,0.96406,0.29402,,,0.79303,0.60791,-0.03767,-0.01147,
3.95313,0.30030,0.25295,-0.57167,0.10076,0.96162,0.29548,,,0.79302,0.60793,-0.03764,-0.01149,
3.96094,0.30030,0.28856,-0.60659,0.10610,0.96210,0.30709,,,0.79300,0.60795,-0.03759,-0.01151,
3.96875,0.26596,0.46665,-0.78122,0.11289,0.96845,0.30225,,,0.79299,0.60796,-0.03754,-0.01153,
3.97656,0.40333,0.39542,-0.60659,0.09493,0.96259,0.29838,,,0.79298,0.60799,-0.03749,-0.01154,
3.98438,0.47202,0.14609,-0.67645,0.10027,0.95088,0.29886,,,0.79296,0.60801,-0.03746,-0.01157,
3.99219,0.40333,0.21733,-0.50182,0.10755,0.96454,0.29983,,,0.79294,0.60804,-0.03742,-0.01159,
4.00000,0.47202,0.32418,-0.67645,0.09639,0.96747,0.30419,,,0.79292,0.60806,-0.03738,-0.01161,
4.00781,0.47202,0.21733,-0.53674,0.09785,0.96796,0.29983,1022.700,24.8,0.79290,0.60809,-0.03734,-0.01163,
4.01563,0.33465,0.21733,-0.53674,0.10464,0.95966,0.29983,,,0.79289,0.60811,-0.03731,-0.01165,
4.02344,0.26596,0.21733,-0.50182,0.10707,0.96503,0.30177,,,0.79288,0.60813,-0.03728,-0.01167,
4.03125,0.36899,0.25295,-0.60659,0.09833,0.96601,0.30564,,,0.79286,0.60815,-0.03724,-0.01169,
4.03906,0.40333,0.28856,-0.60659,0.09493,0.96747,0.29596,,,0.79285,0.60817,-0.03720,-0.01171,
4.04688,0.23162,0.21733,-0.64152,0.11532,0.96357,0.30177,,,0.79284,0.60819,-0.03716,-0.01173,
4.05469,0.23162,0.07486,-0.57167,0.11483,0.96210,0.30322,,,0.79283,0.60820,-0.03713,-0.01176,
4.06250,0.30030,0.28856,-0.67645,0.10318,0.96894,0.30177,,,0.79282,0.60822,-0.03709,-0.01178,
4.07031,0.47202,0.39542,-0.74630,0.10755,0.97137,0.30031,,,0.79280,0.60825,-0.03704,-0.01181,
4.07813,0.30030,0.25295,-0.71137,0.10416,0.96454,0.29935,,,0.79278,0.60826,-0.03700,-0.01183,
4.08594,0.36899,0.21733,-0.71137,0.11338,0.96259,0.31048,,,0.79277,0.60829,-0.03696,-0.01186,
4.09375,0.43768,0.21733,-0.67645,0.10464,0.96845,0.29741,,,0.79275,0.60831,-0.03692,-0.01189,
4.10156,0.60939,0.18171,-0.74630,0.10221,0.96552,0.28870,,,0.79273,0.60835,-0.03688,-0.01192,
4.10938,0.36899,0.32418,-0.53674,0.10076,0.96845,0.29741,,,0.79271,0.60837,-0.03684,-0.01193,
4.11719,0.36899,0.18171,-0.53674,0.10173,0.95966,0.30903,,,0.79270,0.60839,-0.03680,-0.01196,
4.12500,0.47202,0.14609,-0.39704,0.10173,0.96015,0.29741,,,0.79268,0.60842,-0.03678,-0.01197,
4.13281,0.43768,0.18171,-0.43197,0.10318,0.96406,0.28531,,,0.79266,0.60844,-0.03675,-0.01198,
4.14063,0.19727,0.14609,-0.50182,0.10464,0.96747,0.29789,,,0.79265,0.60845,-0.03672,-0.01200,
4.14844,0.19727,0.25295,-0.57167,0.10707,0.96503,0.30951,,,0.79264,0.60846,-0.03669,-0.01202,
4.15625,0.30030,0.18171,-0.64152,0.10416,0.96454,0.30080,,,0.79263,0.60848,-0.03665,-0.01205,
4.16406,0.50636,0.18171,-0.67645,0.10367,0.96747,0.28822,,,0.79261,0.60851,-0.03661,-0.01208,
4.17188,0.33465,0.50227,-0.64152,0.09493,0.96991,0.29596,,,0.79259,0.60853,-0.03656,-0.01209,
4.17969,0.09424,0.14609,-0.60659,0.09979,0.96210,0.30612,,,0.79259,0.60854,-0.03653,-0.01212,
4.18750,0.19727,0.35980,-0.78122,0.10270,0.95430,0.28773,,,0.79258,0.60855,-0.03648,-0.01214,
4.19531,0.36899,0.35980,-0.74630,0.09882,0.95820,0.29015,,,0.79257,0.60857,-0.03643,-0.01217,
4.20313,0.54071,0.11047,-0.67645,0.10221,0.96503,0.29644,,,0.79255,0.60860,-0.03639,-0.01220,
4.21094,0.26596,0.21733,-0.57167,0.09979,0.96796,0.30999,,,0.79253,0.60862,-0.03636,-0.01222,
4.21875,0.26596,0.25295,-0.64152,0.10270,0.95820,0.30854,,,0.79252,0.60864,-0.03632,-0.01224,
4.22656,0.50636,0.28856,-0.46689,0.10027,0.96406,0.29015,,,0.79250,0.60866,-0.03628,-0.01226,
4.23438,0.57505,0.32418,-0.36212,0.10173,0.96894,0.29644,,,0.79248,0.60870,-0.03625,-0.01226,
4.24219,0.26596,0.18171,-0.46689,0.10076,0.96259,0.30903,,,0.79247,0.60871,-0.03622,-0.01228,
4.25000,0.30030,0.14609,-0.43197,0.10416,0.96747,0.30080,,,0.79246,0.60873,-0.03620,-0.01229,
4.25781,0.47202,0.21733,-0.60659,0.10998,0.96601,0.29693,,,0.79244,0.60876,-0.03616,-0.01232,
4.26563,0.33465,0.14609,-0.60659,0.10561,0.97040,0.29402,,,0.79242,0.60878,-0.03613,-0.01234,
4.27344,0.23162,0.28856,-0.57167,0.11192,0.96650,0.30370,,,0.79241,0.60879,-0.03609,-0.01236,
4.28125,0.30030,0.25295,-0.78122,0.10707,0.96210,0.30564,,,0.79240,0.60881,-0.03604,-0.01239,
4.28906,0.43768,0.35980,-0.78122,0.10804,0.96650,0.29596,,,0.79238,0.60883,-0.03599,-0.01242,
4.29688,0.33465,0.14609,-0.64152,0.10949,0.95869,0.28870,,,0.79237,0.60885,-0.03596,-0.01245,
4.30469,0.30030,0.14609,-0.64152,0.12065,0.96650,0.30031,,,0.79236,0.60887,-0.03592,-0.01247,
4.31250,0.33465,0.28856,-0.92092,0.10804,0.96308,0.29935,,,0.79234,0.60889,-0.03587,-0.01251,
4.32031,0.43768,0.39542,-0.71137,0.10318,0.96015,0.29112,,,0.79232,0.60892,-0.03582,-0.01253,
4.32813,0.36899,0.35980,-0.57167,0.10561,0.95771,0.29209,,,0.79231,0.60894,-0.03578,-0.01255,
4.33594,0.36899,0.28856,-0.46689,0.10804,0.97235,0.30031,,,0.79229,0.60896,-0.03574,-0.01256,
4.34375,0.43768,0.25295,-0.50182,0.10852,0.97040,0.30467,,,0.79228,0.60899,-0.03571,-0.01257,
4.35156,0.33465,0.28856,-0.64152,0.10852,0.95625,0.29499,,,0.79226,0.60901,-0.03567,-0.01260,
4.35938,0.30030,0.35980,-0.53674,0.10852,0.96552,0.29499,,,0.79225,0.60902,-0.03562,-0.01261,
4.36719,0.33465,0.25295,-0.46689,0.10318,0.96162,0.29935,,,0.79224,0.60904,-0.03559,-0.01262,
4.37500,0.33465,0.28856,-0.64152,0.10513,0.96259,0.30564,,,0.79222,0.60906,-0.03555,-0.01264,
4.38281,0.36899,0.32418,-0.60659,0.10513,0.95966,0.29838,,,0.79221,0.60908,-0.03551,-0.01266,
4.39063,0.33465,0.25295,-0.74630,0.10221,0.96308,0.29644,,,0.79219,0.60910,-0.03546,-0.01269,
4.39844,0.30030,0.25295,-0.74630,0.11143,0.97089,0.29354,,,0.79218,0.60912,-0.03542,-0.01272,
4.40625,0.26596,0.11047,-0.67645,0.10658,0.96308,0.30515,,,0.79217,0.60914,-0.03538,-0.01275,
4.41406,0.36899,0.25295,-0.64152,0.10464,0.96259,0.29741,,,0.79216,0.60916,-0.03535,-0.01278,
4.42188,0.47202,0.28856,-0.64152,0.10804,0.96698,0.29693,,,0.79214,0.60919,-0.03530,-0.01280,
4.42969,0.33465,0.28856,-0.53674,0.10610,0.96552,0.28822,,,0.79212,0.60921,-0.03527,-0.01281,
4.43750,0.40333,0.25295,-0.43197,0.10124,0.96845,0.30080,,,0.79211,0.60923,-0.03523,-0.01282,
4.44531,0.47202,0.07486,-0.36212,0.10852,0.96747,0.29886,,,0.79209,0.60926,-0.03522,-0.01284,
4.45313,0.36899,0.21733,-0.43197,0.11192,0.96454,0.29693,,,0.79207,0.60928,-0.03519,-0.01285,
4.46094,0.40333,0.18171,-0.53674,0.10610,0.96552,0.29886,,,0.79205,0.60930,-0.03516,-0.01287,
4.46875,0.33465,0.14609,-0.64152,0.10901,0.96454,0.30661,,,0.79204,0.60932,-0.03512,-0.01290,
4.47656,0.30030,0.25295,-0.60659,0.11435,0.96698,0.30273,,,0.79203,0.60934,-0.03508,-0.01292,
4.48438,0.33465,0.32418,-0.71137,0.10804,0.96406,0.29499,,,0.79201,0.60936,-0.03504,-0.01295,
4.49219,0.33465,0.28856,-0.60659,0.10027,0.95820,0.29306,,,0.79200,0.60938,-0.03500,-0.01297,
4.50000,0.47202,0.14609,-0.74630,0.10270,0.96308,0.30128,,,0.79198,0.60941,-0.03496,-0.01300,
4.50781,0.33465,0.28856,-0.74630,0.11095,0.96503,0.29935,,,0.79197,0.60943,-0.03491,-0.01303,
4.51563,0.54071,0.25295,-0.71137,0.10221,0.96406,0.30177,,,0.79194,0.60946,-0.03487,-0.01305,
4.52344,0.40333,0.43104,-0.64152,0.10464,0.96747,0.30515,,,0.79193,0.60948,-0.03482,-0.01307,
4.53125,0.33465,0.14609,-0.71137,0.10949,0.96601,0.30322,,,0.79191,0.60950,-0.03478,-0.01310,
4.53906,0.43768,0.21733,-0.71137,0.11143,0.97381,0.30419,,,0.79190,0.60953,-0.03474,-0.01313,
4.54688,0.40333,0.32418,-0.64152,0.10561,0.96698,0.30515,,,0.79188,0.60955,-0.03470,-0.01315,
4.55469,0.50636,0.25295,-0.81615,0.09930,0.95722,0.30031,,,0.79186,0.60958,-0.03465,-0.01318,
4.56250,0.23162,0.21733,-0.60659,0.10998,0.95674,0.28918,,,0.79185,0.60959,-0.03461,-0.01321,
4.57031,0.40333,0.25295,-0.74630,0.10076,0.96552,0.29499,,,0.79183,0.60962,-0.03457,-0.01323,
4.57813,0.50636,0.32418,-0.60659,0.09202,0.96601,0.30419,,,0.79181,0.60965,-0.03453,-0.01325,
4.58594,0.43768,0.35980,-0.60659,0.09882,0.96406,0.29693,,,0.79179,0.60967,-0.03448,-0.01327,
4.59375,0.50636,0.39542,-0.60659,0.10707,0.96845,0.29886,,,0.79177,0.60970,-0.03444,-0.01328,
4.60156,0.36899,0.39542,-0.50182,0.09736,0.97186,0.29935,,,0.79176,0.60972,-0.03439,-0.01329,
4.60938,0.43768,0.25295,-0.39704,0.10221,0.97186,0.30854,,,0.79174,0.60975,-0.03437,-0.01330,
4.61719,0.40333,0.21733,-0.53674,0.10658,0.96162,0.30419,,,0.79172,0.60977,-0.03433,-0.01332,
4.62500,0.23162,0.25295,-0.64152,0.11143,0.96454,0.29741,,,0.79171,0.60978,-0.03429,-0.01335,
4.63281,0.19727,0.43104,-0.53674,0.10124,0.96650,0.29015,,,0.79171,0.60980,-0.03425,-0.01336,
4.64063,0.16293,0.43104,-0.60659,0.10755,0.97040,0.29644,,,0.79170,0.60981,-0.03420,-0.01337,
4.64844,0.40333,0.14609,-0.57167,0.10367,0.97089,0.30564,,,0.79168,0.60983,-0.03417,-0.01339,
4.65625,0.43768,0.18171,-0.57167,0.10610,0.96894,0.30225,,,0.79166,0.60985,-0.03413,-0.01342,
4.66406,0.30030,0.11047,-0.60659,0.11240,0.96796,0.29112,,,0.79165,0.60987,-0.03410,-0.01344,
4.67188,0.36899,0.21733,-0.50182,0.11143,0.96894,0.30322,,,0.79164,0.60989,-0.03407,-0.01346,
4.67969,0.40333,0.18171,-0.53674,0.10561,0.96259,0.29935,,,0.79162,0.60992,-0.03404,-0.01348,
4.68750,0.43768,0.43104,-0.46689,0.10318,0.95966,0.30031,,,0.79160,0.60994,-0.03400,-0.01349,
4.69531,0.33465,0.25295,-0.46689,0.11095,0.95234,0.29064,,,0.79159,0.60996,-0.03396,-0.01350,
4.70313,0.43768,0.11047,-0.53674,0.11338,0.96747,0.29789,,,0.79157,0.60999,-0.03394,-0.01352,
4.71094,0.43768,0.25295,-0.57167,0.11240,0.96942,0.29935,,,0.79155,0.61001,-0.03390,-0.01354,
4.71875,0.19727,0.53789,-0.53674,0.09251,0.96552,0.29644,,,0.79154,0.61002,-0.03385,-0.01355,
4.72656,0.43768,0.28856,-0.60659,0.10027,0.95576,0.30128,,,0.79153,0.61005,-0.03381,-0.01357,
4.73438,0.33465,0.18171,-0.50182,0.11338,0.96503,0.29983,,,0.79151,0.61007,-0.03378,-0.01359,
4.74219,0.50636,0.18171,-0.64152,0.10610,0.96601,0.29838,,,0.79149,0.61010,-0.03374,-0.01361,
4.75000,0.33465,0.35980,-0.57167,0.10610,0.96503,0.29838,,,0.79148,0.61012,-0.03370,-0.01363,
4.75781,0.36899,0.21733,-0.67645,0.10949,0.95771,0.29306,,,0.79146,0.61014,-0.03366,-0.01366,
4.76563,0.30030,0.39542,-0.57167,0.10513,0.96113,0.30806,,,0.79145,0.61015,-0.03361,-0.01367,
4.77344,0.36899,0.32418,-0.64152,0.10658,0.97235,0.30225,,,0.79144,0.61018,-0.03357,-0.01369,
4.78125,0.26596,0.32418,-0.50182,0.09542,0.96650,0.29789,,,0.79142,0.61019,-0.03353,-0.01370,
4.78906,0.36899,0.18171,-0.53674,0.10561,0.96210,0.30854,,,0.79141,0.61021,-0.03350,-0.01372,
4.79688,0.26596,0.11047,-0.53674,0.10270,0.96210,0.29935,,,0.79140,0.61023,-0.03347,-0.01375,
4.80469,0.19727,0.60913,-0.53674,0.10318,0.96162,0.29935,,,0.79139,0.61024,-0.03342,-0.01375,
4.81250,0.50636,0.21733,-0.53674,0.09736,0.96601,0.29354,,,0.79137,0.61027,-0.03338,-0.01377,
4.82031,0.57505,0.18171,-0.43197,0.09833,0.96601,0.29693,,,0.79135,0.61030,-0.03336,-0.01378,
4.82813,0.26596,0.21733,-0.53674,0.10852,0.96259,0.29886,,,0.79133,0.61032,-0.03332,-0.01380,
4.83594,0.36899,0.25295,-0.50182,0.10367,0.96991,0.29306,,,0.79132,0.61034,-0.03329,-0.01382,
4.84375,0.23162,0.28856,-0.50182,0.11095,0.96454,0.29789,,,0.79131,0.61035,-0.03325,-0.01383,
4.85156,0.30030,0.25295,-0.50182,0.10949,0.96991,0.29789,,,0.79130,0.61037,-0.03322,-0.01385,
4.85938,0.23162,0.21733,-0.67645,0.10658,0.96503,0.30225,,,0.79129,0.61039,-0.03318,-0.01388,
4.86719,0.26596,0.28856,-0.60659,0.10998,0.95625,0.28918,,,0.79128,0.61040,-0.03314,-0.01390,
4.87500,0.30030,0.25295,-0.64152,0.11677,0.96064,0.29112,,,0.79126,0.61042,-0.03310,-0.01392,
4.88281,0.30030,0.21733,-0.71137,0.10318,0.95966,0.29402,,,0.79125,0.61044,-0.03306,-0.01395,
4.89063,0.26596,0.25295,-0.71137,0.09785,0.96210,0.30419,,,0.79124,0.61045,-0.03302,-0.01397,
4.89844,0.23162,0.43104,-0.71137,0.10998,0.95576,0.30370,,,0.79123,0.61047,-0.03296,-0.01399,
4.90625,0.26596,0.35980,-0.85107,0.10270,0.96064,0.29644,,,0.79122,0.61048,-0.03291,-0.01402,
4.91406,0.36899,0.25295,-0.78122,0.10027,0.96406,0.28870,,,0.79120,0.61051,-0.03286,-0.01406,
4.92188,0.16293,0.25295,-0.74630,0.10610,0.96503,0.29983,,,0.79120,0.61052,-0.03282,-0.01408,
4.92969,0.30030,0.18171,-0.92092,0.10658,0.95869,0.29257,,,0.79119,0.61053,-0.03277,-0.01413,
4.93750,0.12859,0.25295,-0.88600,0.10755,0.95966,0.29402,,,0.79118,0.61054,-0.03272,-0.01416,
4.94531,0.36899,0.35980,-0.81615,0.09882,0.96698,0.28870,,,0.79116,0.61057,-0.03267,-0.01419,
4.95313,0.16293,0.28856,-0.78122,0.10464,0.96113,0.30273,,,0.79116,0.61058,-0.03262,-0.01422,
4.96094,0.09424,0.32418,-0.92092,0.10610,0.95283,0.30128,,,0.79115,0.61058,-0.03256,-0.01426,
4.96875,0.12859,0.43104,-0.81615,0.11192,0.96698,0.29257,,,0.79115,0.61059,-0.03251,-0.01428,
4.97656,0.30030,0.46665,-1.13047,0.10318,0.96064,0.29789,,,0.79114,0.61061,-0.03243,-0.01432,
4.98438,0.02556,0.35980,-1.16540,0.11046,0.96601,0.30370,,,0.79113,0.61062,-0.03237,-0.01437,
4.99219,-0.04313,0.39542,-1.30510,0.11046,0.95722,0.29402,,,0.79114,0.61062,-0.03229,-0.01442,
5.00000,0.16293,0.50227,-1.54957,0.11095,0.96357,0.29548,,,0.79113,0.61063,-0.03220,-0.01449,
5.00781,0.19727,0.46665,-1.61942,0.09445,0.96796,0.30128,1022.704,24.8,0.79112,0.61064,-0.03211,-0.01455,
5.01563,0.43768,0.00362,-1.86390,0.10464,0.97430,0.30999,,,0.79110,0.61067,-0.03203,-0.01465,
5.02344,0.33465,0.32418,-2.49255,0.11677,0.96357,0.29644,,,0.79108,0.61070,-0.03191,-0.01477,
5.03125,0.50636,0.18171,-1.93375,0.10561,0.96454,0.29354,,,0.79106,0.61073,-0.03182,-0.01487,
5.03906,0.30030,0.39542,-1.58450,0.09688,0.96650,0.29209,,,0.79105,0.61075,-0.03173,-0.01494,
5.04688,0.26596,0.07486,-1.16540,0.11095,0.96210,0.29693,,,0.79104,0.61076,-0.03168,-0.01500,
5.05469,0.23162,0.32418,-1.09555,0.09882,0.96259,0.30031,,,0.79103,0.61078,-0.03162,-0.01504,
5.06250,0.36899,0.28856,-0.95585,0.11046,0.95820,0.29112,,,0.79101,0.61080,-0.03156,-0.01508,
5.07031,0.19727,0.21733,-0.81615,0.10367,0.96015,0.28918,,,0.79100,0.61081,-0.03152,-0.01511,
5.07813,0.05990,0.21733,-0.78122,0.10998,0.96650,0.30177,,,0.79100,0.61082,-0.03147,-0.01515,
5.08594,0.23162,0.39542,-0.74630,0.09785,0.97333,0.31048,,,0.79099,0.61083,-0.03142,-0.01517,
5.09375,0.09424,0.28856,-0.46689,0.09688,0.96113,0.29499,,,0.79099,0.61084,-0.03139,-0.01518,
5.10156,0.02556,0.28856,-0.15257,0.09542,0.96503,0.29789,,,0.79099,0.61084,-0.03136,-0.01518,
5.10938,-0.28354,0.32418,0.16176,0.10124,0.96942,0.30467,,,0.79100,0.61083,-0.03135,-0.01516,
5.11719,-0.31788,0.07486,0.05698,0.10513,0.96357,0.30661,,,0.79101,0.61081,-0.03135,-0.01515,
5.12500,-0.24919,0.21733,0.09191,0.10027,0.95918,0.29548,,,0.79102,0.61080,-0.03134,-0.01514,
5.13281,-0.28354,-0.17447,0.09191,0.10998,0.96406,0.29451,,,0.79103,0.61078,-0.03136,-0.01514,
5.14063,-0.28354,-0.06762,0.02206,0.10270,0.96845,0.29402,,,0.79105,0.61076,-0.03136,-0.01514,
5.14844,-0.62697,-0.10323,0.02206,0.09542,0.96942,0.30903,,,0.79107,0.61073,-0.03137,-0.01515,
5.15625,-0.62697,-0.10323,0.02206,0.09251,0.95625,0.30080,,,0.79110,0.61070,-0.03137,-0.01515,
5.16406,-0.55828,-0.24571,-0.01287,0.10318,0.96454,0.29451,,,0.79112,0.61067,-0.03139,-0.01517,
5.17188,-0.59263,-0.31694,-0.39704,0.09930,0.97137,0.30564,,,0.79114,0.61063,-0.03139,-0.01520,
5.17969,-0.90172,-0.42380,-0.46689,0.13327,0.92697,0.31580,,,0.79118,0.61059,-0.03139,-0.01525,
5.18750,-0.28354,-0.38818,-0.67645,0.05660,0.96650,0.30903,,,0.79119,0.61057,-0.03138,-0.01530,
5.19531,-1.34818,-0.92245,-0.39704,0.10416,0.96503,0.29015,,,0.79124,0.61050,-0.03141,-0.01536,
5.20313,-1.96636,-1.45672,-0.53674,0.09785,0.95576,0.29548,,,0.79132,0.61039,-0.03147,-0.01546,
5.21094,-2.06939,-1.70605,-0.50182,0.10804,0.95381,0.29160,,,0.79140,0.61028,-0.03154,-0.01556,
5.21875,-2.24111,-1.84852,-0.25734,0.10658,0.96942,0.30999,,,0.79149,0.61016,-0.03162,-0.01565,
5.22656,-2.17242,-1.84852,-0.39704,0.10464,0.95625,0.29886,,,0.79158,0.61004,-0.03170,-0.01576,
5.23438,-1.96636,-1.74167,-0.08272,0.10367,0.96601,0.30031,,,0.79166,0.60993,-0.03179,-0.01584,
5.24219,-2.00071,-1.74167,0.02206,0.11192,0.96894,0.29983,,,0.79174,0.60982,-0.03189,-0.01591,
5.25000,-1.72596,-1.02931,0.09191,0.10755,0.96064,0.30854,,,0.79181,0.60973,-0.03194,-0.01595,
5.25781,-0.04313,0.28856,1.59369,0.08669,0.96698,0.29499,,,0.79181,0.60972,-0.03199,-0.01586,
5.26563,1.15889,1.89138,3.09547,0.07844,0.96650,0.29354,,,0.79177,0.60978,-0.03202,-0.01561,
5.27344,1.84576,3.13801,5.61008,0.09008,0.97235,0.29354,,,0.79171,0.60987,-0.03209,-0.01517,
5.28125,2.15485,3.35172,7.04201,0.10173,0.96698,0.30661,,,0.79163,0.60997,-0.03220,-0.01465,
5.28906,2.49828,3.45857,7.60081,0.11289,0.95674,0.31144,,,0.79154,0.61010,-0.03233,-0.01409,
5.29688,2.42960,3.28048,7.81036,0.06388,0.99236,0.29741,,,0.79146,0.61021,-0.03248,-0.01352,
5.30469,1.74273,2.71059,9.48677,0.05708,0.97772,0.30709,,,0.79140,0.61029,-0.03273,-0.01289,
5.31250,1.26192,1.92700,10.56945,0.07941,0.99236,0.28676,,,0.79136,0.61033,-0.03307,-0.01224,
5.32031,0.12859,0.21733,12.35063,0.10173,0.98113,0.31048,,,0.79136,0.61031,-0.03357,-0.01157,
5.32813,-0.90172,-1.24301,12.76973,0.10901,0.96991,0.29548,,,0.79141,0.61023,-0.03417,-0.01093,
5.33594,-1.55424,-1.88414,12.52525,0.08960,0.98553,0.29209,,,0.79148,0.61012,-0.03479,-0.01034,
5.34375,-3.40879,-3.94999,14.09688,0.05805,1.00456,0.30709,,,0.79162,0.60990,-0.03559,-0.00975,
5.35156,-4.61081,-5.76651,18.07835,0.05563,1.00846,0.31725,,,0.79181,0.60960,-0.03665,-0.00902,
5.35938,-4.88556,-6.33640,20.38341,0.06388,1.01627,0.30612,,,0.79201,0.60928,-0.03784,-0.00820,
5.36719,-5.22899,-6.79944,25.69203,0.05417,1.03774,0.30225,,,0.79222,0.60893,-0.03927,-0.00711,
5.37500,-6.05323,-7.12000,31.31497,0.02700,1.09972,0.30419,,,0.79247,0.60851,-0.04095,-0.00573,
5.38281,-9.28152,-9.75574,38.78895,-0.00163,1.09972,0.33612,,,0.79284,0.60790,-0.04308,-0.00406,
5.39063,-9.79667,-11.53664,43.15459,-0.07006,1.14705,0.35839,,,0.79322,0.60723,-0.04549,-0.00224,
5.39844,-12.02899,-17.27115,54.99421,-0.12101,1.16511,0.39178,,,0.79366,0.60641,-0.04870,-0.00002,
5.40625,-13.43707,-33.33491,73.60931,-0.09869,1.34957,0.45033,,,0.79410,0.60542,-0.05354,0.00254,
5.41406,-14.50172,-40.38729,86.00773,-0.18021,1.32956,0.40484,,,0.79451,0.60432,-0.05928,0.00548,
5.42188,-18.45121,-54.02902,86.39190,-0.40538,1.32858,0.45082,,,0.79500,0.60298,-0.06577,0.00786,
5.42969,-32.73808,-69.27356,38.05552,-1.43270,1.67798,0.78037,,,0.79601,0.60106,-0.07110,0.00692,
5.43750,-54.16839,-87.75935,-13.77337,-1.13038,1.78632,0.68407,,,0.79779,0.59821,-0.07532,0.00232,
5.44531,-65.87950,-114.11674,25.30785,-0.49807,1.37787,0.57131,,,0.79985,0.59449,-0.08257,-0.00130,
5.45313,-61.24314,-132.56691,59.91865,-0.84504,1.43008,0.64729,,,0.80155,0.59077,-0.09221,-0.00375,
5.46094,-60.76233,-147.45527,81.74686,-1.11728,1.14900,0.58486,,,0.80303,0.58685,-0.10354,-0.00561,
5.46875,-48.91384,-177.16075,89.15099,-1.30314,1.23342,0.69568,,,0.80369,0.58342,-0.11677,-0.00816,
5.47656,-47.33404,-209.18141,93.72618,-1.06535,1.06019,0.52389,,,0.80386,0.57989,-0.13192,-0.01172,
5.48438,-41.08354,-220.43673,101.20016,-1.18182,1.07776,0.50308,,,0.80347,0.57647,-0.14794,-0.01526,
5.49219,-25.42293,-229.02069,107.38191,-0.18264,0.96796,-0.05731,,,0.80215,0.57367,-0.16466,-0.01863,
5.50000,-28.71990,-163.19846,45.11040,-0.00988,0.77374,-0.07957,,,0.80144,0.57135,-0.17530,-0.02287,
5.50781,-27.17445,-127.54476,3.06054,-0.15352,0.52926,-0.10376,,,0.80095,0.56961,-0.18234,-0.02799,
5.51563,-6.19061,-68.98862,-67.10404,0.00079,1.01481,-0.07521,,,0.80019,0.56996,-0.18348,-0.03441,
5.52344,-6.53404,-12.53395,-89.28150,0.00953,1.33883,-0.02488,,,0.80006,0.57068,-0.18068,-0.03985,
5.53125,-18.48556,30.74203,-82.89020,-0.05307,1.27198,-0.01714,,,0.80091,0.57077,-0.17572,-0.04341,
5.53906,-25.73202,49.58400,-83.34423,-0.14528,1.18414,-0.02876,,,0.80224,0.57049,-0.16969,-0.04634,
5.54688,-37.85526,78.75521,-98.32711,-0.26902,0.99041,-0.10086,,,0.80428,0.56979,-0.16143,-0.04909,
5.55469,-41.56435,99.52056,-117.36130,-0.26853,0.84206,-0.19135,,,0.80655,0.56910,-0.15127,-0.05211,
5.56250,-39.57243,107.78395,-123.50813,-0.23457,0.79912,-0.23394,,,0.80871,0.56855,-0.14040,-0.05513,
5.57031,-29.13202,121.78186,-125.81318,-0.18943,0.74300,-0.30072,,,0.81047,0.56856,-0.12869,-0.05762,
5.57813,-13.98657,132.43167,-121.23799,-0.19186,0.69957,-0.33508,,,0.81163,0.56933,-0.11661,-0.05930,
5.58594,-5.70980,136.56337,-118.75831,-0.18846,0.68639,-0.34234,,,0.81240,0.57047,-0.10441,-0.06061,
5.59375,9.71040,142.61845,-117.64070,-0.16226,0.67858,-0.34476,,,0.81248,0.57239,-0.09197,-0.06151,
5.60156,21.76495,147.53374,-123.26365,-0.10354,0.73128,-0.29879,,,0.81197,0.57494,-0.07907,-0.06244,
5.60938,26.26394,149.24341,-126.16244,-0.10160,0.77716,-0.25668,,,0.81114,0.57765,-0.06597,-0.06342,
5.61719,33.33869,147.67621,-125.42901,-0.15110,0.84157,-0.16329,,,0.80987,0.58065,-0.05300,-0.06439,
5.62500,39.31445,138.16618,-115.99922,-0.20885,0.86890,-0.07570,,,0.80824,0.58380,-0.04095,-0.06518,
5.63281,42.37101,131.11380,-109.95718,-0.23457,0.85621,-0.03359,,,0.80637,0.58698,-0.02953,-0.06589,
5.64063,48.62152,114.97881,-101.36559,-0.23505,0.85084,0.03899,,,0.80416,0.59034,-0.01937,-0.06676,
5.64844,54.04778,96.99167,-98.11756,-0.19089,0.87427,0.10916,,,0.80162,0.59384,-0.01035,-0.06816,
5.65625,56.34879,88.37210,-97.13965,-0.13120,0.89086,0.13191,,,0.79891,0.59738,-0.00185,-0.06985,
5.66406,60.40132,73.98239,-92.70416,0.04786,0.92599,0.17691,,,0.79599,0.60101,0.00567,-0.07188,
5.67188,62.04980,65.75461,-88.16389,0.35504,0.95771,0.21466,,,0.79296,0.60464,0.01254,-0.07399,
5.67969,61.60334,67.85608,-80.44544,0.61224,0.97137,0.27660,,,0.78993,0.60822,0.01921,-0.07559,
5.68750,61.46596,71.45350,-72.37774,0.69813,0.99675,0.32354,,,0.78689,0.61178,0.02575,-0.07660,
5.69531,58.82152,81.99646,-46.84747,0.83643,1.11192,0.38258,,,0.78402,0.61527,0.03179,-0.07579,
5.70313,52.12455,98.06022,-18.06916,0.91262,1.12997,0.41404,,,0.78151,0.61850,0.03751,-0.07276,
5.71094,48.34677,107.64148,-6.61372,0.94659,1.14559,0.43388,,,0.77914,0.62158,0.04329,-0.06869,
5.71875,38.28414,129.11919,7.14678,0.94901,1.14266,0.47550,,,0.77713,0.62421,0.04966,-0.06295,
5.72656,28.53061,150.02701,11.96645,0.87186,0.92941,0.54760,,,0.77542,0.62637,0.05697,-0.05602,
5.73438,27.94677,158.00546,13.39838,0.79809,0.81034,0.58825,,,0.77362,0.62846,0.06464,-0.04867,
5.74219,37.76899,165.55649,19.30073,0.58166,0.72787,0.78085,,,0.77128,0.63105,0.07241,-0.04072,
5.75000,49.23970,157.57804,27.75261,0.25410,0.70933,1.06008,,,0.76842,0.63417,0.07936,-0.03272,
5.75781,52.70839,145.85969,29.21947,0.08911,0.68834,1.21977,,,0.76537,0.63737,0.08561,-0.02517,
5.76563,52.98314,108.03328,25.69203,-0.12781,0.66833,1.49997,,,0.76246,0.64045,0.09004,-0.01944,
5.77344,48.10637,56.31582,16.85597,-0.11907,0.53316,1.66692,,,0.76003,0.64311,0.09217,-0.01640,
5.78125,47.28212,29.03236,13.71271,-0.04822,0.44728,1.71241,,,0.75778,0.64567,0.09302,-0.01471,
5.78906,48.82758,-22.32892,8.89304,0.18714,0.47899,1.75887,,,0.75578,0.64822,0.09142,-0.01555,
5.79688,42.47404,-63.50343,7.21663,0.54430,0.65321,1.76371,,,0.75430,0.65038,0.08778,-0.01824,
5.80469,24.06596,-87.26070,12.52525,0.95581,0.70835,1.75209,,,0.75376,0.65157,0.08270,-0.02161,
5.81250,12.76697,-91.49925,18.39268,1.16496,0.65369,1.66789,,,0.75372,0.65217,0.07716,-0.02480,
5.82031,-5.67546,-83.80574,31.90870,1.54299,0.40092,1.50674,,,0.75446,0.65189,0.07144,-0.02685,
5.82813,-13.19667,-56.48667,38.92865,1.78562,0.18767,1.32962,,,0.75539,0.65129,0.06682,-0.02729,
5.83594,-13.29970,-38.21459,39.24298,1.84677,0.13301,1.24881,,,0.75622,0.65071,0.06313,-0.02690,
5.84375,-12.09768,1.74891,55.51809,0.73113,5.64582,2.60622,,,0.75685,0.65032,0.06078,-0.02391,
5.85156,-378.67952,-127.93655,208.52508,-2.59299,-5.24999,0.92119,,,0.77415,0.63113,0.04553,-0.01725,
5.85938,-268.33406,-161.48879,242.05320,-2.51632,4.72059,3.70328,,,0.78620,0.61730,0.02691,-0.01059,
5.86719,-263.93810,-88.36486,213.27490,0.62243,0.87085,0.00125,,,0.79739,0.60331,0.01338,-0.00239,
5.87500,-138.82496,-34.26098,179.92140,2.18549,-0.82540,0.96910,,,0.80307,0.59584,0.00413,0.00611,
5.88281,-52.27950,-2.77459,125.43820,1.60074,0.29990,1.32285,,,0.80511,0.59299,-0.00114,0.01288,
5.89063,10.29424,16.06738,26.80963,0.63601,1.87659,-0.37573,,,0.80467,0.59354,-0.00133,0.01500,
5.89844,-25.04515,-4.05684,-26.31149,-0.16808,1.26075,0.16046,,,0.80570,0.59217,-0.00052,0.01339,
5.90625,-20.82091,-4.73359,-24.46046,-0.10014,0.93575,0.32064,,,0.80656,0.59103,0.00019,0.01186,
5.91406,-11.13606,6.02308,3.93367,-0.42625,0.68834,0.40000,,,0.80701,0.59041,0.00036,0.01232,
5.92188,-14.81081,-4.02122,21.53594,0.14589,0.47460,0.59067,,,0.80759,0.58960,-0.00074,0.01334,
5.92969,-12.26939,-8.65158,18.77685,0.47781,0.58684,0.60519,,,0.80806,0.58893,-0.00199,0.01403,
5.93750,-3.68354,-3.45134,-3.26090,0.31185,0.97723,0.46533,,,0.80821,0.58873,-0.00205,0.01371,
5.94531,-1.07343,-0.49503,-5.95014,-0.22971,1.16023,0.27370,,,0.80826,0.58867,-0.00184,0.01336,
5.95313,-4.40475,-3.48695,6.90231,0.09154,0.88256,0.35790,,,0.80843,0.58843,-0.00231,0.01360,
5.96094,-2.85929,-2.20470,9.10259,0.13618,0.86451,0.49243,,,0.80854,0.58827,-0.00280,0.01401,
5.96875,1.46798,-0.74436,5.33068,0.12745,0.91477,0.50598,,,0.80847,0.58835,-0.00306,0.01428,
5.97656,4.18111,-0.28133,7.04201,0.17889,0.92990,0.36806,,,0.80830,0.58858,-0.00335,0.01466,
5.98438,5.03970,0.39542,5.71485,0.16530,0.94551,0.36419,,,0.80809,0.58886,-0.00355,0.01499,
5.99219,4.86798,2.17632,1.48891,0.18325,0.95918,0.31580,,,0.80789,0.58912,-0.00349,0.01516,
6.00000,3.18515,2.63936,-1.40987,0.15996,0.98992,0.46243,,,0.80777,0.58929,-0.00328,0.01519,
6.00781,2.70434,2.99554,-3.92448,0.13036,0.92941,0.44888,1022.678,24.8,0.80767,0.58944,-0.00296,0.01509,
6.01563,6.89424,3.67228,-6.12477,0.12114,1.04750,0.33951,,,0.80740,0.58982,-0.00250,0.01491,
6.02344,6.31040,3.70790,-7.97580,0.10707,1.02993,0.29064,,,0.80715,0.59016,-0.00197,0.01462,
6.03125,4.97101,3.67228,-9.58235,0.12017,0.99821,0.31822,,,0.80696,0.59043,-0.00138,0.01424,
6.03906,4.49020,3.38734,-9.54743,0.10124,0.90110,0.38645,,,0.80679,0.59068,-0.00081,0.01385,
6.04688,6.37909,3.35172,-9.09340,0.06727,0.90159,0.39226,,,0.80654,0.59103,-0.00025,0.01348,
6.05469,6.82556,3.06678,-8.15042,0.03670,0.89574,0.37677,,,0.80627,0.59140,0.00025,0.01316,
6.06250,7.37505,2.28318,-5.67074,0.01535,0.91282,0.32645,,,0.80598,0.59180,0.00061,0.01294,
6.07031,5.21141,1.42834,-2.10838,0.02214,0.89086,0.31435,,,0.80577,0.59209,0.00078,0.01288,
6.07813,4.73061,0.64475,-0.15257,0.06485,0.89232,0.29838,,,0.80558,0.59234,0.00083,0.01290,
6.08594,3.66596,0.28856,1.13966,0.06388,0.89134,0.31774,,,0.80543,0.59255,0.00080,0.01297,
6.09375,2.73869,-0.31694,2.39697,0.07116,0.94161,0.39468,,,0.80532,0.59270,0.00069,0.01309,
6.10156,2.15485,-0.81560,3.82890,0.11338,0.91233,0.38500,,,0.80523,0.59282,0.00049,0.01327,
6.10938,1.98313,-0.60189,3.61935,0.12987,0.89134,0.32209,,,0.80515,0.59292,0.00031,0.01344,
6.11719,1.98313,-0.60189,2.53667,0.12502,0.96162,0.30806,,,0.80506,0.59303,0.00018,0.01356,
6.12500,1.63970,-0.53065,1.52384,0.11240,0.97235,0.34290,,,0.80500,0.59312,0.00009,0.01362,
6.13281,1.94879,-0.67312,1.62861,0.09105,0.99821,0.38355,,,0.80492,0.59323,-0.00001,0.01368,
6.14063,2.63566,-1.99099,1.69846,0.15462,0.97040,0.30419,,,0.80481,0.59338,-0.00019,0.01370,
6.14844,1.29626,-1.06492,-0.18749,0.12162,0.96454,0.25676,,,0.80475,0.59345,-0.00024,0.01364,
6.15625,1.77707,-0.35256,-0.53674,0.08426,1.01969,0.30951,,,0.80468,0.59355,-0.00023,0.01360,
6.16406,-1.34818,-1.27863,0.30146,0.16870,0.87231,0.34629,,,0.80474,0.59348,-0.00032,0.01357,
6.17188,1.98313,-0.42380,-2.17823,0.09882,0.96601,0.31435,,,0.80466,0.59358,-0.00025,0.01343,
6.17969,1.22758,0.00362,-1.51465,0.04592,0.96796,0.34048,,,0.80461,0.59365,-0.00019,0.01335,
6.18750,0.74677,-0.74436,-1.27017,0.07261,0.94454,0.31870,,,0.80458,0.59369,-0.00018,0.01325,
6.19531,0.23162,-1.38549,1.45399,0.07892,0.92892,0.37194,,,0.80457,0.59371,-0.00031,0.01327,
6.20313,0.12859,-1.49234,1.59369,0.11823,0.89232,0.34484,,,0.80457,0.59372,-0.00046,0.01330,
6.21094,2.05182,-0.24571,0.99996,0.09493,0.97137,0.34145,,,0.80448,0.59383,-0.00051,0.01334,
6.21875,2.25788,-0.60189,1.31429,0.10221,1.04165,0.38307,,,0.80439,0.59395,-0.00059,0.01339,
6.22656,0.57505,-0.60189,1.17459,0.11240,0.97479,0.42517,,,0.80436,0.59398,-0.00067,0.01343,
6.23438,3.08212,0.11047,-1.27017,0.11483,1.02017,0.35355,,,0.80424,0.59415,-0.00061,0.01337,
6.24219,1.63970,-0.03200,-0.81615,0.09445,1.07629,0.34387,,,0.80418,0.59424,-0.00058,0.01332,
6.25000,-0.11182,0.50227,-2.56240,0.13570,1.04360,0.36274,,,0.80418,0.59424,-0.00045,0.01320,
6.25781,-1.07343,0.82284,-3.81971,0.15220,1.05921,0.35693,,,0.80423,0.59418,-0.00025,0.01302,
6.26563,-2.92798,2.14070,-5.46119,0.22111,1.00114,0.28725,,,0.80435,0.59401,0.00008,0.01281,
6.27344,-5.29768,4.91892,-8.35997,0.17500,1.17682,0.33661,,,0.80457,0.59372,0.00069,0.01255,
6.28125,-10.72394,5.31071,-7.83610,0.20558,1.01822,0.29596,,,0.80501,0.59313,0.00128,0.01234,
6.28906,-17.69566,10.04792,-7.52177,0.19684,1.08654,0.43678,,,0.80573,0.59214,0.00212,0.01233,
6.29688,-21.78253,15.35502,-10.35071,0.19005,1.16803,0.35306,,,0.80662,0.59093,0.00337,0.01239,
6.30469,-24.46132,17.49210,-10.24593,0.11192,1.19536,0.30709,,,0.80761,0.58957,0.00472,0.01254,
6.31250,-34.14616,18.13323,-14.64650,0.12114,1.15827,0.35839,,,0.80898,0.58767,0.00628,0.01247,
6.32031,-38.06132,19.30862,-13.70352,0.10513,1.25050,0.40097,,,0.81051,0.58554,0.00786,0.01250,
6.32813,-42.31990,18.52503,-12.02711,0.12648,1.15583,0.40339,,,0.81219,0.58318,0.00933,0.01260,
6.33594,-45.99465,18.52503,-13.66859,0.14977,1.20610,0.34822,,,0.81402,0.58060,0.01086,0.01261,
6.34375,-51.55829,19.91413,-12.13189,0.11338,1.23635,0.35693,,,0.81605,0.57771,0.01240,0.01276,
6.35156,-54.51182,18.66750,-12.06204,0.08038,1.26124,0.44065,,,0.81818,0.57465,0.01386,0.01287,
6.35938,-62.99465,16.92221,-10.63011,0.10416,1.13290,0.41936,,,0.82063,0.57110,0.01517,0.01300,
6.36719,-66.22293,17.91952,-11.18891,0.08474,1.29345,0.37097,,,0.82320,0.56737,0.01655,0.01314,
6.37500,-71.20273,16.49479,-9.44265,0.13085,1.28027,0.41404,,,0.82593,0.56334,0.01777,0.01333,
6.38281,-77.59061,18.31132,-8.98863,0.10367,1.26807,0.44017,,,0.82888,0.55893,0.01908,0.01362,
6.39063,-83.84112,16.49479,-8.32505,0.06970,1.24562,0.41452,,,0.83205,0.55416,0.02025,0.01389,
6.39844,-90.16031,15.17693,-6.68357,0.07941,1.29247,0.34532,,,0.83542,0.54901,0.02128,0.01421,
6.40625,-95.27748,16.81536,-7.66147,0.01438,1.32761,0.47259,,,0.83895,0.54354,0.02243,0.01454,
6.41406,-102.86738,12.79051,-4.93731,0.11726,1.36762,0.44210,,,0.84273,0.53763,0.02324,0.01489,
6.42188,-114.30375,12.79051,-2.24808,0.23033,1.26954,0.41597,,,0.84688,0.53103,0.02394,0.01541,
6.42969,-115.84920,16.45918,-2.14330,0.12599,1.37153,0.38984,,,0.85102,0.52430,0.02484,0.01607,
6.43750,-122.54617,16.13861,0.68563,0.02409,1.39105,0.34048,,,0.85534,0.51716,0.02562,0.01690,
6.44531,-131.02900,16.42356,0.44116,0.01001,1.40520,0.38984,,,0.85989,0.50948,0.02641,0.01773,
6.45313,-136.83304,15.88929,0.72056,0.03816,1.31199,0.39420,,,0.86458,0.50142,0.02715,0.01857,
6.46094,-145.35021,15.21254,0.99996,0.13036,1.26905,0.40823,,,0.86947,0.49281,0.02783,0.01942,
6.46875,-152.66537,18.09761,-0.57167,0.19296,1.39788,0.44307,,,0.87452,0.48371,0.02871,0.02028,
6.47656,-158.43506,18.70312,0.02206,0.20655,1.42081,0.44210,,,0.87966,0.47421,0.02961,0.02121,
6.48438,-169.66537,22.15807,1.62861,0.09493,1.54964,0.53937,,,0.88503,0.46398,0.03064,0.02236,
6.49219,-183.50577,22.58549,1.76831,0.02263,1.61552,0.43485,,,0.89072,0.45284,0.03166,0.02356,
6.50000,-191.09567,23.22661,1.66354,-0.06909,1.67017,0.40678,,,0.89649,0.44117,0.03271,0.02479,
6.50781,-209.12598,20.34155,-2.77195,-0.06084,1.75752,0.43823,,,0.90264,0.42830,0.03368,0.02570,
6.51563,-228.18658,18.06199,-3.05135,0.00807,1.80291,0.54663,,,0.90916,0.41418,0.03448,0.02656,
6.52344,-245.63305,18.66750,-4.90239,0.01098,1.88343,0.50550,,,0.91593,0.39885,0.03532,0.02736,
6.53125,-254.56234,19.09491,-8.01072,0.03088,1.91173,0.44936,,,0.92268,0.38285,0.03625,0.02798,
6.53906,-274.13810,23.01290,-11.18891,0.03767,1.88001,0.39662,,,0.92963,0.36547,0.03746,0.02855,
6.54688,-290.45123,23.65403,-8.70922,0.01244,1.86635,0.52244,,,0.93664,0.34693,0.03860,0.02933,
6.55469,-298.62497,23.79650,-4.13403,-0.01280,1.74337,0.51953,,,0.94345,0.32774,0.03962,0.03041,
6.56250,-311.22901,22.30054,3.30502,-0.13508,1.82633,0.49147,,,0.95012,0.30762,0.04032,0.03195,
6.57031,-329.19063,14.89198,8.61364,-0.04288,1.81218,0.44404,,,0.95672,0.28622,0.04038,0.03372,
6.57813,-337.05528,12.75490,15.17956,0.04350,1.77168,0.44065,,,0.96297,0.26418,0.04013,0.03587,
6.58594,-352.44114,8.58758,36.62359,0.11095,1.70385,0.51131,,,0.96892,0.24105,0.03916,0.03939,
6.59375,-357.79871,8.51634,60.47746,0.14492,1.27051,0.32064,,,0.97432,0.21750,0.03776,0.04446,
6.60156,-352.30376,11.25894,66.27503,0.06582,1.22171,0.20498,,,0.97902,0.19418,0.03644,0.04993,
6.60938,-344.61083,23.61841,72.77110,-0.22243,1.04945,0.12368,,,0.98299,0.17123,0.03587,0.05594,
6.61719,-305.28760,8.23140,76.61287,-0.21515,0.26965,-0.31040,,,0.98601,0.15089,0.03436,0.06190,
6.62500,-275.16841,10.54657,70.43112,-0.44760,-0.15539,-0.53833,,,0.98834,0.13249,0.03318,0.06737,
6.63281,-201.12396,-7.97483,23.45682,-0.87707,0.26526,-0.30217,,,0.98997,0.11902,0.03151,0.06933,
6.64063,-129.82698,-36.57616,26.73978,-0.09917,-0.48771,-0.46526,,,0.99093,0.11048,0.02821,0.07111,
6.64844,-76.59465,-35.82818,22.65354,-0.10451,-0.27251,-0.53833,,,0.99145,0.10552,0.02524,0.07252,
6.65625,13.59121,-41.52707,39.31283,-0.20933,-0.28959,-0.51462,,,0.99122,0.10671,0.02222,0.07485,
6.66406,89.55890,-47.47529,66.34488,-0.15595,0.52194,-0.42074,,,0.99027,0.11310,0.01899,0.07885,
6.67188,114.04577,-48.61507,64.24937,-0.24621,0.78301,-0.40138,,,0.98906,0.12114,0.01582,0.08266,
6.67969,116.89627,-48.79316,53.73691,-0.29134,0.78350,-0.41541,,,0.98780,0.12936,0.01275,0.08575,
6.68750,116.20940,-48.75754,24.92367,-0.32774,0.76593,-0.41783,,,0.98663,0.13749,0.00993,0.08690,
6.69531,111.26395,-48.11642,-3.26090,-0.28164,0.71665,-0.41202,,,0.98561,0.14526,0.00738,0.08615,
6.70313,109.92455,-47.76024,-13.21457,-0.23262,0.65028,-0.41009,,,0.98459,0.15291,0.00495,0.08473,
6.71094,113.49627,-46.51360,-21.84107,-0.13945,0.51999,-0.42799,,,0.98351,0.16079,0.00271,0.08274,
6.71875,127.30233,-44.66146,-17.05633,-0.05259,0.40189,-0.42799,,,0.98218,0.16957,0.00062,0.08108,
6.72656,137.67405,-43.27236,-12.06204,-0.03560,0.34870,-0.43138,,,0.98061,0.17902,-0.00137,0.07976,
6.73438,164.18718,-39.71055,-3.92448,-0.02590,0.25794,-0.43670,,,0.97855,0.19020,-0.00309,0.07902,
6.74219,195.19931,-34.54593,-2.98150,-0.05307,0.25306,-0.44154,,,0.97594,0.20340,-0.00430,0.07841,
6.75000,210.79123,-31.80333,-6.19462,-0.07248,0.30381,-0.43670,,,0.97294,0.21757,-0.00520,0.07761,
6.75781,238.74679,-26.42500,-17.33573,-0.08898,0.45801,-0.41251,,,0.96935,0.23353,-0.00544,0.07614,
6.76563,260.28012,-20.26307,-29.80400,-0.10160,0.64589,-0.37379,,,0.96520,0.25081,-0.00495,0.07393,
6.77344,268.48820,-17.19992,-33.99502,-0.09966,0.70640,-0.34282,,,0.96061,0.26853,-0.00414,0.07148,
6.78125,281.60740,-11.71473,-39.89737,-0.10742,0.83132,-0.26152,,,0.95546,0.28699,-0.00281,0.06872,
6.78906,289.19730,-7.08438,-45.20599,-0.16808,0.99821,-0.18700,,,0.94982,0.30581,-0.00103,0.06568,
6.79688,290.63972,-5.69527,-47.65074,-0.18895,1.04945,-0.15893,,,0.94378,0.32460,0.00090,0.06248,
6.80469,292.35689,-5.12539,-52.78474,-0.23068,1.10948,-0.10812,,,0.93735,0.34337,0.00298,0.05894,
6.81250,293.18113,-6.90629,-57.88381,-0.26417,1.16462,-0.05005,,,0.93052,0.36205,0.00508,0.05501,
6.82031,294.48618,-11.21608,-63.50675,-0.27630,1.22806,0.00464,,,0.92330,0.38067,0.00704,0.05059,
6.82813,295.34477,-13.81620,-66.16106,-0.28843,1.27149,0.03222,,,0.91567,0.39920,0.00890,0.04591,
6.83594,297.37103,-20.12060,-71.60938,-0.29717,1.33346,0.09852,,,0.90761,0.41769,0.01053,0.04071,
6.84375,299.98113,-28.38400,-79.08336,-0.27145,1.42472,0.17982,,,0.89911,0.43618,0.01185,0.03478,
6.85156,301.11447,-32.58693,-82.85527,-0.25786,1.49059,0.22047,,,0.89017,0.45455,0.01303,0.02848,
6.85938,302.11043,-40.45853,-88.72270,-0.18313,1.64821,0.29935,,,0.88081,0.47278,0.01391,0.02157,
6.86719,299.98113,-47.15473,-90.71343,-0.05453,1.79559,0.38403,,,0.87111,0.49066,0.01444,0.01431,
6.87500,297.98921,-48.79316,-90.32925,-0.00309,1.86976,0.43291,,,0.86108,0.50820,0.01485,0.00702,
6.88281,291.53265,-48.75754,-87.95434,0.19830,1.93662,0.55002,,,0.85088,0.52514,0.01517,-0.00012,
6.89063,284.97305,-40.99280,-86.73196,0.39289,1.98737,0.68068,,,0.84054,0.54147,0.01589,-0.00692,
6.89844,281.29830,-34.22536,-85.64929,0.48267,2.00884,0.75327,,,0.82999,0.55736,0.01695,-0.01339,
6.90625,273.33063,-17.02183,-81.91230,0.60350,2.00933,0.91151,,,0.81939,0.57261,0.01885,-0.01898,
6.91406,264.74477,3.24487,-75.20667,0.66998,1.97761,1.05282,,,0.80881,0.58720,0.02161,-0.02339,
6.92188,260.00537,14.17962,-71.08551,0.66901,1.97029,1.11041,,,0.79814,0.60136,0.02482,-0.02712,
6.92969,248.32861,36.19160,-62.00497,0.58166,1.96346,1.25365,,,0.78766,0.61473,0.02886,-0.02942,
6.93750,233.14881,54.35682,-56.45188,0.47684,1.89563,1.43270,,,0.77756,0.62716,0.03367,-0.03063,
6.94531,224.87204,61.55168,-55.71845,0.40988,1.84048,1.52658,,,0.76759,0.63899,0.03884,-0.03146,
6.95313,208.97103,70.88362,-53.30862,0.27885,1.63504,1.67950,,,0.75810,0.64985,0.04442,-0.03171,
6.96094,198.32456,73.51935,-46.39344,0.13182,1.40861,1.77290,,,0.74891,0.66004,0.04984,-0.03144,
6.96875,193.17305,68.21226,-35.53172,-0.02105,1.21879,1.80871,,,0.73984,0.66986,0.05450,-0.03084,
6.97656,191.18113,63.26134,-31.20101,-0.07054,1.16755,1.82033,,,0.73075,0.67945,0.05871,-0.03023,
6.98438,184.99931,50.93749,-30.88668,-0.06326,1.10264,1.83339,,,0.72185,0.68858,0.06229,-0.03015,
6.99219,173.28820,40.14521,-39.16394,-0.01813,1.08800,1.83726,,,0.71342,0.69696,0.06574,-0.03093,
7.00000,165.66395,35.58609,-43.07555,0.00370,1.06556,1.84065,,,0.70525,0.70484,0.06916,-0.03207,
7.00781,150.51850,26.04044,-45.27584,0.06339,1.01481,1.85130,1022.667,24.8,0.69777,0.71188,0.07225,-0.03370,
7.01563,135.85385,17.34963,-38.74484,0.12939,0.99870,1.86581,,,0.69097,0.71815,0.07464,-0.03537,
7.02344,127.71445,13.93029,-33.68069,0.15705,1.00261,1.87646,,,0.68455,0.72399,0.07663,-0.03692,
7.03125,108.48213,8.51634,-24.63508,0.19102,1.02213,1.89243,,,0.67907,0.72892,0.07797,-0.03822,
7.03906,84.27001,5.63128,-18.45334,0.20072,1.00212,1.90501,,,0.67480,0.73271,0.07892,-0.03924,
7.04688,71.15081,4.99015,-16.35783,0.20849,0.99333,1.91034,,,0.67118,0.73590,0.07978,-0.04012,
7.05469,44.22556,4.45588,-12.55099,0.21189,0.99577,1.89872,,,0.66891,0.73785,0.08049,-0.04071,
7.06250,17.81546,5.06139,-9.26803,0.24391,0.94844,1.84501,,,0.66796,0.73862,0.08113,-0.04098,
7.07031,6.00131,5.56004,-7.83610,0.26866,0.91672,1.79419,,,0.66762,0.73886,0.08176,-0.04109,
7.07813,-13.47142,8.23140,-4.65791,0.31040,0.86548,1.69257,,,0.66824,0.73824,0.08241,-0.04081,
7.08594,-26.69364,11.72197,-0.11764,0.31573,0.82107,1.56675,,,0.66953,0.73705,0.08302,-0.04007,
7.09375,-93.07950,15.85367,9.38199,0.51324,3.34739,2.07971,,,0.67414,0.73287,0.08352,-0.03832,
7.10156,-196.65931,12.93299,95.96139,0.22644,2.05032,2.19488,,,0.68407,0.72432,0.07982,-0.03213,
7.10938,-258.64921,-9.64888,105.88012,-0.59706,1.12948,1.15057,,,0.69701,0.71268,0.07470,-0.02626,
7.11719,-277.67548,-37.57346,127.35908,-0.16032,1.20707,0.19627,,,0.71076,0.69991,0.06720,-0.02062,
7.12500,-283.89164,-37.92964,128.47668,-0.18070,1.19780,-0.04811,,,0.72450,0.68653,0.05962,-0.01490,
7.13281,-268.36840,-45.65877,122.57434,-0.07297,1.21293,-0.43961,,,0.73721,0.67359,0.05189,-0.00989,
7.14063,-252.33002,-45.55192,110.28069,0.07941,1.20659,-0.19426,,,0.74890,0.66115,0.04470,-0.00554,
7.14844,-248.03709,-45.33821,101.44463,0.08669,1.08996,0.03512,,,0.76013,0.64867,0.03790,-0.00165,
7.15625,-228.80477,-44.37652,79.79105,0.31622,0.76642,0.40000,,,0.77026,0.63692,0.03209,0.00112,
7.16406,-202.18860,-46.94102,55.58794,0.33078,0.76154,0.37339,,,0.77906,0.62636,0.02719,0.00244,
7.17188,-191.57648,-45.73001,44.79607,0.28371,0.78643,0.33903,,,0.78724,0.61622,0.02281,0.00322,
7.17969,-158.74415,-38.89133,31.97855,0.19102,0.75959,0.39032,,,0.79391,0.60771,0.01934,0.00355,
7.18750,-121.58455,-28.56209,29.60364,0.22062,0.65760,0.56599,,,0.79895,0.60115,0.01654,0.00413,
7.19531,-103.76031,-23.82488,30.23229,0.25459,0.61807,0.60809,,,0.80320,0.59552,0.01397,0.00492,
7.20313,-68.24920,-13.56687,28.10186,0.21577,0.58879,0.52582,,,0.80597,0.59181,0.01206,0.00597,
7.21094,-39.53808,-8.54472,25.58725,0.11289,0.69908,0.49534,,,0.80755,0.58966,0.01055,0.00707,
7.21875,-29.68152,-8.11730,24.26010,0.13861,0.78106,0.47792,,,0.80874,0.58804,0.00911,0.00810,
7.22656,-19.13808,-6.69258,20.45326,0.16287,0.86597,0.41549,,,0.80950,0.58700,0.00791,0.00897,
7.23438,-15.80677,-6.33640,17.37985,0.10949,0.86158,0.35839,,,0.81012,0.58614,0.00685,0.00969,
7.24219,-12.06333,-4.80482,16.96075,0.07504,0.80107,0.38403,,,0.81060,0.58548,0.00590,0.01044,
7.25000,-10.03707,-4.59111,16.26224,0.07552,0.84401,0.44356,,,0.81099,0.58494,0.00499,0.01116,
7.25781,-7.01485,-4.48426,15.28434,0.14637,0.88159,0.37919,,,0.81126,0.58456,0.00413,0.01183,
7.26563,-4.30172,-3.27324,11.96645,0.09493,0.98553,0.34435,,,0.81142,0.58433,0.00347,0.01236,
7.27344,-3.82091,-3.05954,11.40765,0.06291,0.98065,0.35403,,,0.81156,0.58412,0.00284,0.01287,
7.28125,-1.51990,-3.70066,10.91870,0.13327,0.99529,0.34000,,,0.81161,0.58404,0.00220,0.01333,
7.28906,-1.31384,-4.30617,7.07693,0.21480,0.93234,0.38936,,,0.81166,0.58397,0.00167,0.01355,
7.29688,-0.59263,-3.59381,3.23517,0.20509,0.90306,0.38065,,,0.81168,0.58394,0.00135,0.01358,
7.30469,1.09020,-2.59650,-3.54031,0.16918,0.94990,0.36419,,,0.81164,0.58400,0.00134,0.01328,
7.31250,0.30030,-1.63481,-8.08057,0.10901,0.98065,0.39710,,,0.81164,0.58402,0.00157,0.01277,
7.32031,-1.51990,-1.88414,-9.58235,0.13424,0.90257,0.38790,,,0.81171,0.58394,0.00185,0.01217,
7.32813,-0.66131,-0.42380,-9.93160,0.06873,0.91818,0.35258,,,0.81174,0.58390,0.00222,0.01160,
7.33594,-0.69566,-0.03200,-8.84893,0.01826,0.96991,0.35451,,,0.81177,0.58386,0.00257,0.01111,
7.34375,-0.69566,-0.81560,-6.78834,0.08232,0.98797,0.35597,,,0.81181,0.58382,0.00279,0.01070,
7.35156,-1.00475,-0.13885,-5.70566,0.11920,0.97967,0.38065,,,0.81185,0.58376,0.00301,0.01038,
7.35938,-1.14212,0.60913,-5.74059,0.12065,0.92843,0.36274,,,0.81190,0.58370,0.00327,0.01009,
7.36719,0.09424,1.21463,-5.88029,0.06630,0.96503,0.35935,,,0.81190,0.58370,0.00357,0.00981,
7.37500,0.60939,0.96531,-3.47046,0.05805,0.98309,0.35887,,,0.81188,0.58373,0.00377,0.00966,
7.38281,-0.48960,0.25295,-1.16540,0.09882,0.87329,0.43678,,,0.81190,0.58371,0.00383,0.00961,
7.39063,3.11646,0.68036,-0.92092,0.07504,0.92550,0.36855,,,0.81178,0.58388,0.00390,0.00958,
7.39844,3.80333,0.43104,0.16176,0.07067,0.96162,0.35790,,,0.81162,0.58409,0.00392,0.00961,
7.40625,3.66596,0.18171,0.96504,0.09348,0.95283,0.36564,,,0.81148,0.58429,0.00389,0.00967,
7.41406,3.01343,-0.03200,1.52384,0.09639,0.90306,0.40000,,,0.81136,0.58446,0.00383,0.00975,
7.42188,3.87202,0.03924,1.76831,0.10173,0.93868,0.41984,,,0.81120,0.58467,0.00377,0.00985,
7.42969,5.03970,0.25295,1.69846,0.10707,0.92648,0.32790,,,0.81100,0.58495,0.00372,0.00995,
7.43750,4.66192,-0.21009,1.69846,0.09882,0.95478,0.34290,,,0.81081,0.58521,0.00364,0.01003,
7.44531,4.18111,-0.06762,1.55876,0.09057,0.95430,0.42662,,,0.81065,0.58544,0.00358,0.01012,
7.45313,5.62354,0.50227,0.65071,0.11726,0.95478,0.38210,,,0.81042,0.58575,0.00358,0.01017,
7.46094,6.00131,0.53789,-0.08272,0.11968,1.00261,0.34726,,,0.81018,0.58608,0.00362,0.01019,
7.46875,4.07808,0.85845,-1.13047,0.14055,0.91379,0.33225,,,0.81002,0.58630,0.00371,0.01016,
7.47656,4.93667,1.53520,-2.24808,0.09396,1.00993,0.39371,,,0.80982,0.58657,0.00389,0.01010,
7.48438,3.45990,0.96531,-1.09555,0.10658,0.94210,0.38597,,,0.80969,0.58676,0.00399,0.01007,
7.49219,3.28818,1.10778,-1.86390,0.11726,0.88012,0.31048,,,0.80955,0.58694,0.00413,0.01001,
7.50000,3.08212,1.14340,-1.68927,0.07601,0.89671,0.31386,,,0.80943,0.58711,0.00426,0.00997,
7.50781,3.01343,1.03654,-0.60659,0.09493,0.97625,0.39710,,,0.80931,0.58728,0.00434,0.00997,
7.51563,2.63566,0.60913,0.86026,0.09057,0.87573,0.40920,,,0.80921,0.58742,0.00434,0.01005,
7.52344,2.87606,0.57351,0.58086,0.12987,0.89232,0.33661,,,0.80909,0.58758,0.00435,0.01010,
7.53125,1.50232,0.78722,0.26653,0.10076,0.91721,0.36081,,,0.80903,0.58766,0.00439,0.01015,
7.53906,2.36091,1.03654,0.16176,0.10173,0.99236,0.38161,,,0.80894,0.58779,0.00444,0.01020,
7.54688,0.84980,0.92969,1.48891,0.08523,0.94014,0.40097,,,0.80890,0.58784,0.00443,0.01032,
7.55469,0.43768,0.57351,0.89519,0.13376,0.86890,0.35209,,,0.80888,0.58786,0.00443,0.01039,
7.56250,1.29626,1.32149,0.72056,0.07601,0.94795,0.33371,,,0.80883,0.58793,0.00447,0.01048,
7.57031,0.60939,0.28856,1.13966,0.10513,0.97479,0.35306,,,0.80880,0.58797,0.00444,0.01056,
7.57813,-1.89768,0.03924,2.46682,0.10949,0.82254,0.38016,,,0.80888,0.58786,0.00434,0.01069,
7.58594,1.57101,0.78722,2.22234,0.08814,0.89915,0.32403,,,0.80881,0.58795,0.00430,0.01085,
7.59375,2.42960,0.68036,3.09547,0.07310,1.02993,0.34484,,,0.80871,0.58808,0.00421,0.01105,
7.60156,0.16293,0.21733,2.78114,0.06485,0.95674,0.32451,,,0.80871,0.58809,0.00411,0.01121,
7.60938,-1.34818,-0.92245,3.86382,0.10949,0.88451,0.38161,,,0.80876,0.58802,0.00390,0.01138,
7.61719,0.23162,-0.42380,3.33994,0.13133,0.96894,0.38694,,,0.80875,0.58803,0.00375,0.01155,
7.62500,2.15485,0.89407,0.99996,0.13812,0.99285,0.36371,,,0.80866,0.58815,0.00376,0.01164,
7.63281,1.53667,0.71598,-1.51465,0.16967,0.99870,0.37871,,,0.80860,0.58823,0.00386,0.01159,
7.64063,-0.66131,1.35711,-4.02926,0.16676,0.92209,0.44694,,,0.80863,0.58820,0.00409,0.01142,
7.64844,1.67404,2.56812,-6.08984,0.15026,0.91721,0.43775,,,0.80857,0.58828,0.00448,0.01119,
7.65625,2.94475,3.67228,-8.18535,0.18277,1.10069,0.34048,,,0.80845,0.58844,0.00501,0.01088,
7.66406,-2.99667,3.88599,-9.47758,0.14831,0.98016,0.34000,,,0.80858,0.58827,0.00560,0.01052,
7.67188,-5.74414,5.16824,-12.16681,0.17695,1.02554,0.38403,,,0.80881,0.58794,0.00637,0.01006,
7.67969,-9.00677,6.66420,-13.80829,0.21965,1.12168,0.32403,,,0.80918,0.58744,0.00728,0.00957,
7.68750,-14.53606,12.18501,-17.33573,0.16578,1.13729,0.38452,,,0.80977,0.58662,0.00864,0.00911,
7.69531,-20.75222,12.75490,-18.13901,0.17937,1.13095,0.33225,,,0.81060,0.58545,0.01006,0.00863,
7.70313,-24.77041,16.38794,-20.12974,0.12890,1.14607,0.42517,,,0.81159,0.58406,0.01175,0.00819,
7.71094,-29.68152,18.24008,-21.94585,0.16287,1.27198,0.39662,,,0.81276,0.58238,0.01362,0.00773,
7.71875,-31.46738,19.66480,-21.91092,0.19150,1.18951,0.32064,,,0.81400,0.58061,0.01556,0.00732,
7.72656,-38.85122,22.97729,-23.86673,0.13764,1.19390,0.41791,,,0.81552,0.57841,0.01776,0.00695,
7.73438,-44.62091,24.01021,-21.87600,0.11289,1.29882,0.44985,,,0.81726,0.57589,0.01993,0.00673,
7.74219,-50.18455,23.54718,-21.10765,0.11095,1.26514,0.43775,,,0.81920,0.57305,0.02205,0.00655,
7.75000,-55.95425,23.51156,-19.85034,0.09639,1.35298,0.37823,,,0.82135,0.56988,0.02411,0.00645,
7.75781,-66.25728,21.48133,-18.45334,0.08766,1.37153,0.39371,,,0.82389,0.56612,0.02600,0.00636,
7.76563,-69.89768,21.65942,-16.49753,-0.00988,1.45985,0.49050,,,0.82654,0.56215,0.02782,0.00639,
7.77344,-81.47142,17.95514,-14.40202,0.05417,1.44716,0.48227,,,0.82962,0.55752,0.02935,0.00642,
7.78125,-90.60677,18.06199,-11.64294,0.00564,1.46424,0.34967,,,0.83302,0.55235,0.03078,0.00663,
7.78906,-94.21284,15.96052,-10.14116,-0.00697,1.60820,0.44452,,,0.83652,0.54696,0.03202,0.00685,
7.79688,-108.67142,13.64535,-6.82327,-0.01910,1.54232,0.51905,,,0.84052,0.54073,0.03300,0.00721,
7.80469,-120.27950,10.72466,-3.85463,0.00807,1.55159,0.47937,,,0.84490,0.53380,0.03370,0.00766,
7.81250,-130.82294,9.40679,-2.56240,0.02360,1.67017,0.38694,,,0.84961,0.52624,0.03426,0.00815,
7.82031,-138.79062,9.33556,-1.51465,0.02020,1.60186,0.38016,,,0.85453,0.51817,0.03478,0.00872,
7.82813,-151.22294,9.12185,-0.67645,-0.00794,1.81950,0.42081,,,0.85980,0.50933,0.03524,0.00936,
7.83594,-168.84112,7.62589,0.30146,0.07261,1.84878,0.34387,,,0.86558,0.49940,0.03557,0.01005,
7.84375,-177.73607,9.15747,0.54593,0.02166,1.90734,0.29935,,,0.87155,0.48887,0.03596,0.01083,
7.85156,-200.09365,8.58758,-0.67645,0.08571,2.03177,0.35548,,,0.87811,0.47693,0.03634,0.01156,
7.85938,-222.89769,10.93837,-3.99433,0.00370,2.28065,0.34774,,,0.88523,0.46352,0.03695,0.01223,
7.86719,-238.24921,10.22601,-6.01999,0.03719,2.29480,0.30322,,,0.89262,0.44907,0.03755,0.01279,
7.87500,-266.71992,10.33287,-8.91878,0.05223,2.49878,0.21224,,,0.90061,0.43274,0.03821,0.01324,
7.88281,-300.61689,11.47264,-11.88741,0.08814,2.77937,0.32306,,,0.90926,0.41417,0.03899,0.01363,
7.89063,-321.36033,13.03984,-16.67215,0.13376,2.61931,0.25095,,,0.91809,0.39410,0.03996,0.01382,
7.89844,-352.47548,22.12245,-11.50324,-0.11616,2.51976,0.39081,,,0.92724,0.37189,0.04131,0.01465,
7.90625,-374.90175,19.94975,-1.68927,-0.48108,2.32554,0.45082,,,0.93638,0.34806,0.04223,0.01610,
7.91406,-386.92195,14.92760,-9.40773,-0.36753,2.38508,0.41839,,,0.94520,0.32321,0.04296,0.01696,
7.92188,-414.05326,8.40949,-23.34285,-0.06035,2.27333,0.27563,,,0.95394,0.29635,0.04352,0.01685,
7.92969,-431.74013,1.07216,-3.26090,0.12890,2.14548,0.19385,,,0.96224,0.26815,0.04314,0.01793,
7.93750,-438.23104,-1.20740,17.76402,0.19490,2.10448,0.17691,,,0.96980,0.23936,0.04218,0.02036,
7.94531,-447.98458,-1.27863,45.84383,0.05223,1.58819,-0.15554,,,0.97659,0.20979,0.04071,0.02464,
7.95313,-429.98862,-2.63212,58.31210,-0.14916,1.15144,-0.33266,,,0.98222,0.18125,0.03896,0.02967,
7.96094,-388.36437,-9.57765,48.63784,-0.25009,0.59758,-0.55188,,,0.98659,0.15534,0.03692,0.03383,
7.96875,-360.71791,-13.70934,38.47463,-0.52379,0.42336,-0.71012,,,0.99005,0.13117,0.03476,0.03717,
7.97656,-302.33406,-42.73809,17.10045,-1.00906,-0.06950,-0.53252,,,0.99260,0.11089,0.03095,0.03865,
7.98438,-200.05931,-67.99131,44.02772,0.21722,-1.40659,-0.73819,,,0.99403,0.09761,0.02549,0.04153,
7.99219,-124.26334,-55.95240,40.15103,0.29729,-1.08647,-0.80158,,,0.99480,0.08940,0.02107,0.04409,
8.00000,-5.46939,-38.39268,32.71198,0.02117,-0.63362,-0.75803,,,0.99478,0.08919,0.01825,0.04608,
8.00781,81.04172,-30.23614,45.56443,0.02845,0.25062,-0.60221,1022.706,24.8,0.99416,0.09484,0.01618,0.04889,
8.01563,103.12455,-26.67433,48.53306,-0.02541,0.59806,-0.53591,,,0.99333,0.10197,0.01440,0.05189,
8.02344,116.65587,-22.11521,45.31995,-0.13120,0.75080,-0.48316,,,0.99234,0.11000,0.01300,0.05469,
8.03125,115.86597,-20.47678,32.39765,-0.19768,0.67809,-0.47155,,,0.99133,0.11794,0.01181,0.05662,
8.03906,114.14880,-19.94251,24.26010,-0.21515,0.64784,-0.45897,,,0.99031,0.12575,0.01071,0.05801,
8.04688,109.44375,-20.12060,8.19454,-0.20642,0.53463,-0.44542,,,0.98932,0.13323,0.00971,0.05831,
8.05469,111.16092,-21.29600,-1.86390,-0.15498,0.37554,-0.45848,,,0.98830,0.14081,0.00874,0.05791,
8.06250,115.38516,-21.65218,-3.54031,-0.11713,0.32186,-0.45606,,,0.98719,0.14867,0.00777,0.05739,
8.07031,129.60334,-21.58094,-0.29227,-0.04482,0.28087,-0.46187,,,0.98585,0.15747,0.00683,0.05708,
8.07813,149.38516,-20.61925,7.77544,-0.02444,0.21450,-0.46719,,,0.98417,0.16759,0.00594,0.05731,
8.08594,161.23365,-19.40824,11.47750,-0.01522,0.18962,-0.46961,,,0.98223,0.17848,0.00513,0.05779,
8.09375,188.63971,-16.16699,14.72554,-0.04094,0.20279,-0.46816,,,0.97980,0.19117,0.00462,0.05851,
8.10156,216.56093,-12.74766,10.74407,-0.07928,0.28331,-0.44638,,,0.97683,0.20567,0.00449,0.05899,
8.10938,241.94073,-9.04337,1.52384,-0.10306,0.41653,-0.42751,,,0.97330,0.22179,0.00484,0.05888,
8.11719,253.54881,-7.40494,-3.12120,-0.11713,0.49217,-0.40864,,,0.96934,0.23861,0.00541,0.05847,
8.12500,273.22760,-4.73359,-9.79190,-0.16323,0.66345,-0.35879,,,0.96476,0.25665,0.00635,0.05763,
8.13281,288.88820,-3.05954,-14.36710,-0.18846,0.77764,-0.29540,,,0.95958,0.27561,0.00753,0.05650,
8.14063,295.00134,-2.66774,-16.88171,-0.20593,0.83376,-0.26201,,,0.95391,0.29485,0.00881,0.05518,
8.14844,304.89225,-2.56088,-22.92375,-0.25252,0.97137,-0.17780,,,0.94766,0.31461,0.01025,0.05344,
8.15625,309.70033,-4.44864,-31.06131,-0.28746,1.12412,-0.09602,,,0.94092,0.33455,0.01176,0.05111,
8.16406,310.55891,-6.05146,-35.60157,-0.29231,1.17828,-0.07086,,,0.93375,0.35439,0.01327,0.04843,
8.17188,310.97103,-9.36394,-43.14540,-0.27921,1.25294,-0.02634,,,0.92617,0.37410,0.01474,0.04516,
8.17969,312.65386,-12.74766,-48.27940,-0.27387,1.32468,0.01770,,,0.91814,0.39375,0.01613,0.04146,
8.18750,313.71851,-14.92036,-50.89878,-0.26514,1.35640,0.05109,,,0.90966,0.41328,0.01744,0.03752,
8.19531,316.77507,-19.44386,-56.13755,-0.26611,1.42032,0.10529,,,0.90069,0.43281,0.01863,0.03311,
8.20313,320.86194,-24.32353,-61.90020,-0.23262,1.52329,0.16820,,,0.89116,0.45238,0.01968,0.02817,
8.21094,322.64780,-26.21129,-64.34496,-0.20836,1.58722,0.20643,,,0.88115,0.47183,0.02069,0.02302,
8.21875,324.98316,-28.98950,-68.46612,-0.16905,1.74484,0.25579,,,0.87061,0.49118,0.02165,0.01751,
8.22656,324.22760,-29.98681,-73.77474,-0.15595,1.90538,0.33806,,,0.85966,0.51022,0.02273,0.01164,
8.23438,319.59124,-30.48546,-80.09619,-0.12781,1.97614,0.38403,,,0.84844,0.52872,0.02397,0.00539,
8.24219,316.87811,-29.98681,-82.99498,-0.07248,2.08887,0.47211,,,0.83688,0.54679,0.02534,-0.00101,
8.25000,310.59326,-28.59771,-88.33852,-0.01813,2.21087,0.58922,,,0.82514,0.56423,0.02697,-0.00765,
8.25781,304.41144,-25.28522,-87.18599,0.09688,2.26406,0.70536,,,0.81324,0.58104,0.02874,-0.01408,
8.26563,302.55689,-21.93712,-84.56661,0.13861,2.29626,0.77359,,,0.80104,0.59749,0.03057,-0.02023,
8.27344,299.15689,-11.28731,-73.53027,0.24731,2.34555,0.93523,,,0.78860,0.61352,0.03253,-0.02532,
8.28125,293.90235,5.52442,-59.56021,0.43074,2.17963,1.05234,,,0.77603,0.62907,0.03480,-0.02893,
8.28906,291.70437,18.41817,-59.21096,0.43754,2.14108,1.15251,,,0.76321,0.64426,0.03773,-0.03196,
8.29688,284.11447,43.92072,-75.62577,0.13473,2.17622,1.45738,,,0.75030,0.65880,0.04270,-0.03468,
8.30469,273.12457,50.36760,-93.40266,0.00710,1.99469,1.65289,,,0.73753,0.67248,0.04882,-0.03799,
8.31250,269.75891,49.37029,-99.61934,0.08086,1.88099,1.68821,,,0.72460,0.68569,0.05515,-0.04162,
8.32031,266.53063,51.93479,-104.82318,0.36523,1.69262,1.77532,,,0.71152,0.69847,0.06185,-0.04536,
8.32813,262.16901,61.37359,-100.73694,0.57196,1.58185,1.94034,,,0.69835,0.71080,0.06879,-0.04842,
8.33594,258.83770,67.03686,-93.99639,0.62291,1.53354,2.01486,,,0.68506,0.72276,0.07566,-0.05084,
8.34375,248.74073,77.36611,-69.16462,0.63213,1.45936,2.15472,,,0.67207,0.73415,0.08180,-0.05153,
8.35156,230.05790,85.23770,-37.06843,0.48606,1.38958,2.35603,,,0.65987,0.74467,0.08674,-0.05024,
8.35938,216.73264,87.26794,-22.81898,0.34097,1.29979,2.52589,,,0.64820,0.75447,0.09106,-0.04811,
8.36719,183.62557,83.34995,-9.44265,-0.08316,1.07776,2.90529,,,0.63817,0.76271,0.09462,-0.04537,
8.37500,144.57708,64.43674,-15.31007,-0.43741,0.88305,3.21113,,,0.63017,0.76904,0.09776,-0.04362,
8.38281,123.31849,50.36760,-25.15896,-0.46070,0.85377,3.29194,,,0.62329,0.77427,0.10088,-0.04288,
8.39063,77.02354,17.38525,-48.24447,-0.32774,0.95918,3.25323,,,0.61897,0.77723,0.10393,-0.04455,
8.39844,27.63768,-10.57495,-56.34710,0.05029,1.11875,2.96820,,,0.61743,0.77794,0.10638,-0.04768,
8.40625,-18.58859,-28.77580,-39.26871,0.41376,1.15388,2.56799,,,0.61851,0.77676,0.10731,-0.05072,
8.41406,-38.40475,-33.19244,-24.00643,0.55788,1.14315,2.37636,,,0.62071,0.77483,0.10731,-0.05321,
8.42188,-68.52394,-32.90749,7.95006,0.73258,1.06263,2.02938,,,0.62461,0.77185,0.10574,-0.05410,
8.42969,-86.34819,-22.79196,31.45467,0.74957,0.95478,1.74387,,,0.62943,0.76829,0.10342,-0.05333,
8.43750,-90.60677,-15.56149,38.43970,0.73549,0.92209,1.62095,,,0.63442,0.76459,0.10106,-0.05185,
8.44531,-93.01082,2.31880,44.02772,0.66804,0.91867,1.37850,,,0.63941,0.76086,0.09919,-0.04918,
8.45313,-131.37243,20.23469,56.04197,-0.97364,9.95671,3.46471,,,0.64627,0.75551,0.09759,-0.04480,
8.46094,-330.11790,-2.16908,60.40761,0.22402,-3.09357,-2.01382,,,0.66329,0.74118,0.09537,-0.04004,
8.46875,-241.16840,4.66959,82.58506,-1.52490,2.49585,-2.38886,,,0.67555,0.73073,0.09206,-0.03450,
8.47656,-312.39669,-48.86440,135.95066,-0.68587,2.17427,-1.41133,,,0.69155,0.71689,0.08375,-0.02871,
8.48438,-326.20275,-49.39867,146.49805,-0.49322,1.47205,-0.59350,,,0.70784,0.70204,0.07488,-0.02235,
8.49219,-307.38255,-69.91469,147.75536,0.32447,0.61319,0.63277,,,0.72293,0.68765,0.06488,-0.01699,
8.50000,-278.84315,-75.47111,115.27498,0.38125,0.51657,0.45469,,,0.73631,0.67418,0.05606,-0.01361,
8.50781,-262.97649,-72.51481,97.25362,0.33320,0.53560,0.17256,,,0.74862,0.66115,0.04818,-0.01105,
8.51563,-231.38052,-68.77491,70.78037,0.05708,0.78740,0.31435,,,0.75922,0.64943,0.04165,-0.00977,
8.52344,-204.24921,-74.04639,62.43326,0.12745,1.07239,0.45323,,,0.76842,0.63891,0.03518,-0.00924,
8.53125,-188.76032,-57.91139,55.44824,0.44579,0.99187,0.29548,,,0.77674,0.62905,0.02985,-0.00840,
8.53906,-177.97648,-42.27505,48.67276,0.49189,0.88012,0.31290,,,0.78443,0.61965,0.02562,-0.00727,
8.54688,-147.78860,-19.19453,38.40477,0.25216,0.61954,0.42323,,,0.79068,0.61177,0.02304,-0.00577,
8.55469,-111.62496,-4.80482,32.67705,0.23663,0.59270,0.50695,,,0.79533,0.60578,0.02146,-0.00403,
8.56250,-96.58253,-0.63751,28.94006,0.24537,0.68737,0.52873,,,0.79931,0.60057,0.02025,-0.00234,
8.57031,-75.32395,0.85845,19.51028,0.05417,0.87085,0.48566,,,0.80239,0.59648,0.01951,-0.00114,
8.57813,-61.48354,-7.54742,11.37272,0.02651,0.86987,0.37968,,,0.80489,0.59313,0.01864,-0.00074,
8.58594,-56.43505,-10.96675,7.98499,0.10076,0.77764,0.35790,,,0.80718,0.59003,0.01772,-0.00067,
8.59375,-46.37243,-10.78866,0.51101,0.19490,0.72543,0.40533,,,0.80906,0.58748,0.01710,-0.00102,
8.60156,-34.45526,-6.30078,-1.13047,0.05320,0.83132,0.44936,,,0.81045,0.58557,0.01680,-0.00130,
8.60938,-30.29970,-5.01853,2.01279,0.02166,0.87866,0.42807,,,0.81166,0.58390,0.01645,-0.00135,
8.61719,-22.98455,-4.27055,11.23302,-0.02832,0.87866,0.42855,,,0.81258,0.58264,0.01577,-0.00087,
8.62500,-16.28758,-4.27055,17.37985,0.08911,0.86939,0.42033,,,0.81323,0.58175,0.01484,-0.00006,
8.63281,-14.63909,-4.62673,18.46253,0.12065,0.85182,0.47888,,,0.81382,0.58096,0.01385,0.00079,
8.64063,-9.89970,-3.84313,13.92226,0.16967,0.82449,0.43194,,,0.81421,0.58042,0.01308,0.00142,
8.64844,-6.43101,-2.45403,9.69632,0.12696,0.90354,0.41307,,,0.81447,0.58007,0.01256,0.00187,
8.65625,-4.64515,-1.56358,9.41692,0.05078,0.93185,0.49050,,,0.81465,0.57982,0.01210,0.00234,
8.66406,-0.52394,-1.59919,10.25512,0.07358,0.89134,0.45711,,,0.81467,0.57980,0.01161,0.00284,
8.67188,4.97101,-0.74436,11.26795,0.09396,0.92941,0.40533,,,0.81448,0.58008,0.01112,0.00344,
8.67969,7.44374,-0.67312,11.65213,0.05563,1.00602,0.40291,,,0.81418,0.58050,0.01062,0.00405,
8.68750,7.61546,-0.56627,12.10615,0.03379,0.98992,0.43146,,,0.81387,0.58093,0.01011,0.00470,
8.69531,8.57707,-1.17178,13.92226,0.06970,0.94356,0.45565,,,0.81353,0.58142,0.00950,0.00542,
8.70313,10.94677,-1.13616,13.32853,0.14007,0.96357,0.36516,,,0.81309,0.58203,0.00891,0.00610,
8.71094,10.77505,-0.92245,11.51243,0.15802,0.97381,0.34774,,,0.81266,0.58264,0.00841,0.00670,
8.71875,9.74475,-0.42380,7.25156,0.12648,0.98601,0.39855,,,0.81227,0.58318,0.00810,0.00708,
8.72656,8.64576,-0.53065,4.63217,0.14395,0.90208,0.40678,,,0.81193,0.58366,0.00789,0.00731,
8.73438,8.92051,-0.03200,2.46682,0.16384,0.89769,0.37629,,,0.81157,0.58416,0.00779,0.00744,
8.74219,9.16091,1.28587,-0.71137,0.11046,0.95771,0.36903,,,0.81120,0.58466,0.00789,0.00745,
8.75000,8.09626,1.21463,-2.00360,0.09299,0.94112,0.37290,,,0.81088,0.58511,0.00804,0.00738,
8.75781,7.71849,1.14340,-2.38778,0.11435,0.91916,0.38790,,,0.81057,0.58553,0.00821,0.00729,
8.76563,7.34071,1.25025,-2.24808,0.09882,0.84840,0.36419,,,0.81028,0.58594,0.00837,0.00722,
8.77344,8.78313,1.49958,-3.36568,0.07795,0.95381,0.33032,,,0.80993,0.58642,0.00859,0.00709,
8.78125,7.51242,0.78722,-1.79405,0.07844,0.94356,0.34726,,,0.80963,0.58683,0.00871,0.00701,
8.78906,5.00535,0.03924,-0.92092,0.10124,0.88598,0.38984,,,0.80943,0.58711,0.00875,0.00696,
8.79688,6.20737,-0.03200,-0.01287,0.11240,0.86987,0.33129,,,0.80918,0.58745,0.00875,0.00696,
8.80469,6.72253,0.14609,0.30146,0.08960,0.94307,0.35839,,,0.80892,0.58782,0.00875,0.00698,
8.81250,5.52051,-0.53065,0.30146,0.08280,0.92941,0.35064,,,0.80869,0.58812,0.00871,0.00697,
8.82031,4.66192,-1.02931,2.36204,0.11435,0.93136,0.39371,,,0.80851,0.58838,0.00856,0.00706,
8.82813,4.21545,-1.24301,1.34921,0.13812,0.89525,0.31435,,,0.80834,0.58861,0.00844,0.00708,
8.83594,5.55485,-0.60189,0.09191,0.11386,0.99431,0.34193,,,0.80812,0.58892,0.00840,0.00706,
8.84375,3.80333,-0.88683,-0.08272,0.09882,0.97333,0.32209,,,0.80796,0.58913,0.00836,0.00702,
8.85156,1.36495,-1.27863,-0.74630,0.12211,0.88305,0.40049,,,0.80791,0.58921,0.00832,0.00692,
8.85938,2.32657,-0.85121,-2.03853,0.11677,0.91282,0.38161,,,0.80782,0.58933,0.00835,0.00678,
8.86719,3.45990,-0.85121,-2.84180,0.07019,1.00017,0.34000,,,0.80768,0.58952,0.00842,0.00658,
8.87500,1.74273,-1.24301,-2.52748,0.10027,0.99919,0.32209,,,0.80761,0.58962,0.00845,0.00639,
8.88281,0.47202,-1.38549,-2.31793,0.12502,0.97089,0.36274,,,0.80760,0.58964,0.00847,0.00621,
8.89063,0.60939,-1.31425,-3.08628,0.18665,0.91965,0.35645,,,0.80757,0.58967,0.00852,0.00599,
8.89844,2.49828,-0.35256,-9.44265,0.18131,0.99675,0.31919,,,0.80748,0.58981,0.00888,0.00545,
8.90625,1.39929,-0.06762,-11.64294,0.17209,0.95918,0.32596,,,0.80743,0.58987,0.00934,0.00481,
8.91406,-0.28354,0.57351,-15.44977,0.15171,0.91184,0.40097,,,0.80744,0.58985,0.00999,0.00398,
8.92188,2.29222,1.42834,-17.92946,0.10318,0.96894,0.37387,,,0.80735,0.58996,0.01079,0.00305,
8.92969,2.22354,1.46396,-18.52319,0.06291,0.93966,0.34000,,,0.80727,0.59007,0.01162,0.00209,
8.93750,2.29222,1.28587,-17.65006,0.01098,0.94893,0.34387,,,0.80718,0.59018,0.01240,0.00117,
8.94531,1.74273,0.96531,-13.80829,0.00370,0.89476,0.38500,,,0.80711,0.59026,0.01301,0.00045,
8.95313,2.70434,0.32418,-11.15398,0.02894,0.89427,0.39371,,,0.80700,0.59040,0.01347,-0.00015,
8.96094,6.55081,0.64475,-9.89668,0.06679,0.98601,0.34532,,,0.80673,0.59075,0.01391,-0.00068,
8.96875,5.69222,0.46665,-6.82327,0.02506,0.90062,0.34096,,,0.80650,0.59106,0.01421,-0.00104,
8.97656,4.28414,-0.35256,-2.73703,0.01389,0.85426,0.44694,,,0.80633,0.59129,0.01430,-0.00121,
8.98438,5.76091,-0.67312,-0.99077,0.09008,0.89134,0.39274,,,0.80610,0.59160,0.01430,-0.00130,
8.99219,6.03566,0.57351,-1.23525,0.16336,0.99870,0.30273,,,0.80586,0.59193,0.01438,-0.00135,
9.00000,-0.48960,1.64205,-4.48328,0.14734,0.96991,0.27321,,,0.80587,0.59190,0.01465,-0.00152,
9.00781,-0.90172,2.67498,-5.53104,0.08960,1.12509,0.33419,1022.706,24.8,0.80591,0.59185,0.01502,-0.00172,
9.01563,-5.77849,1.99823,-4.79761,0.11532,1.00212,0.35887,,,0.80614,0.59153,0.01532,-0.00189,
9.02344,-5.12596,3.56543,-6.40417,0.14637,1.03481,0.28628,,,0.80634,0.59124,0.01578,-0.00210,
9.03125,-5.29768,4.77644,-8.04565,0.07747,1.05238,0.29451,,,0.80655,0.59094,0.01636,-0.00234,
9.03906,-8.25121,5.13262,-6.36924,-0.00163,1.16608,0.41646,,,0.80687,0.59048,0.01690,-0.00247,
9.04688,-9.00677,4.09970,-2.63225,0.11483,1.01676,0.36903,,,0.80723,0.58998,0.01723,-0.00244,
9.05469,-8.25121,5.13262,-3.74986,0.20994,1.02603,0.32257,,,0.80755,0.58952,0.01767,-0.00243,
9.06250,-10.41485,7.48342,-9.26803,0.21771,0.99870,0.27128,,,0.80796,0.58894,0.01845,-0.00263,
9.07031,-12.95626,10.43972,-14.43695,0.11095,1.14266,0.45807,,,0.80847,0.58821,0.01961,-0.00299,
9.07813,-13.50576,10.54657,-13.66859,0.08038,1.02749,0.41694,,,0.80899,0.58745,0.02074,-0.00330,
9.08594,-15.15424,13.43164,-9.68713,0.20800,1.26124,0.42033,,,0.80958,0.58660,0.02187,-0.00327,
9.09375,-21.33606,21.97998,-5.18179,0.25168,1.28662,0.27854,,,0.81039,0.58542,0.02329,-0.00264,
9.10156,-36.30980,29.60225,-12.79547,0.09833,1.46815,0.43436,,,0.81179,0.58340,0.02544,-0.00211,
9.10938,-41.87344,31.24068,-15.69425,0.20994,1.35249,0.45323,,,0.81339,0.58105,0.02780,-0.00166,
9.11719,-50.80273,38.72048,-17.58021,0.02360,1.37787,0.36226,,,0.81532,0.57820,0.03065,-0.00101,
9.12500,-61.79263,37.22452,-12.16681,-0.00552,1.37250,0.43291,,,0.81767,0.57474,0.03320,-0.00009,
9.13281,-70.96233,34.55317,-12.30651,0.06582,1.31492,0.43146,,,0.82036,0.57074,0.03561,0.00074,
9.14063,-78.65526,32.13114,-10.90951,-0.01231,1.49840,0.49147,,,0.82332,0.56631,0.03782,0.00157,
9.14844,-90.91587,24.90066,-8.49967,0.02991,1.35054,0.38500,,,0.82675,0.56117,0.03954,0.00229,
9.15625,-93.31991,23.83212,-8.01072,-0.03269,1.56428,0.46437,,,0.83024,0.55587,0.04117,0.00301,
9.16406,-106.78253,18.02637,-6.96297,0.00710,1.45985,0.38936,,,0.83422,0.54979,0.04243,0.00359,
9.17188,-117.97849,15.14131,-7.76625,-0.00358,1.50377,0.43049,,,0.83857,0.54304,0.04355,0.00406,
9.17969,-121.51587,14.25085,-5.25164,-0.02541,1.61650,0.40339,,,0.84299,0.53606,0.04453,0.00465,
9.18750,-133.74213,9.83421,-4.13403,-0.05307,1.68823,0.31822,,,0.84782,0.52834,0.04520,0.00518,
9.19531,-150.84516,6.77106,-2.84180,0.04641,1.75069,0.35597,,,0.85318,0.51958,0.04564,0.00572,
9.20313,-158.77850,7.80398,-2.73703,0.01923,1.83853,0.41791,,,0.85873,0.51031,0.04612,0.00634,
9.21094,-177.59870,7.62589,-2.80688,0.13909,1.94442,0.41839,,,0.86482,0.49987,0.04658,0.00700,
9.21875,-196.17850,10.83152,-5.56596,0.07455,2.15670,0.29983,,,0.87139,0.48824,0.04731,0.00766,
9.22656,-209.70981,11.22332,-6.19462,0.07261,2.23380,0.29838,,,0.87824,0.47572,0.04807,0.00834,
9.23438,-239.17648,12.39871,-9.09340,-0.02929,2.43485,0.36419,,,0.88584,0.46131,0.04896,0.00898,
9.24219,-272.00881,10.40410,-16.11335,-0.02299,2.56173,0.29499,,,0.89421,0.44475,0.04992,0.00924,
9.25000,-306.14619,10.51096,-16.25305,-0.14964,2.73204,0.17885,,,0.90327,0.42595,0.05085,0.00961,
9.25781,-324.96639,9.29994,-12.69069,-0.21370,2.63883,0.25047,,,0.91245,0.40580,0.05157,0.01023,
9.26563,-357.69568,6.16555,-17.85961,-0.32046,2.53391,0.38500,,,0.92205,0.38338,0.05218,0.01054,
9.27344,-385.27346,3.38734,-34.13472,-0.01716,2.36849,0.38790,,,0.93181,0.35893,0.05299,0.00985,
9.28125,-395.95427,6.91353,-37.97648,-0.04288,2.26552,0.28531,,,0.94115,0.33352,0.05407,0.00904,
9.28906,-411.30579,4.77644,-36.26515,0.01147,2.10985,0.16869,,,0.95012,0.30689,0.05493,0.00833,
9.29688,-423.39468,-2.52526,-4.72776,0.09591,1.98151,0.12126,,,0.95859,0.27934,0.05460,0.00956,
9.30469,-430.36640,-4.44864,14.23659,0.05320,1.77802,0.08690,,,0.96637,0.25118,0.05373,0.01200,
9.31250,-436.51387,-10.29001,45.21518,0.02942,1.47400,-0.15022,,,0.97341,0.22251,0.05190,0.01639,
9.32031,-427.82498,-10.89552,67.88158,0.06388,1.22562,-0.20684,,,0.97943,0.19430,0.04965,0.02224,
9.32813,-418.93003,-8.04607,68.40546,0.04253,0.84645,-0.33702,,,0.98449,0.16650,0.04755,0.02811,
9.33594,-375.31387,-3.80752,51.64140,-0.33016,0.41751,-0.66415,,,0.98834,0.14145,0.04598,0.03273,
9.34375,-320.70780,-12.74766,31.10542,-0.83145,-0.07585,-0.90369,,,0.99116,0.11994,0.04410,0.03570,
9.35156,-291.20679,-33.33491,5.61008,-0.89502,-0.38572,-0.77352,,,0.99343,0.10033,0.04109,0.03668,
9.35938,-186.90577,-61.01017,27.89231,0.10755,-2.00633,-0.79239,,,0.99472,0.08788,0.03630,0.03867,
9.36719,-25.76637,-42.09696,37.84597,0.18471,-1.27484,-0.91482,,,0.99487,0.08632,0.03315,0.04105,
9.37500,39.34879,-34.58154,45.80890,-0.00746,-0.88201,-0.83546,,,0.99458,0.08918,0.03064,0.04386,
9.38281,132.93466,-29.55939,69.34844,-0.03318,0.05200,-0.66367,,,0.99357,0.09843,0.02861,0.04810,
9.39063,173.01345,-26.21129,77.41614,-0.17730,0.57171,-0.55527,,,0.99212,0.11038,0.02689,0.05283,
9.39844,181.22153,-27.52916,66.79891,-0.29862,0.63076,-0.50542,,,0.99048,0.12286,0.02518,0.05680,
9.40625,180.56900,-29.16759,56.84524,-0.33308,0.62344,-0.49332,,,0.98871,0.13526,0.02343,0.06008,
9.41406,174.55890,-31.41153,31.48960,-0.37481,0.62393,-0.45558,,,0.98695,0.14720,0.02174,0.06163,
9.42188,165.42355,-34.15413,7.18171,-0.34133,0.55658,-0.42364,,,0.98524,0.15848,0.02007,0.06152,
9.42969,162.33264,-35.54323,-2.59733,-0.29911,0.50632,-0.41686,,,0.98348,0.16952,0.01839,0.06073,
9.43750,162.22961,-37.03919,-14.15755,-0.18798,0.44093,-0.41348,,,0.98165,0.18053,0.01675,0.05915,
9.44531,169.92254,-36.71863,-13.73844,-0.08850,0.37261,-0.40912,,,0.97958,0.19203,0.01514,0.05758,
9.45313,176.82557,-35.68571,-10.38563,-0.05598,0.35358,-0.41493,,,0.97727,0.20396,0.01359,0.05623,
9.46094,195.61143,-32.94311,-1.54957,-0.02493,0.33650,-0.40380,,,0.97450,0.21710,0.01216,0.05548,
9.46875,217.21345,-28.41962,3.51457,-0.01085,0.38628,-0.38783,,,0.97118,0.23162,0.01105,0.05511,
9.47656,227.79123,-25.21399,3.58442,-0.00794,0.41409,-0.37815,,,0.96747,0.24677,0.01017,0.05477,
9.48438,247.91648,-18.41093,0.26653,-0.01522,0.50779,-0.34524,,,0.96317,0.26316,0.00988,0.05430,
9.49219,266.56497,-10.68181,-5.39134,-0.03803,0.62588,-0.30798,,,0.95826,0.28066,0.01026,0.05357,
9.50000,274.94477,-7.08438,-8.49967,-0.04482,0.69420,-0.27217,,,0.95286,0.29860,0.01096,0.05267,
9.50781,288.20134,-1.10054,-14.57665,-0.09190,0.82351,-0.20345,,,0.94686,0.31726,0.01222,0.05148,
9.51563,298.12659,2.88868,-20.89810,-0.12781,0.96942,-0.13861,,,0.94028,0.33642,0.01391,0.04993,
9.52344,301.42356,4.49150,-23.97151,-0.15207,1.05433,-0.09844,,,0.93325,0.35564,0.01577,0.04820,
9.53125,304.85790,6.34364,-29.55953,-0.18846,1.19195,-0.03505,,,0.92574,0.37491,0.01789,0.04614,
9.53906,306.02558,6.23678,-35.67142,-0.24330,1.27344,0.02109,,,0.91782,0.39408,0.02016,0.04366,
9.54688,307.26194,3.24487,-43.98361,-0.29522,1.33981,0.10239,,,0.90948,0.41315,0.02245,0.04056,
9.55469,307.98316,0.35980,-48.90805,-0.30978,1.38421,0.14449,,,0.90073,0.43208,0.02470,0.03706,
9.56250,309.56295,-7.01314,-59.17604,-0.29765,1.48376,0.22579,,,0.89157,0.45091,0.02679,0.03269,
9.57031,310.04376,-14.52856,-67.13897,-0.25737,1.61845,0.29451,,,0.88200,0.46956,0.02866,0.02759,
9.57813,309.94073,-18.30408,-69.47895,-0.20108,1.69994,0.33225,,,0.87204,0.48799,0.03036,0.02221,
9.58594,306.91851,-23.82488,-70.31715,-0.10354,1.83902,0.40291,,,0.86178,0.50602,0.03174,0.01660,
9.59375,300.77103,-25.49893,-67.59299,0.01244,1.94296,0.44936,,,0.85134,0.52346,0.03291,0.01109,
9.60156,296.99326,-24.46601,-65.81181,0.07649,1.97175,0.47937,,,0.84066,0.54045,0.03405,0.00573,
9.60938,288.40740,-17.09306,-64.37988,0.17792,2.07569,0.54518,,,0.82993,0.55673,0.03555,0.00075,
9.61719,278.13871,-6.55011,-62.87810,0.25993,2.10400,0.62067,,,0.81924,0.57221,0.03757,-0.00373,
9.62500,273.84578,0.71598,-60.78259,0.29001,2.10936,0.66326,,,0.80839,0.58724,0.03990,-0.00779,
9.63281,266.56497,16.77974,-55.92800,0.32301,2.11864,0.77214,,,0.79751,0.60168,0.04291,-0.01093,
9.64063,259.62760,35.26553,-52.81966,0.34825,2.02641,0.86796,,,0.78658,0.61557,0.04679,-0.01310,
9.64844,256.46800,45.95095,-55.82322,0.29001,2.01128,0.94394,,,0.77550,0.62908,0.05135,-0.01498,
9.65625,249.66800,62.62022,-69.12970,0.10270,1.95223,1.12589,,,0.76438,0.64199,0.05736,-0.01682,
9.66406,245.64982,67.57113,-79.46754,-0.06326,1.82682,1.27784,,,0.75316,0.65444,0.06407,-0.01896,
9.67188,245.89022,65.50528,-79.60724,-0.11470,1.73996,1.33301,,,0.74168,0.66668,0.07065,-0.02120,
9.67969,250.97305,56.85009,-70.45685,-0.05598,1.57648,1.40221,,,0.72979,0.67899,0.07635,-0.02338,
9.68750,256.39931,49.12096,-57.25515,0.01244,1.51743,1.53433,,,0.71747,0.69140,0.08102,-0.02528,
9.69531,253.72052,42.95903,-48.34925,0.05417,1.47839,1.67660,,,0.70509,0.70350,0.08494,-0.02702,
9.70313,248.67204,40.64386,-45.13613,0.06582,1.47693,1.73564,,,0.69275,0.71514,0.08859,-0.02867,
9.71094,230.26396,37.86565,-40.17677,0.06533,1.43740,1.89340,,,0.68114,0.72574,0.09187,-0.03011,
9.71875,202.68618,35.58609,-40.63079,-0.00940,1.26466,2.16343,,,0.67076,0.73488,0.09510,-0.03150,
9.72656,187.12860,32.84350,-43.66928,-0.07200,1.15583,2.32216,,,0.66104,0.74314,0.09838,-0.03306,
9.73438,155.53264,22.44302,-50.47968,-0.16372,0.95039,2.64542,,,0.65288,0.74979,0.10159,-0.03524,
9.74219,122.21950,7.23409,-58.51246,-0.11034,0.92355,2.88448,,,0.64643,0.75479,0.10460,-0.03832,
9.75000,102.36900,-0.38818,-62.35422,-0.03318,0.97089,2.93432,,,0.64101,0.75881,0.10751,-0.04182,
9.75781,57.20738,-14.10114,-64.44973,0.18471,1.11533,2.87528,,,0.63799,0.76077,0.11006,-0.04578,
9.76563,8.57707,-24.39477,-50.02565,0.37397,1.19927,2.63381,,,0.63759,0.76066,0.11156,-0.04928,
9.77344,-14.26131,-28.24152,-36.71918,0.45549,1.16999,2.46298,,,0.63844,0.75965,0.11228,-0.05223,
9.78125,-50.66536,-30.23614,-5.11194,0.57196,1.02505,2.12762,,,0.64129,0.75727,0.11140,-0.05363,
9.78906,-72.47344,-23.93174,21.64071,0.64863,0.91184,1.82758,,,0.64530,0.75416,0.10949,-0.05336,
9.79688,-83.77243,-15.91767,40.22088,0.73258,5.93031,2.25150,,,0.64989,0.75068,0.10700,-0.05177,
9.80469,-316.86134,-12.10653,133.15665,0.25071,-0.02119,0.75714,,,0.66649,0.73736,0.10074,-0.04416,
9.81250,-310.09568,-32.51570,135.32201,-1.15125,1.39592,0.37145,,,0.68252,0.72390,0.09338,-0.03751,
9.82031,-334.10174,-55.02633,165.25284,0.06873,0.88744,-0.56398,,,0.69955,0.70904,0.08348,-0.03040,
9.82813,-315.55629,-48.79316,161.55078,0.18374,1.34664,-0.75464,,,0.71520,0.69461,0.07398,-0.02325,
