Gait Up - Physilog data export
Created on: YYYY-MM-DD hh:mm:ss
Total data points: 20693

Time [128 hz],Gyro [128 hz],,,Accel [128 hz],,,Baro [1 hz],,Event [128 hz],Quaternion [128 hz],,,,
Time,Gyro X,Gyro Y,Gyro Z,Accel X,Accel Y,Accel Z,Pressure,Temperature,Quat W,Quat X,Quat Y,Quat Z,
[s],[deg/s],[deg/s],[deg/s],[g],[g],[g],[mBar],[degree C],[],[],[],[],
0.00781,0.88859,-0.24533,-0.84417,0.21504,0.96745,0.18755,1021.973,25.4,0.00000,0.00000,0.00000,0.00000,
0.01563,0.75003,-0.52977,-0.84417,0.21602,0.96599,0.17399,,,0.00000,0.00000,0.00000,0.00000,
0.02344,0.85395,-0.70755,-0.63329,0.22732,0.96012,0.17835,,,0.00000,0.00000,0.00000,0.00000,
0.03125,0.88859,-0.28088,-0.80902,0.21798,0.96110,0.17399,,,0.00000,0.00000,0.00000,0.00000,
0.03906,1.06179,-0.13866,-0.87932,0.21798,0.96501,0.17690,,,0.76726,0.62542,-0.14201,0.00000,
0.04688,0.88859,-0.42311,-0.80902,0.22191,0.96550,0.18271,,,0.76722,0.62547,-0.14199,-0.00005,
0.05469,0.81931,-0.60088,-0.66844,0.22339,0.96061,0.18319,,,0.76718,0.62552,-0.14200,-0.00010,
0.06250,0.81931,-0.42311,-0.63329,0.22535,0.95914,0.18125,,,0.76714,0.62557,-0.14199,-0.00015,
0.07031,0.88859,-0.13866,-0.73873,0.22290,0.96110,0.18077,,,0.76710,0.62562,-0.14197,-0.00018,
0.07813,0.81931,-0.35199,-0.66844,0.21798,0.96061,0.17593,,,0.76706,0.62567,-0.14196,-0.00023,
0.08594,0.81931,-0.49422,-0.59815,0.22191,0.96061,0.18706,,,0.76702,0.62572,-0.14196,-0.00027,
0.09375,0.85395,-0.38755,-0.66844,0.21651,0.95865,0.18706,,,0.76698,0.62577,-0.14195,-0.00031,
0.10156,0.99251,-0.06755,-0.80902,0.21995,0.96207,0.17738,,,0.76694,0.62583,-0.14192,-0.00035,
0.10938,1.02715,-0.49422,-0.42241,0.22682,0.96159,0.17157,,,0.76689,0.62589,-0.14193,-0.00038,
0.11719,0.95787,-0.31644,-0.63329,0.21602,0.95719,0.17786,,,0.76684,0.62595,-0.14192,-0.00042,
0.12500,1.06179,-0.38755,-0.63329,0.22142,0.96501,0.17738,,,0.76680,0.62601,-0.14191,-0.00046,
0.13281,0.85395,-0.60088,-0.28183,0.21847,0.96159,0.17835,,,0.76675,0.62606,-0.14193,-0.00049,
0.14063,1.02715,-0.42311,-0.52785,0.21160,0.96892,0.18755,,,0.76671,0.62611,-0.14193,-0.00053,
0.14844,0.92323,-0.56533,-0.38727,0.22682,0.96550,0.18658,,,0.76666,0.62617,-0.14194,-0.00056,
0.15625,0.92323,-0.63644,-0.42241,0.22486,0.95963,0.18029,,,0.76662,0.62622,-0.14196,-0.00060,
0.16406,0.88859,-0.67200,-0.24668,0.22044,0.95670,0.17496,,,0.76657,0.62627,-0.14198,-0.00064,
0.17188,0.99251,-0.56533,-0.35212,0.22191,0.96159,0.18029,,,0.76652,0.62632,-0.14200,-0.00067,
0.17969,1.02715,-0.52977,-0.17639,0.22437,0.95865,0.18706,,,0.76647,0.62638,-0.14202,-0.00069,
0.18750,0.95787,-0.56533,-0.07095,0.22977,0.96354,0.18319,,,0.76643,0.62643,-0.14204,-0.00071,
0.19531,1.13107,-0.42311,-0.03580,0.22290,0.95572,0.17883,,,0.76637,0.62649,-0.14206,-0.00072,
0.20313,1.20035,-0.31644,-0.17639,0.22044,0.95963,0.18125,,,0.76632,0.62655,-0.14207,-0.00073,
0.21094,1.02715,-0.49422,-0.10610,0.22486,0.96256,0.18416,,,0.76627,0.62661,-0.14209,-0.00075,
0.21875,0.88859,-1.09867,-0.00066,0.22879,0.96696,0.18222,,,0.76622,0.62665,-0.14215,-0.00078,
0.22656,0.85395,-1.06311,-0.00066,0.22535,0.96207,0.18368,,,0.76618,0.62670,-0.14221,-0.00082,
0.23438,0.99251,-0.70755,-0.17639,0.22093,0.95670,0.18658,,,0.76613,0.62675,-0.14224,-0.00085,
0.24219,1.13107,-0.38755,-0.17639,0.21798,0.96354,0.17544,,,0.76608,0.62681,-0.14225,-0.00087,
0.25000,1.06179,-0.56533,-0.17639,0.22191,0.96110,0.17835,,,0.76602,0.62687,-0.14227,-0.00089,
0.25781,0.85395,-0.81422,-0.14124,0.22388,0.96647,0.17932,,,0.76598,0.62692,-0.14231,-0.00092,
0.26563,1.13107,-0.38755,-0.38727,0.22093,0.95914,0.18610,,,0.76593,0.62698,-0.14231,-0.00095,
0.27344,0.99251,-0.38755,-0.31697,0.22191,0.96354,0.18077,,,0.76588,0.62703,-0.14232,-0.00097,
0.28125,0.88859,-0.45866,-0.31697,0.22191,0.96452,0.18222,,,0.76584,0.62708,-0.14233,-0.00100,
0.28906,0.95787,-0.81422,-0.38727,0.23223,0.96012,0.18029,,,0.76579,0.62714,-0.14235,-0.00105,
0.29688,0.99251,-0.63644,-0.42241,0.23026,0.95963,0.17690,,,0.76574,0.62719,-0.14237,-0.00108,
0.30469,1.09643,-0.35199,-0.63329,0.22044,0.96550,0.18125,,,0.76569,0.62726,-0.14236,-0.00112,
0.31250,0.99251,-0.31644,-0.66844,0.22339,0.97087,0.18803,,,0.76565,0.62731,-0.14235,-0.00116,
0.32031,0.85395,-0.63644,-0.66844,0.23174,0.95865,0.17883,,,0.76560,0.62736,-0.14235,-0.00122,
0.32813,1.09643,-0.31644,-0.77388,0.22290,0.95816,0.18852,,,0.76555,0.62743,-0.14234,-0.00126,
0.33594,0.92323,-0.24533,-0.66844,0.21897,0.96550,0.17883,,,0.76551,0.62748,-0.14232,-0.00129,
0.34375,1.02715,0.11023,-0.91446,0.21897,0.96745,0.18319,,,0.76547,0.62755,-0.14228,-0.00133,
0.35156,0.81931,-0.35199,-0.66844,0.23075,0.96110,0.17641,,,0.76543,0.62760,-0.14227,-0.00137,
0.35938,0.99251,0.11023,-0.70358,0.23174,0.95767,0.18271,,,0.76539,0.62765,-0.14223,-0.00139,
0.36719,1.20035,0.11023,-0.91446,0.21798,0.96599,0.18077,,,0.76534,0.62773,-0.14219,-0.00142,
0.37500,1.20035,-0.06755,-0.84417,0.21504,0.96647,0.18077,,,0.76529,0.62780,-0.14215,-0.00146,
0.38281,0.88859,-0.67200,-0.63329,0.22977,0.96207,0.17496,,,0.76524,0.62785,-0.14216,-0.00151,
0.39063,0.92323,-0.35199,-0.59815,0.22928,0.95914,0.18125,,,0.76520,0.62790,-0.14215,-0.00155,
0.39844,0.99251,0.11023,-0.77388,0.22142,0.96452,0.18029,,,0.76516,0.62796,-0.14212,-0.00158,
0.40625,1.02715,0.03912,-0.59815,0.22191,0.96990,0.18125,,,0.76511,0.62802,-0.14209,-0.00159,
0.41406,0.78467,-0.52977,-0.52785,0.22879,0.96061,0.18368,,,0.76507,0.62807,-0.14209,-0.00164,
0.42188,0.81931,-0.45866,-0.42241,0.22044,0.95767,0.17932,,,0.76503,0.62811,-0.14210,-0.00167,
0.42969,1.09643,0.11023,-0.66844,0.21602,0.96403,0.18319,,,0.76499,0.62818,-0.14206,-0.00169,
0.43750,0.85395,-0.28088,-0.52785,0.22633,0.96696,0.18222,,,0.76495,0.62823,-0.14206,-0.00172,
0.44531,0.75003,-0.45866,-0.45756,0.22142,0.95914,0.18513,,,0.76491,0.62827,-0.14206,-0.00176,
0.45313,1.06179,-0.52977,-0.45756,0.22879,0.96110,0.17738,,,0.76486,0.62833,-0.14207,-0.00179,
0.46094,1.13107,-0.28088,-0.56300,0.22830,0.95767,0.18222,,,0.76481,0.62840,-0.14206,-0.00183,
0.46875,0.99251,-0.20977,-0.45756,0.21798,0.96941,0.18271,,,0.76477,0.62845,-0.14205,-0.00185,
0.47656,0.88859,-0.56533,-0.35212,0.23026,0.96550,0.18368,,,0.76472,0.62850,-0.14207,-0.00188,
0.48438,0.81931,-0.63644,-0.31697,0.22781,0.96061,0.17641,,,0.76468,0.62855,-0.14209,-0.00192,
0.49219,1.13107,-0.10310,-0.42241,0.22388,0.96061,0.17738,,,0.76463,0.62861,-0.14207,-0.00193,
0.50000,0.85395,-0.45866,-0.56300,0.22290,0.96794,0.17302,,,0.76459,0.62866,-0.14207,-0.00197,
0.50781,0.88859,-0.35199,-0.45756,0.22928,0.95865,0.17786,,,0.76455,0.62871,-0.14207,-0.00200,
0.51563,0.92323,-0.38755,-0.49271,0.22633,0.95914,0.17690,,,0.76451,0.62876,-0.14207,-0.00204,
0.52344,1.02715,0.07468,-0.59815,0.22142,0.96061,0.18029,,,0.76446,0.62882,-0.14204,-0.00206,
0.53125,0.88859,-0.35199,-0.66844,0.21749,0.96745,0.17932,,,0.76442,0.62888,-0.14203,-0.00210,
0.53906,0.68075,-0.77866,-0.77388,0.23026,0.96256,0.17593,,,0.76438,0.62892,-0.14204,-0.00216,
0.54688,0.71539,-0.77866,-0.70358,0.23370,0.96110,0.17738,,,0.76435,0.62896,-0.14205,-0.00223,
0.55469,0.95787,-0.13866,-0.73873,0.22682,0.96061,0.18319,,,0.76430,0.62902,-0.14202,-0.00226,
0.56250,0.88859,-0.24533,-0.70358,0.21700,0.97234,0.18513,,,0.76426,0.62907,-0.14201,-0.00230,
0.57031,0.71539,-0.49422,-0.80902,0.22437,0.96892,0.18271,,,0.76423,0.62912,-0.14200,-0.00236,
0.57813,0.78467,-0.52977,-0.59815,0.23125,0.96403,0.18706,,,0.76419,0.62916,-0.14200,-0.00240,
0.58594,0.88859,-0.13866,-0.70358,0.22486,0.96207,0.18222,,,0.76415,0.62922,-0.14198,-0.00244,
0.59375,0.78467,-0.13866,-0.77388,0.21946,0.96110,0.18416,,,0.76411,0.62927,-0.14195,-0.00248,
0.60156,0.75003,-0.56533,-0.77388,0.22535,0.96550,0.18319,,,0.76407,0.62931,-0.14195,-0.00253,
0.60938,0.68075,-0.74311,-0.66844,0.22781,0.95719,0.17980,,,0.76404,0.62935,-0.14196,-0.00259,
0.61719,0.78467,-0.20977,-0.63329,0.22437,0.95767,0.17980,,,0.76400,0.62940,-0.14194,-0.00263,
0.62500,0.81931,-0.28088,-0.84417,0.21504,0.96305,0.18319,,,0.76396,0.62945,-0.14192,-0.00268,
0.63281,0.75003,-0.63644,-0.84417,0.22093,0.96550,0.18174,,,0.76393,0.62950,-0.14192,-0.00274,
0.64063,0.71539,-0.84978,-0.73873,0.23125,0.96061,0.17835,,,0.76389,0.62954,-0.14193,-0.00281,
0.64844,0.92323,0.03912,-0.70358,0.21749,0.96256,0.18561,,,0.76385,0.62960,-0.14190,-0.00283,
0.65625,0.78467,0.18134,-0.73873,0.21504,0.96305,0.18464,,,0.76382,0.62965,-0.14186,-0.00286,
0.66406,0.81931,-0.52977,-0.52785,0.22290,0.96110,0.18513,,,0.76377,0.62969,-0.14186,-0.00290,
0.67188,0.81931,-0.92089,-0.49271,0.22879,0.95670,0.17932,,,0.76373,0.62974,-0.14189,-0.00296,
0.67969,0.88859,-0.45866,-0.49271,0.22584,0.95914,0.18174,,,0.76369,0.62979,-0.14189,-0.00299,
0.68750,0.85395,-0.03199,-0.66844,0.21405,0.96647,0.18416,,,0.76365,0.62984,-0.14187,-0.00302,
0.69531,0.81931,-0.31644,-0.56300,0.21651,0.97234,0.18513,,,0.76361,0.62989,-0.14186,-0.00306,
0.70313,0.75003,-0.92089,-0.42241,0.23272,0.95719,0.17690,,,0.76357,0.62993,-0.14189,-0.00311,
0.71094,0.92323,-0.38755,-0.45756,0.22093,0.96061,0.18077,,,0.76353,0.62999,-0.14189,-0.00314,
0.71875,0.99251,-0.13866,-0.56300,0.22535,0.96256,0.18610,,,0.76348,0.63004,-0.14187,-0.00317,
0.72656,0.95787,-0.45866,-0.63329,0.22535,0.96745,0.18222,,,0.76344,0.63010,-0.14187,-0.00321,
0.73438,0.68075,-0.70755,-0.42241,0.23419,0.96110,0.18222,,,0.76340,0.63014,-0.14189,-0.00326,
0.74219,0.78467,-0.35199,-0.42241,0.22633,0.95670,0.18029,,,0.76336,0.63018,-0.14189,-0.00329,
0.75000,1.09643,-0.17421,-0.77388,0.22290,0.96207,0.18271,,,0.76332,0.63025,-0.14186,-0.00332,
0.75781,0.99251,-0.35199,-0.63329,0.22093,0.96452,0.18416,,,0.76327,0.63031,-0.14186,-0.00336,
0.76563,0.85395,-0.67200,-0.80902,0.23370,0.96403,0.18271,,,0.76323,0.63036,-0.14186,-0.00343,
0.77344,0.99251,-0.24533,-0.77388,0.22584,0.96256,0.18803,,,0.76318,0.63042,-0.14184,-0.00347,
0.78125,1.02715,0.00356,-0.80902,0.22044,0.95816,0.17690,,,0.76314,0.63048,-0.14180,-0.00350,
0.78906,0.99251,-0.17421,-0.80902,0.21455,0.97039,0.18319,,,0.76309,0.63054,-0.14178,-0.00354,
0.79688,1.06179,-0.63644,-0.66844,0.22437,0.96256,0.18416,,,0.76304,0.63060,-0.14178,-0.00359,
0.80469,0.95787,-0.42311,-0.56300,0.22682,0.96012,0.18077,,,0.76299,0.63065,-0.14178,-0.00363,
0.81250,1.20035,0.00356,-0.70358,0.22044,0.96207,0.18319,,,0.76294,0.63072,-0.14175,-0.00365,
0.82031,1.02715,-0.28088,-0.66844,0.22191,0.96256,0.18755,,,0.76290,0.63078,-0.14173,-0.00369,
0.82813,0.92323,-0.60088,-0.59815,0.22535,0.96354,0.17980,,,0.76285,0.63084,-0.14174,-0.00374,
0.83594,1.02715,-0.38755,-0.49271,0.23026,0.95914,0.18222,,,0.76280,0.63089,-0.14174,-0.00377,
0.84375,1.06179,-0.38755,-0.52785,0.21897,0.95816,0.18368,,,0.76275,0.63096,-0.14174,-0.00380,
0.85156,0.88859,-0.31644,-0.52785,0.21602,0.96599,0.18319,,,0.76271,0.63101,-0.14173,-0.00384,
0.85938,0.92323,-0.67200,-0.42241,0.22240,0.96403,0.18174,,,0.76267,0.63106,-0.14175,-0.00388,
0.86719,0.88859,-0.63644,-0.42241,0.23125,0.96110,0.17883,,,0.76262,0.63111,-0.14176,-0.00392,
0.87500,0.95787,-0.10310,-0.52785,0.22339,0.96305,0.17690,,,0.76258,0.63116,-0.14175,-0.00394,
0.88281,0.99251,-0.35199,-0.70358,0.21847,0.96452,0.17835,,,0.76253,0.63122,-0.14173,-0.00398,
0.89063,0.92323,-0.42311,-0.63329,0.22388,0.95914,0.18077,,,0.76249,0.63128,-0.14173,-0.00403,
0.89844,0.92323,-0.45866,-0.70358,0.22682,0.96061,0.17835,,,0.76244,0.63133,-0.14172,-0.00407,
0.90625,0.99251,-0.17421,-0.66844,0.21946,0.95914,0.18610,,,0.76240,0.63139,-0.14170,-0.00411,
0.91406,0.92323,-0.31644,-0.70358,0.21700,0.96501,0.18658,,,0.76236,0.63144,-0.14169,-0.00415,
0.92188,0.99251,-0.42311,-0.56300,0.22682,0.96452,0.18125,,,0.76231,0.63150,-0.14169,-0.00419,
0.92969,0.92323,-0.52977,-0.38727,0.23223,0.96599,0.17980,,,0.76226,0.63155,-0.14170,-0.00422,
0.93750,1.02715,-0.06755,-0.56300,0.21897,0.95621,0.18561,,,0.76222,0.63161,-0.14168,-0.00424,
0.94531,1.06179,-0.13866,-0.59815,0.21405,0.96159,0.17835,,,0.76217,0.63167,-0.14166,-0.00427,
0.95313,1.06179,-0.13866,-0.52785,0.22044,0.97234,0.17932,,,0.76212,0.63173,-0.14165,-0.00429,
0.96094,0.95787,-0.45866,-0.52785,0.22584,0.96354,0.17932,,,0.76208,0.63179,-0.14165,-0.00433,
0.96875,0.85395,-0.24533,-0.45756,0.22535,0.96012,0.17641,,,0.76204,0.63183,-0.14164,-0.00436,
0.97656,0.95787,-0.10310,-0.63329,0.22682,0.95767,0.17835,,,0.76200,0.63189,-0.14162,-0.00438,
0.98438,0.81931,-0.31644,-0.52785,0.22388,0.96354,0.18174,,,0.76196,0.63194,-0.14161,-0.00442,
0.99219,0.68075,-0.56533,-0.56300,0.22437,0.96207,0.18029,,,0.76192,0.63198,-0.14162,-0.00446,
1.00000,0.81931,-0.60088,-0.56300,0.22191,0.95767,0.18319,,,0.76188,0.63203,-0.14163,-0.00451,
1.00781,0.88859,-0.28088,-0.52785,0.22044,0.96159,0.18803,1021.985,25.4,0.76184,0.63208,-0.14162,-0.00454,
1.01563,0.85395,-0.45866,-0.49271,0.21798,0.96452,0.18368,,,0.76180,0.63213,-0.14162,-0.00458,
1.02344,0.88859,-0.42311,-0.45756,0.22486,0.96305,0.18464,,,0.76176,0.63218,-0.14162,-0.00461,
1.03125,0.88859,-0.49422,-0.49271,0.22682,0.95767,0.17980,,,0.76171,0.63223,-0.14163,-0.00465,
1.03906,0.99251,-0.28088,-0.45756,0.22191,0.96061,0.17883,,,0.76167,0.63228,-0.14162,-0.00468,
1.04688,0.85395,-0.35199,-0.56300,0.22290,0.95865,0.18368,,,0.76163,0.63233,-0.14162,-0.00471,
1.05469,0.78467,-0.56533,-0.42241,0.22584,0.96256,0.18513,,,0.76159,0.63238,-0.14163,-0.00475,
1.06250,0.99251,-0.52977,-0.42241,0.23125,0.95914,0.17690,,,0.76154,0.63243,-0.14164,-0.00479,
1.07031,1.06179,-0.35199,-0.42241,0.21749,0.95719,0.18658,,,0.76149,0.63249,-0.14164,-0.00481,
1.07813,0.85395,-0.45866,-0.38727,0.21798,0.96403,0.18416,,,0.76145,0.63254,-0.14165,-0.00485,
1.08594,0.92323,-0.63644,-0.35212,0.22339,0.95767,0.18368,,,0.76140,0.63259,-0.14166,-0.00488,
1.09375,0.78467,-0.49422,-0.42241,0.22879,0.95865,0.18077,,,0.76136,0.63264,-0.14167,-0.00492,
1.10156,0.92323,-0.31644,-0.35212,0.22191,0.95914,0.17883,,,0.76132,0.63269,-0.14167,-0.00494,
1.10938,0.92323,-0.45866,-0.45756,0.21700,0.96452,0.17980,,,0.76128,0.63274,-0.14168,-0.00498,
1.11719,0.88859,-0.63644,-0.45756,0.22682,0.96110,0.17786,,,0.76123,0.63279,-0.14169,-0.00502,
1.12500,0.95787,-0.63644,-0.49271,0.22977,0.96550,0.18416,,,0.76119,0.63284,-0.14170,-0.00506,
1.13281,0.99251,-0.45866,-0.63329,0.22633,0.96012,0.18319,,,0.76114,0.63290,-0.14170,-0.00511,
1.14063,0.85395,-0.56533,-0.52785,0.22044,0.96452,0.18513,,,0.76110,0.63295,-0.14171,-0.00515,
1.14844,0.85395,-0.42311,-0.77388,0.22584,0.96110,0.18706,,,0.76105,0.63300,-0.14170,-0.00520,
1.15625,0.88859,-0.63644,-0.73873,0.23026,0.96061,0.17932,,,0.76101,0.63306,-0.14170,-0.00526,
1.16406,0.85395,-0.45866,-0.66844,0.22191,0.95914,0.18706,,,0.76097,0.63311,-0.14169,-0.00530,
1.17188,0.95787,-0.13866,-0.80902,0.22044,0.96012,0.18513,,,0.76092,0.63316,-0.14166,-0.00534,
1.17969,0.92323,-0.20977,-0.84417,0.23075,0.96794,0.18222,,,0.76088,0.63322,-0.14164,-0.00539,
1.18750,0.88859,-0.31644,-0.73873,0.22879,0.96501,0.18513,,,0.76084,0.63327,-0.14162,-0.00543,
1.19531,0.99251,-0.13866,-0.73873,0.23223,0.96012,0.18319,,,0.76080,0.63333,-0.14160,-0.00546,
1.20313,1.06179,0.11023,-0.80902,0.21847,0.96501,0.18077,,,0.76075,0.63339,-0.14156,-0.00549,
1.21094,1.02715,0.07468,-1.01990,0.22437,0.96452,0.18513,,,0.76071,0.63346,-0.14151,-0.00553,
1.21875,0.95787,-0.28088,-0.73873,0.22633,0.96403,0.18610,,,0.76066,0.63351,-0.14150,-0.00557,
1.22656,0.95787,-0.20977,-0.77388,0.22240,0.96110,0.17786,,,0.76062,0.63357,-0.14147,-0.00561,
1.23438,0.99251,-0.06755,-0.77388,0.22388,0.95963,0.18464,,,0.76058,0.63363,-0.14144,-0.00565,
1.24219,0.88859,-0.10310,-0.77388,0.22290,0.96599,0.18658,,,0.76054,0.63368,-0.14142,-0.00568,
1.25000,0.81931,-0.35199,-0.80902,0.22240,0.96207,0.18174,,,0.76050,0.63373,-0.14140,-0.00573,
1.25781,0.88859,-0.38755,-0.56300,0.23075,0.96110,0.17448,,,0.76045,0.63379,-0.14140,-0.00577,
1.26563,1.02715,0.39468,-0.59815,0.21553,0.96354,0.18222,,,0.76041,0.63384,-0.14135,-0.00577,
1.27344,0.95787,0.11023,-0.59815,0.21602,0.96403,0.17883,,,0.76037,0.63390,-0.14132,-0.00579,
1.28125,0.75003,-0.38755,-0.38727,0.22093,0.96599,0.17690,,,0.76034,0.63394,-0.14132,-0.00582,
1.28906,0.78467,-0.67200,-0.31697,0.22732,0.95816,0.17786,,,0.76030,0.63399,-0.14134,-0.00586,
1.29688,0.85395,-0.38755,-0.38727,0.22240,0.95865,0.18174,,,0.76026,0.63403,-0.14135,-0.00589,
1.30469,0.85395,-0.45866,-0.52785,0.21553,0.96599,0.18319,,,0.76021,0.63408,-0.14135,-0.00592,
1.31250,0.88859,-0.49422,-0.38727,0.22290,0.96403,0.18319,,,0.76017,0.63413,-0.14136,-0.00596,
1.32031,0.95787,-0.81422,-0.45756,0.23321,0.96110,0.17738,,,0.76012,0.63419,-0.14138,-0.00601,
1.32813,1.02715,-0.38755,-0.28183,0.22830,0.95670,0.18319,,,0.76007,0.63424,-0.14139,-0.00603,
1.33594,1.06179,-0.17421,-0.42241,0.22290,0.95816,0.18029,,,0.76002,0.63430,-0.14138,-0.00605,
1.34375,0.95787,-0.49422,-0.38727,0.21651,0.95865,0.18610,,,0.75998,0.63435,-0.14139,-0.00608,
1.35156,0.92323,-0.70755,-0.38727,0.23223,0.96012,0.18077,,,0.75993,0.63441,-0.14141,-0.00612,
1.35938,0.95787,-0.38755,-0.24668,0.22339,0.95963,0.17835,,,0.75989,0.63446,-0.14142,-0.00614,
1.36719,0.99251,-0.35199,-0.52785,0.21995,0.95963,0.18174,,,0.75984,0.63451,-0.14142,-0.00617,
1.37500,0.92323,-0.74311,-0.35212,0.21847,0.96647,0.18029,,,0.75979,0.63456,-0.14144,-0.00622,
1.38281,0.88859,-0.67200,-0.45756,0.23272,0.96696,0.18368,,,0.75975,0.63461,-0.14145,-0.00626,
1.39063,1.13107,-0.24533,-0.31697,0.22977,0.96256,0.17690,,,0.75970,0.63468,-0.14145,-0.00628,
1.39844,1.16571,-0.20977,-0.28183,0.22830,0.95963,0.18174,,,0.75964,0.63474,-0.14145,-0.00629,
1.40625,0.99251,-0.45866,-0.56300,0.22290,0.96745,0.18271,,,0.75960,0.63480,-0.14145,-0.00633,
1.41406,0.92323,-0.77866,-0.24668,0.23075,0.96061,0.17738,,,0.75955,0.63485,-0.14148,-0.00637,
1.42188,0.95787,-0.74311,-0.38727,0.22584,0.95767,0.18125,,,0.75950,0.63490,-0.14151,-0.00641,
1.42969,1.02715,-0.13866,-0.56300,0.21946,0.95816,0.18706,,,0.75945,0.63496,-0.14149,-0.00643,
1.43750,0.95787,-0.24533,-0.52785,0.22486,0.96403,0.18174,,,0.75941,0.63501,-0.14148,-0.00646,
1.44531,0.78467,-0.42311,-0.56300,0.22977,0.95963,0.17786,,,0.75937,0.63506,-0.14148,-0.00650,
1.45313,0.95787,-0.20977,-0.56300,0.22633,0.95621,0.18077,,,0.75933,0.63511,-0.14146,-0.00653,
1.46094,1.09643,-0.03199,-0.52785,0.21749,0.96403,0.18368,,,0.75928,0.63517,-0.14144,-0.00655,
1.46875,1.02715,-0.17421,-0.59815,0.22290,0.96647,0.18416,,,0.75923,0.63523,-0.14143,-0.00658,
1.47656,0.85395,-0.56533,-0.52785,0.23174,0.96012,0.17544,,,0.75919,0.63528,-0.14143,-0.00662,
1.48438,0.95787,-0.60088,-0.45756,0.23567,0.96256,0.17932,,,0.75914,0.63534,-0.14144,-0.00666,
1.49219,1.13107,-0.10310,-0.45756,0.22142,0.96305,0.18513,,,0.75909,0.63540,-0.14143,-0.00668,
1.50000,0.88859,-0.24533,-0.59815,0.22535,0.96696,0.18464,,,0.75905,0.63545,-0.14142,-0.00671,
1.50781,0.92323,-0.49422,-0.49271,0.22633,0.96452,0.18464,,,0.75901,0.63550,-0.14142,-0.00675,
1.51563,0.78467,-0.52977,-0.45756,0.22879,0.96403,0.17593,,,0.75897,0.63555,-0.14143,-0.00679,
1.52344,0.85395,-0.13866,-0.63329,0.22044,0.96501,0.18077,,,0.75893,0.63560,-0.14141,-0.00682,
1.53125,1.02715,-0.17421,-0.66844,0.22290,0.95914,0.18706,,,0.75888,0.63566,-0.14139,-0.00685,
1.53906,0.75003,-0.60088,-0.42241,0.23518,0.96305,0.17399,,,0.75884,0.63570,-0.14140,-0.00689,
1.54688,0.81931,-0.45866,-0.52785,0.23419,0.96110,0.18029,,,0.75880,0.63575,-0.14141,-0.00693,
1.55469,0.99251,0.11023,-0.52785,0.21897,0.96452,0.18125,,,0.75876,0.63580,-0.14138,-0.00695,
1.56250,0.99251,-0.06755,-0.66844,0.22093,0.96794,0.18174,,,0.75872,0.63586,-0.14135,-0.00697,
1.57031,0.85395,-0.38755,-0.42241,0.22290,0.96061,0.18368,,,0.75868,0.63591,-0.14135,-0.00700,
1.57813,0.85395,-0.56533,-0.66844,0.23272,0.96305,0.18513,,,0.75863,0.63596,-0.14136,-0.00705,
1.58594,1.06179,0.07468,-0.52785,0.21602,0.95572,0.18997,,,0.75859,0.63602,-0.14133,-0.00707,
1.59375,1.02715,-0.20977,-0.59815,0.21405,0.96501,0.18513,,,0.75854,0.63608,-0.14131,-0.00710,
1.60156,0.88859,-0.60088,-0.70358,0.22732,0.96403,0.18319,,,0.75850,0.63613,-0.14132,-0.00715,
1.60938,0.88859,-0.31644,-0.49271,0.23763,0.96012,0.18174,,,0.75845,0.63618,-0.14131,-0.00718,
1.61719,0.99251,-0.06755,-0.63329,0.22142,0.96207,0.17883,,,0.75841,0.63624,-0.14129,-0.00721,
1.62500,0.92323,-0.17421,-0.73873,0.22290,0.96550,0.18319,,,0.75837,0.63629,-0.14126,-0.00725,
1.63281,0.92323,-0.35199,-0.56300,0.22732,0.96892,0.18174,,,0.75832,0.63635,-0.14126,-0.00728,
1.64063,0.88859,-0.74311,-0.56300,0.23419,0.96159,0.18222,,,0.75828,0.63640,-0.14127,-0.00733,
1.64844,0.95787,-0.06755,-0.56300,0.22240,0.96061,0.18077,,,0.75824,0.63645,-0.14125,-0.00736,
1.65625,0.88859,-0.06755,-0.59815,0.22044,0.96501,0.18125,,,0.75820,0.63650,-0.14123,-0.00738,
1.66406,0.75003,-0.63644,-0.59815,0.22339,0.96794,0.17980,,,0.75816,0.63655,-0.14124,-0.00743,
1.67188,0.85395,-0.52977,-0.38727,0.22535,0.96305,0.18271,,,0.75811,0.63660,-0.14125,-0.00747,
1.67969,0.78467,-0.42311,-0.42241,0.22584,0.95767,0.17641,,,0.75808,0.63664,-0.14125,-0.00750,
1.68750,0.88859,0.03912,-0.49271,0.21111,0.95963,0.18271,,,0.75804,0.63669,-0.14123,-0.00752,
1.69531,0.92323,-0.28088,-0.70358,0.22977,0.96794,0.18222,,,0.75800,0.63675,-0.14121,-0.00756,
1.70313,0.75003,-0.74311,-0.35212,0.23567,0.96354,0.17932,,,0.75796,0.63679,-0.14124,-0.00760,
1.71094,0.92323,-0.28088,-0.42241,0.22781,0.95767,0.17980,,,0.75791,0.63684,-0.14124,-0.00762,
1.71875,1.33891,-0.06755,-0.56300,0.22290,0.96647,0.18222,,,0.75785,0.63691,-0.14121,-0.00764,
1.72656,1.02715,-0.10310,-0.56300,0.22044,0.96941,0.18658,,,0.75781,0.63697,-0.14120,-0.00767,
1.73438,0.78467,-0.70755,-0.31697,0.23223,0.96354,0.17883,,,0.75777,0.63702,-0.14122,-0.00771,
1.74219,0.85395,-0.74311,-0.31697,0.23567,0.96061,0.17738,,,0.75772,0.63706,-0.14124,-0.00775,
1.75000,0.95787,-0.42311,-0.52785,0.22682,0.96354,0.18368,,,0.75768,0.63712,-0.14124,-0.00778,
1.75781,0.81931,-0.63644,-0.59815,0.21798,0.96892,0.18125,,,0.75763,0.63716,-0.14125,-0.00783,
1.76563,0.68075,-0.81422,-0.49271,0.22928,0.96452,0.18077,,,0.75760,0.63720,-0.14127,-0.00789,
1.77344,0.81931,-0.63644,-0.56300,0.23223,0.95914,0.18029,,,0.75755,0.63725,-0.14128,-0.00794,
1.78125,0.92323,-0.28088,-0.56300,0.22142,0.95767,0.18755,,,0.75751,0.63730,-0.14127,-0.00797,
1.78906,0.95787,-0.38755,-0.70358,0.22486,0.96990,0.17835,,,0.75747,0.63736,-0.14126,-0.00801,
1.79688,0.99251,-0.45866,-0.49271,0.23321,0.96354,0.17544,,,0.75742,0.63742,-0.14126,-0.00805,
1.80469,1.06179,-0.13866,-0.49271,0.23174,0.96305,0.17690,,,0.75737,0.63748,-0.14125,-0.00807,
1.81250,1.06179,-0.03199,-0.45756,0.22437,0.95767,0.18174,,,0.75732,0.63753,-0.14123,-0.00809,
1.82031,0.88859,-0.28088,-0.70358,0.22732,0.97039,0.17835,,,0.75728,0.63759,-0.14122,-0.00813,
1.82813,0.95787,-0.60088,-0.49271,0.23321,0.96501,0.17496,,,0.75723,0.63764,-0.14123,-0.00817,
1.83594,0.92323,-0.38755,-0.59815,0.23272,0.96305,0.18077,,,0.75719,0.63769,-0.14122,-0.00821,
1.84375,1.09643,0.00356,-0.63329,0.21847,0.96354,0.18755,,,0.75714,0.63776,-0.14120,-0.00823,
1.85156,0.92323,-0.28088,-0.70358,0.21749,0.96452,0.17835,,,0.75710,0.63781,-0.14118,-0.00827,
1.85938,0.75003,-0.70755,-0.52785,0.22781,0.96256,0.17738,,,0.75706,0.63785,-0.14119,-0.00832,
1.86719,0.71539,-0.67200,-0.52785,0.23665,0.95621,0.17883,,,0.75702,0.63790,-0.14121,-0.00837,
1.87500,0.81931,-0.10310,-0.52785,0.22535,0.95132,0.18174,,,0.75698,0.63794,-0.14119,-0.00839,
1.88281,0.81931,-0.20977,-0.70358,0.21749,0.96305,0.17448,,,0.75695,0.63799,-0.14117,-0.00843,
1.89063,0.88859,-0.38755,-0.70358,0.22339,0.96159,0.18464,,,0.75690,0.63804,-0.14116,-0.00847,
1.89844,0.75003,-0.52977,-0.59815,0.23616,0.96452,0.18368,,,0.75686,0.63809,-0.14116,-0.00852,
1.90625,0.92323,-0.35199,-0.59815,0.22486,0.96501,0.18949,,,0.75682,0.63814,-0.14115,-0.00856,
1.91406,0.92323,-0.31644,-0.56300,0.22044,0.96012,0.18561,,,0.75678,0.63819,-0.14115,-0.00859,
1.92188,0.85395,-0.31644,-0.52785,0.22535,0.96550,0.18222,,,0.75674,0.63824,-0.14114,-0.00862,
1.92969,0.81931,-0.56533,-0.49271,0.23223,0.96550,0.18319,,,0.75670,0.63829,-0.14115,-0.00867,
1.93750,0.78467,-0.35199,-0.42241,0.22781,0.96159,0.17786,,,0.75666,0.63833,-0.14115,-0.00870,
1.94531,0.81931,-0.56533,-0.52785,0.22290,0.96403,0.18658,,,0.75662,0.63838,-0.14116,-0.00874,
1.95313,0.75003,-0.49422,-0.52785,0.22879,0.96354,0.17883,,,0.75658,0.63843,-0.14116,-0.00878,
1.96094,0.75003,-0.52977,-0.42241,0.22928,0.96599,0.17593,,,0.75654,0.63847,-0.14117,-0.00882,
1.96875,0.75003,-0.31644,-0.52785,0.23026,0.96061,0.17351,,,0.75650,0.63851,-0.14116,-0.00885,
1.97656,0.81931,-0.38755,-0.56300,0.22584,0.96501,0.18561,,,0.75646,0.63856,-0.14116,-0.00889,
1.98438,0.71539,-0.60088,-0.87932,0.22879,0.96207,0.18029,,,0.75643,0.63860,-0.14115,-0.00896,
1.99219,0.61147,-0.56533,-0.66844,0.23075,0.96354,0.18271,,,0.75639,0.63864,-0.14115,-0.00901,
2.00000,0.61147,-0.31644,-0.84417,0.22928,0.95572,0.18125,,,0.75636,0.63868,-0.14113,-0.00906,
2.00781,0.85395,-0.17421,-0.91446,0.22093,0.95865,0.18658,1021.984,25.4,0.75632,0.63873,-0.14110,-0.00911,
2.01563,0.68075,-0.42311,-0.87932,0.22093,0.96501,0.17786,,,0.75629,0.63878,-0.14108,-0.00916,
2.02344,0.57683,-0.60088,-0.84417,0.22535,0.96110,0.17932,,,0.75626,0.63881,-0.14108,-0.00923,
2.03125,0.68075,0.03912,-0.80902,0.23272,0.96061,0.17883,,,0.75623,0.63886,-0.14104,-0.00926,
2.03906,0.85395,0.28801,-0.94961,0.22290,0.95963,0.18610,,,0.75619,0.63891,-0.14099,-0.00929,
2.04688,0.81931,0.03912,-0.98476,0.22142,0.96892,0.17593,,,0.75616,0.63896,-0.14094,-0.00933,
2.05469,0.81931,-0.35199,-0.80902,0.23125,0.96159,0.17641,,,0.75612,0.63901,-0.14093,-0.00938,
2.06250,0.78467,-0.38755,-0.80902,0.23518,0.95719,0.18368,,,0.75608,0.63906,-0.14091,-0.00943,
2.07031,0.75003,-0.10310,-0.91446,0.21749,0.96305,0.18464,,,0.75605,0.63911,-0.14088,-0.00948,
2.07813,0.61147,-0.42311,-0.94961,0.22290,0.96354,0.18222,,,0.75601,0.63915,-0.14086,-0.00954,
2.08594,0.61147,-0.60088,-0.98476,0.23174,0.96843,0.17980,,,0.75598,0.63919,-0.14085,-0.00961,
2.09375,0.71539,-0.45866,-0.84417,0.23075,0.95816,0.17932,,,0.75595,0.63923,-0.14083,-0.00967,
2.10156,0.75003,-0.06755,-0.98476,0.22584,0.95963,0.17980,,,0.75591,0.63928,-0.14079,-0.00971,
2.10938,0.78467,-0.38755,-1.01990,0.22682,0.96354,0.18513,,,0.75587,0.63933,-0.14077,-0.00977,
2.11719,0.75003,-0.17421,-0.91446,0.23125,0.95914,0.17690,,,0.75584,0.63938,-0.14074,-0.00982,
2.12500,0.78467,0.00356,-1.05505,0.22682,0.96159,0.18077,,,0.75580,0.63943,-0.14069,-0.00987,
2.13281,0.88859,0.11023,-1.12534,0.22437,0.96354,0.18416,,,0.75576,0.63949,-0.14064,-0.00991,
2.14063,0.85395,-0.24533,-1.01990,0.21602,0.96696,0.18125,,,0.75572,0.63954,-0.14061,-0.00997,
2.14844,0.85395,-0.28088,-1.01990,0.22879,0.97136,0.18610,,,0.75568,0.63959,-0.14058,-0.01002,
2.15625,0.71539,-0.31644,-0.80902,0.23272,0.96354,0.18077,,,0.75565,0.63964,-0.14056,-0.01007,
2.16406,0.71539,-0.20977,-0.77388,0.22290,0.96256,0.17738,,,0.75562,0.63968,-0.14054,-0.01011,
2.17188,0.92323,-0.38755,-0.70358,0.22486,0.96012,0.18174,,,0.75557,0.63974,-0.14053,-0.01016,
2.17969,0.78467,-0.38755,-0.66844,0.22732,0.95963,0.17835,,,0.75553,0.63978,-0.14052,-0.01020,
2.18750,0.57683,-0.45866,-0.56300,0.22928,0.95816,0.17690,,,0.75550,0.63982,-0.14052,-0.01025,
2.19531,0.68075,-0.20977,-0.63329,0.22437,0.96256,0.18077,,,0.75547,0.63986,-0.14050,-0.01028,
2.20313,0.78467,-0.24533,-0.63329,0.22633,0.96012,0.17980,,,0.75543,0.63990,-0.14049,-0.01032,
2.21094,0.68075,-0.31644,-0.66844,0.22879,0.96452,0.18271,,,0.75540,0.63995,-0.14048,-0.01036,
2.21875,0.61147,-0.67200,-0.66844,0.22388,0.95963,0.18416,,,0.75537,0.63998,-0.14048,-0.01042,
2.22656,0.64611,-0.67200,-0.59815,0.22732,0.95816,0.18029,,,0.75533,0.64002,-0.14049,-0.01047,
2.23438,0.68075,-0.60088,-0.59815,0.22781,0.95474,0.18174,,,0.75530,0.64006,-0.14050,-0.01052,
2.24219,0.68075,-0.35199,-0.63329,0.22437,0.96061,0.18464,,,0.75526,0.64010,-0.14049,-0.01056,
2.25000,0.78467,-0.42311,-0.63329,0.22437,0.96501,0.17883,,,0.75522,0.64015,-0.14048,-0.01061,
2.25781,0.64611,-0.60088,-0.52785,0.23125,0.96061,0.18125,,,0.75519,0.64019,-0.14049,-0.01065,
2.26563,0.81931,-0.52977,-0.49271,0.22732,0.96354,0.18900,,,0.75515,0.64023,-0.14050,-0.01069,
2.27344,0.78467,-0.42311,-0.66844,0.22240,0.96745,0.17690,,,0.75511,0.64028,-0.14049,-0.01074,
2.28125,0.71539,-0.60088,-0.66844,0.22633,0.96207,0.17883,,,0.75507,0.64032,-0.14049,-0.01079,
2.28906,0.64611,-0.60088,-0.42241,0.22830,0.96061,0.17641,,,0.75504,0.64036,-0.14051,-0.01084,
2.29688,0.92323,-0.35199,-0.52785,0.22535,0.95963,0.18368,,,0.75499,0.64041,-0.14050,-0.01087,
2.30469,0.75003,-0.49422,-0.63329,0.21946,0.96403,0.18174,,,0.75496,0.64046,-0.14050,-0.01092,
2.31250,0.85395,-0.42311,-0.66844,0.22781,0.95816,0.17738,,,0.75491,0.64051,-0.14049,-0.01096,
2.32031,0.78467,-0.60088,-0.52785,0.23272,0.96305,0.18077,,,0.75487,0.64055,-0.14050,-0.01101,
2.32813,0.78467,-0.31644,-0.70358,0.22732,0.96061,0.18077,,,0.75484,0.64060,-0.14049,-0.01105,
2.33594,0.78467,-0.31644,-0.59815,0.21700,0.95279,0.18997,,,0.75480,0.64064,-0.14048,-0.01109,
2.34375,0.78467,-0.45866,-0.70358,0.22388,0.96159,0.18416,,,0.75476,0.64069,-0.14047,-0.01113,
2.35156,0.68075,-0.84978,-0.52785,0.22781,0.96061,0.18029,,,0.75472,0.64073,-0.14049,-0.01119,
2.35938,0.78467,-0.45866,-0.59815,0.23321,0.96305,0.18222,,,0.75468,0.64078,-0.14049,-0.01124,
2.36719,0.81931,-0.31644,-0.84417,0.22535,0.96501,0.18271,,,0.75464,0.64083,-0.14047,-0.01129,
2.37500,0.75003,-0.35199,-0.87932,0.22437,0.96599,0.18416,,,0.75460,0.64087,-0.14045,-0.01134,
2.38281,0.78467,-0.38755,-0.80902,0.22781,0.96696,0.18222,,,0.75457,0.64092,-0.14044,-0.01139,
2.39063,0.75003,-0.52977,-0.73873,0.22584,0.96061,0.17786,,,0.75453,0.64097,-0.14043,-0.01144,
2.39844,0.92323,-0.28088,-0.80902,0.22339,0.96207,0.18174,,,0.75448,0.64102,-0.14041,-0.01149,
2.40625,0.88859,-0.10310,-0.98476,0.23125,0.96550,0.18222,,,0.75444,0.64108,-0.14038,-0.01154,
2.41406,0.75003,-0.20977,-0.87932,0.23075,0.96843,0.18222,,,0.75441,0.64112,-0.14035,-0.01158,
2.42188,0.68075,-0.24533,-0.84417,0.23026,0.96207,0.17883,,,0.75437,0.64117,-0.14032,-0.01163,
2.42969,0.85395,0.00356,-0.84417,0.22191,0.95865,0.18077,,,0.75434,0.64122,-0.14029,-0.01167,
2.43750,0.88859,-0.31644,-0.98476,0.21798,0.96110,0.18561,,,0.75429,0.64127,-0.14026,-0.01172,
2.44531,0.88859,-0.42311,-0.70358,0.22781,0.96403,0.18464,,,0.75425,0.64132,-0.14025,-0.01177,
2.45313,0.75003,-0.24533,-0.77388,0.22535,0.96061,0.17738,,,0.75421,0.64137,-0.14023,-0.01181,
2.46094,0.81931,-0.06755,-0.84417,0.21504,0.95767,0.18755,,,0.75418,0.64142,-0.14020,-0.01185,
2.46875,0.75003,-0.10310,-0.98476,0.21995,0.96403,0.18319,,,0.75414,0.64147,-0.14016,-0.01190,
2.47656,0.71539,-0.67200,-0.77388,0.23075,0.96403,0.18222,,,0.75410,0.64151,-0.14016,-0.01196,
2.48438,0.81931,-0.49422,-0.73873,0.22977,0.96354,0.18852,,,0.75406,0.64156,-0.14016,-0.01201,
2.49219,0.85395,-0.06755,-0.77388,0.22339,0.96207,0.17883,,,0.75402,0.64161,-0.14013,-0.01205,
2.50000,0.85395,-0.17421,-0.94961,0.21847,0.96599,0.18416,,,0.75399,0.64166,-0.14010,-0.01209,
2.50781,0.68075,-0.63644,-0.84417,0.22486,0.96696,0.18077,,,0.75395,0.64171,-0.14009,-0.01216,
2.51563,0.71539,-0.52977,-0.63329,0.23026,0.95865,0.17690,,,0.75391,0.64175,-0.14009,-0.01221,
2.52344,1.09643,-0.10310,-0.66844,0.22486,0.96354,0.18222,,,0.75386,0.64181,-0.14007,-0.01224,
2.53125,0.92323,-0.03199,-0.84417,0.21749,0.96647,0.18368,,,0.75382,0.64187,-0.14004,-0.01227,
2.53906,0.61147,-0.56533,-0.70358,0.22486,0.96647,0.17738,,,0.75379,0.64191,-0.14003,-0.01233,
2.54688,0.61147,-0.67200,-0.63329,0.23026,0.96256,0.17302,,,0.75375,0.64194,-0.14004,-0.01238,
2.55469,0.78467,-0.20977,-0.73873,0.22781,0.95523,0.18174,,,0.75372,0.64199,-0.14002,-0.01242,
2.56250,0.78467,-0.31644,-0.77388,0.21897,0.96599,0.18706,,,0.75368,0.64204,-0.14000,-0.01247,
2.57031,0.75003,-0.42311,-0.84417,0.22044,0.96843,0.18610,,,0.75364,0.64208,-0.13999,-0.01252,
2.57813,0.68075,-0.38755,-0.73873,0.23223,0.96159,0.18271,,,0.75361,0.64212,-0.13998,-0.01257,
2.58594,0.81931,-0.10310,-0.66844,0.22093,0.96110,0.18513,,,0.75357,0.64217,-0.13995,-0.01260,
2.59375,0.78467,-0.13866,-0.73873,0.21847,0.96550,0.18755,,,0.75353,0.64222,-0.13993,-0.01264,
2.60156,0.75003,-0.52977,-0.77388,0.22682,0.96354,0.18561,,,0.75350,0.64227,-0.13992,-0.01270,
2.60938,0.68075,-0.60088,-0.70358,0.23861,0.96207,0.18610,,,0.75346,0.64231,-0.13992,-0.01275,
2.61719,0.78467,-0.52977,-0.70358,0.22240,0.95914,0.18029,,,0.75342,0.64235,-0.13992,-0.01280,
2.62500,0.64611,0.00356,-0.77388,0.21700,0.96599,0.18174,,,0.75339,0.64239,-0.13989,-0.01284,
2.63281,0.71539,-0.63644,-0.77388,0.22732,0.95963,0.18077,,,0.75335,0.64244,-0.13989,-0.01290,
2.64063,0.71539,-0.70755,-0.77388,0.23125,0.96159,0.17932,,,0.75331,0.64248,-0.13989,-0.01296,
2.64844,0.57683,-0.52977,-0.73873,0.22732,0.96061,0.18561,,,0.75328,0.64252,-0.13989,-0.01302,
2.65625,0.64611,-0.03199,-0.80902,0.21847,0.96403,0.18464,,,0.75325,0.64256,-0.13985,-0.01305,
2.66406,0.68075,-0.35199,-0.94961,0.22240,0.96159,0.18319,,,0.75322,0.64260,-0.13983,-0.01311,
2.67188,0.64611,-0.67200,-0.73873,0.22830,0.95865,0.17932,,,0.75318,0.64264,-0.13983,-0.01317,
2.67969,0.61147,-0.49422,-0.91446,0.22682,0.95963,0.17641,,,0.75315,0.64268,-0.13982,-0.01324,
2.68750,0.71539,-0.17421,-0.87932,0.22191,0.96207,0.18319,,,0.75312,0.64273,-0.13979,-0.01328,
2.69531,0.47292,-0.42311,-1.01990,0.22191,0.96256,0.18513,,,0.75309,0.64276,-0.13977,-0.01335,
2.70313,0.57683,-0.56533,-0.94961,0.22830,0.96647,0.18125,,,0.75306,0.64280,-0.13975,-0.01342,
2.71094,0.68075,-0.20977,-0.98476,0.22437,0.96159,0.18803,,,0.75303,0.64284,-0.13972,-0.01347,
2.71875,0.75003,-0.06755,-1.01990,0.22142,0.95816,0.18706,,,0.75299,0.64289,-0.13968,-0.01352,
2.72656,0.71539,-0.28088,-1.05505,0.22388,0.96599,0.18464,,,0.75296,0.64294,-0.13965,-0.01358,
2.73438,0.61147,-0.52977,-0.80902,0.23272,0.96452,0.17883,,,0.75293,0.64298,-0.13964,-0.01364,
2.74219,0.64611,-0.42311,-0.91446,0.22290,0.96061,0.18368,,,0.75289,0.64302,-0.13963,-0.01369,
2.75000,0.88859,0.32357,-0.98476,0.22290,0.95963,0.18319,,,0.75286,0.64307,-0.13957,-0.01372,
2.75781,0.78467,-0.06755,-0.94961,0.22093,0.96354,0.18319,,,0.75282,0.64312,-0.13953,-0.01377,
2.76563,0.71539,-0.38755,-0.94961,0.22388,0.96110,0.18513,,,0.75278,0.64317,-0.13951,-0.01383,
2.77344,0.68075,-0.38755,-0.77388,0.22388,0.95816,0.18319,,,0.75275,0.64321,-0.13950,-0.01388,
2.78125,0.64611,-0.13866,-0.91446,0.21847,0.95719,0.18900,,,0.75272,0.64325,-0.13946,-0.01392,
2.78906,0.64611,-0.35199,-0.87932,0.22388,0.96305,0.18464,,,0.75269,0.64329,-0.13944,-0.01398,
2.79688,0.57683,-0.42311,-0.87932,0.22584,0.96110,0.18368,,,0.75266,0.64333,-0.13943,-0.01404,
2.80469,0.54219,-0.42311,-0.98476,0.23174,0.96452,0.18029,,,0.75263,0.64337,-0.13941,-0.01410,
2.81250,0.68075,-0.17421,-0.80902,0.22486,0.95865,0.18271,,,0.75260,0.64341,-0.13938,-0.01414,
2.82031,0.71539,-0.10310,-1.01990,0.22682,0.96452,0.18513,,,0.75256,0.64345,-0.13934,-0.01419,
2.82813,0.64611,-0.35199,-0.84417,0.22584,0.96696,0.18513,,,0.75253,0.64350,-0.13932,-0.01424,
2.83594,0.43828,-0.45866,-0.98476,0.23370,0.96354,0.17932,,,0.75250,0.64353,-0.13930,-0.01431,
2.84375,0.71539,-0.17421,-0.98476,0.22830,0.96354,0.18658,,,0.75247,0.64357,-0.13927,-0.01436,
2.85156,0.68075,-0.20977,-1.09019,0.21995,0.96403,0.18271,,,0.75244,0.64362,-0.13923,-0.01442,
2.85938,0.57683,-0.35199,-1.09019,0.22290,0.96110,0.18513,,,0.75241,0.64366,-0.13920,-0.01449,
2.86719,0.61147,-0.28088,-1.12534,0.22682,0.96159,0.17980,,,0.75238,0.64370,-0.13917,-0.01455,
2.87500,0.47292,0.00356,-0.98476,0.22093,0.95767,0.17883,,,0.75236,0.64373,-0.13913,-0.01460,
2.88281,0.50755,-0.10310,-1.16049,0.21602,0.96305,0.18755,,,0.75233,0.64377,-0.13908,-0.01466,
2.89063,0.68075,-0.35199,-1.30107,0.22535,0.96550,0.18658,,,0.75230,0.64382,-0.13904,-0.01473,
2.89844,0.57683,-0.67200,-1.19563,0.23223,0.96256,0.17786,,,0.75226,0.64386,-0.13903,-0.01482,
2.90625,0.57683,-0.28088,-1.01990,0.22290,0.95914,0.18029,,,0.75224,0.64390,-0.13900,-0.01488,
2.91406,0.68075,-0.06755,-1.05505,0.21651,0.96403,0.18416,,,0.75220,0.64394,-0.13895,-0.01493,
2.92188,0.61147,-0.52977,-1.16049,0.22142,0.96599,0.18755,,,0.75217,0.64398,-0.13893,-0.01500,
2.92969,0.43828,-0.70755,-0.87932,0.22977,0.96012,0.17835,,,0.75214,0.64401,-0.13893,-0.01508,
2.93750,0.50755,-0.38755,-0.87932,0.22437,0.96061,0.18658,,,0.75212,0.64405,-0.13891,-0.01513,
2.94531,0.64611,-0.10310,-1.12534,0.21798,0.96501,0.18416,,,0.75209,0.64409,-0.13887,-0.01519,
2.95313,0.68075,-0.20977,-1.05505,0.21651,0.96599,0.18464,,,0.75205,0.64413,-0.13883,-0.01525,
2.96094,0.57683,-0.77866,-0.94961,0.22781,0.96256,0.18271,,,0.75202,0.64417,-0.13883,-0.01532,
2.96875,0.75003,-0.35199,-0.94961,0.22928,0.95816,0.17786,,,0.75198,0.64422,-0.13881,-0.01538,
2.97656,0.88859,0.07468,-1.01990,0.21946,0.95767,0.18803,,,0.75194,0.64427,-0.13876,-0.01542,
2.98438,0.81931,-0.10310,-1.12534,0.21798,0.96550,0.18174,,,0.75191,0.64433,-0.13872,-0.01548,
2.99219,0.54219,-0.52977,-0.91446,0.23026,0.95865,0.18125,,,0.75188,0.64436,-0.13871,-0.01554,
3.00000,0.57683,-0.56533,-0.87932,0.22633,0.95474,0.18464,,,0.75184,0.64440,-0.13870,-0.01561,
3.00781,0.92323,-0.06755,-1.05505,0.21504,0.96305,0.18513,1021.986,25.4,0.75180,0.64446,-0.13865,-0.01565,
3.01563,0.71539,-0.38755,-1.01990,0.22093,0.96696,0.18464,,,0.75177,0.64450,-0.13863,-0.01572,
3.02344,0.57683,-0.67200,-0.91446,0.22781,0.96452,0.18271,,,0.75173,0.64454,-0.13863,-0.01579,
3.03125,0.75003,-0.42311,-0.84417,0.22240,0.95865,0.18658,,,0.75169,0.64459,-0.13861,-0.01584,
3.03906,0.71539,-0.10310,-0.87932,0.21946,0.95425,0.18755,,,0.75166,0.64463,-0.13858,-0.01588,
3.04688,0.64611,-0.13866,-1.01990,0.21209,0.96207,0.18174,,,0.75163,0.64467,-0.13854,-0.01594,
3.05469,0.57683,-0.81422,-0.70358,0.23223,0.96892,0.17932,,,0.75160,0.64471,-0.13855,-0.01600,
3.06250,0.54219,-0.63644,-0.70358,0.23468,0.96501,0.18319,,,0.75157,0.64474,-0.13855,-0.01606,
3.07031,0.85395,-0.06755,-0.91446,0.22290,0.96403,0.18610,,,0.75153,0.64479,-0.13852,-0.01610,
3.07813,0.68075,-0.31644,-0.91446,0.21553,0.96452,0.18416,,,0.75149,0.64484,-0.13850,-0.01616,
3.08594,0.61147,-0.52977,-0.91446,0.22240,0.96550,0.17738,,,0.75146,0.64488,-0.13848,-0.01622,
3.09375,0.68075,-0.45866,-0.63329,0.23223,0.96110,0.17835,,,0.75143,0.64492,-0.13848,-0.01627,
3.10156,0.68075,-0.06755,-0.77388,0.21749,0.95230,0.17544,,,0.75139,0.64496,-0.13845,-0.01630,
3.10938,0.64611,-0.17421,-1.01990,0.21602,0.96696,0.18464,,,0.75136,0.64500,-0.13842,-0.01636,
3.11719,0.68075,-0.56533,-0.94961,0.22437,0.96159,0.18513,,,0.75133,0.64504,-0.13840,-0.01643,
3.12500,0.61147,-0.49422,-0.94961,0.22879,0.95963,0.18368,,,0.75129,0.64508,-0.13839,-0.01649,
3.13281,0.64611,0.07468,-0.87932,0.22093,0.95816,0.18222,,,0.75127,0.64513,-0.13835,-0.01653,
3.14063,0.61147,-0.17421,-0.94961,0.21356,0.96305,0.18222,,,0.75124,0.64517,-0.13831,-0.01658,
3.14844,0.64611,-0.42311,-0.91446,0.21946,0.96256,0.18610,,,0.75120,0.64521,-0.13830,-0.01664,
3.15625,0.78467,-0.28088,-0.91446,0.22928,0.96110,0.18222,,,0.75116,0.64526,-0.13827,-0.01669,
3.16406,0.71539,-0.20977,-0.77388,0.21651,0.96256,0.18513,,,0.75113,0.64530,-0.13825,-0.01673,
3.17188,0.71539,-0.06755,-0.84417,0.21553,0.96501,0.18319,,,0.75110,0.64534,-0.13822,-0.01677,
3.17969,0.71539,-0.67200,-0.84417,0.22830,0.96647,0.18513,,,0.75106,0.64539,-0.13821,-0.01684,
3.18750,0.54219,-0.56533,-0.63329,0.22486,0.95914,0.18706,,,0.75103,0.64542,-0.13822,-0.01689,
3.19531,0.61147,-0.24533,-0.66844,0.21847,0.95621,0.17835,,,0.75100,0.64546,-0.13820,-0.01693,
3.20313,0.71539,-0.17421,-0.77388,0.21602,0.96647,0.18658,,,0.75096,0.64550,-0.13817,-0.01697,
3.21094,0.64611,-0.49422,-0.73873,0.21995,0.96647,0.18610,,,0.75093,0.64554,-0.13817,-0.01702,
3.21875,0.68075,-0.63644,-0.66844,0.22879,0.96305,0.17980,,,0.75089,0.64558,-0.13817,-0.01708,
3.22656,0.71539,-0.28088,-0.66844,0.22388,0.95621,0.18658,,,0.75086,0.64562,-0.13816,-0.01712,
3.23438,0.88859,-0.13866,-0.91446,0.21602,0.96110,0.18271,,,0.75082,0.64568,-0.13813,-0.01716,
3.24219,0.64611,-0.17421,-0.91446,0.22142,0.96696,0.18513,,,0.75079,0.64572,-0.13810,-0.01721,
3.25000,0.78467,-0.42311,-0.63329,0.23370,0.96403,0.18803,,,0.75075,0.64576,-0.13809,-0.01725,
3.25781,0.71539,-0.20977,-0.77388,0.22928,0.95670,0.18077,,,0.75071,0.64581,-0.13807,-0.01729,
3.26563,0.85395,0.32357,-0.91446,0.21356,0.96207,0.18949,,,0.75068,0.64586,-0.13801,-0.01732,
3.27344,0.92323,0.11023,-1.05505,0.21651,0.97039,0.18416,,,0.75064,0.64592,-0.13796,-0.01736,
3.28125,0.61147,-0.38755,-0.77388,0.22437,0.96647,0.18029,,,0.75061,0.64596,-0.13795,-0.01741,
3.28906,0.78467,0.00356,-0.77388,0.22339,0.95572,0.18319,,,0.75057,0.64600,-0.13791,-0.01744,
3.29688,0.88859,0.35912,-0.87932,0.21553,0.96159,0.18077,,,0.75053,0.64606,-0.13786,-0.01746,
3.30469,0.85395,-0.10310,-0.80902,0.21995,0.96354,0.18610,,,0.75049,0.64611,-0.13783,-0.01750,
3.31250,0.78467,-0.38755,-0.73873,0.22535,0.96305,0.18368,,,0.75045,0.64616,-0.13782,-0.01755,
3.32031,0.81931,-0.28088,-0.77388,0.22584,0.95914,0.18658,,,0.75041,0.64620,-0.13780,-0.01759,
3.32813,1.02715,0.18134,-0.87932,0.21258,0.96159,0.18368,,,0.75037,0.64627,-0.13775,-0.01762,
3.33594,0.75003,-0.38755,-0.87932,0.21553,0.96696,0.18755,,,0.75033,0.64631,-0.13773,-0.01768,
3.34375,0.78467,-0.52977,-0.73873,0.22093,0.95767,0.18658,,,0.75029,0.64636,-0.13773,-0.01773,
3.35156,0.88859,-0.28088,-0.63329,0.22830,0.95767,0.17932,,,0.75025,0.64641,-0.13772,-0.01777,
3.35938,0.92323,0.00356,-0.73873,0.21356,0.95816,0.18222,,,0.75021,0.64646,-0.13768,-0.01779,
3.36719,0.81931,-0.42311,-0.66844,0.21504,0.96452,0.18416,,,0.75017,0.64651,-0.13768,-0.01784,
3.37500,0.85395,-0.74311,-0.59815,0.22535,0.96207,0.18319,,,0.75012,0.64656,-0.13769,-0.01789,
3.38281,0.99251,-0.42311,-0.49271,0.23075,0.96599,0.18464,,,0.75007,0.64661,-0.13769,-0.01793,
3.39063,1.06179,-0.31644,-0.49271,0.21504,0.96256,0.18610,,,0.75002,0.64667,-0.13769,-0.01796,
3.39844,0.95787,-0.60088,-0.49271,0.21700,0.96647,0.18561,,,0.74997,0.64672,-0.13770,-0.01800,
3.40625,0.88859,-0.92089,-0.45756,0.22142,0.96892,0.18174,,,0.74993,0.64677,-0.13773,-0.01806,
3.41406,0.99251,-0.67200,-0.38727,0.23419,0.96452,0.18416,,,0.74988,0.64683,-0.13774,-0.01810,
3.42188,1.06179,-0.42311,-0.45756,0.22388,0.96012,0.18174,,,0.74982,0.64688,-0.13775,-0.01813,
3.42969,1.13107,-0.63644,-0.42241,0.21307,0.96305,0.18561,,,0.74977,0.64695,-0.13776,-0.01817,
3.43750,0.88859,-1.09867,-0.31697,0.22781,0.96501,0.18561,,,0.74972,0.64699,-0.13781,-0.01822,
3.44531,0.88859,-1.09867,-0.28183,0.22928,0.95719,0.18271,,,0.74967,0.64704,-0.13785,-0.01828,
3.45313,0.99251,-0.56533,-0.31697,0.22486,0.95572,0.17786,,,0.74962,0.64709,-0.13787,-0.01831,
3.46094,0.92323,-0.49422,-0.49271,0.21356,0.96647,0.18997,,,0.74957,0.64714,-0.13787,-0.01835,
3.46875,0.85395,-0.77866,-0.45756,0.21847,0.95767,0.18997,,,0.74953,0.64719,-0.13789,-0.01840,
3.47656,0.78467,-1.20533,-0.35212,0.22584,0.96012,0.17980,,,0.74948,0.64723,-0.13794,-0.01846,
3.48438,0.81931,-0.70755,-0.35212,0.22093,0.96159,0.18368,,,0.74944,0.64728,-0.13796,-0.01850,
3.49219,0.88859,-0.45866,-0.49271,0.21749,0.96256,0.18561,,,0.74939,0.64733,-0.13796,-0.01854,
3.50000,0.88859,-0.63644,-0.59815,0.22339,0.95914,0.18706,,,0.74935,0.64738,-0.13797,-0.01859,
3.50781,0.81931,-0.95644,-0.52785,0.23468,0.96403,0.18271,,,0.74930,0.64742,-0.13800,-0.01865,
3.51563,0.88859,-0.52977,-0.49271,0.22486,0.96159,0.18174,,,0.74926,0.64747,-0.13800,-0.01869,
3.52344,0.92323,-0.28088,-0.63329,0.21651,0.96550,0.17883,,,0.74921,0.64752,-0.13799,-0.01873,
3.53125,0.88859,-0.28088,-0.66844,0.21455,0.96794,0.18319,,,0.74917,0.64757,-0.13798,-0.01877,
3.53906,0.78467,-0.49422,-0.52785,0.22781,0.96061,0.18174,,,0.74913,0.64762,-0.13798,-0.01881,
3.54688,0.71539,-0.42311,-0.59815,0.23223,0.96061,0.17932,,,0.74909,0.64766,-0.13798,-0.01885,
3.55469,0.88859,-0.10310,-0.63329,0.21847,0.95767,0.18997,,,0.74905,0.64771,-0.13796,-0.01888,
3.56250,0.81931,-0.17421,-0.80902,0.22535,0.96452,0.18610,,,0.74901,0.64776,-0.13793,-0.01892,
3.57031,0.68075,-0.31644,-0.73873,0.22682,0.96452,0.18319,,,0.74898,0.64780,-0.13791,-0.01897,
3.57813,0.75003,-0.31644,-0.77388,0.23125,0.96354,0.18368,,,0.74894,0.64785,-0.13790,-0.01901,
3.58594,1.02715,-0.10310,-0.73873,0.21700,0.95523,0.19094,,,0.74890,0.64791,-0.13787,-0.01904,
3.59375,0.75003,-0.06755,-0.73873,0.22240,0.96696,0.17932,,,0.74886,0.64795,-0.13784,-0.01908,
3.60156,0.75003,-0.20977,-0.70358,0.23026,0.97039,0.18271,,,0.74883,0.64800,-0.13782,-0.01912,
3.60938,0.81931,-0.06755,-0.73873,0.22584,0.95621,0.18513,,,0.74879,0.64804,-0.13780,-0.01915,
3.61719,0.85395,0.00356,-0.70358,0.22339,0.95816,0.17690,,,0.74875,0.64809,-0.13777,-0.01918,
3.62500,0.88859,-0.10310,-0.84417,0.21847,0.96892,0.18222,,,0.74871,0.64815,-0.13773,-0.01922,
3.63281,0.68075,-0.38755,-0.73873,0.21995,0.96354,0.18077,,,0.74867,0.64819,-0.13772,-0.01927,
3.64063,0.81931,-0.38755,-0.77388,0.22977,0.96452,0.18513,,,0.74863,0.64824,-0.13771,-0.01931,
3.64844,0.92323,0.00356,-0.80902,0.21798,0.96207,0.18416,,,0.74859,0.64829,-0.13767,-0.01935,
3.65625,0.95787,-0.17421,-0.84417,0.21405,0.96501,0.18658,,,0.74855,0.64835,-0.13765,-0.01939,
3.66406,0.78467,-0.56533,-0.66844,0.22093,0.95963,0.18949,,,0.74851,0.64839,-0.13765,-0.01944,
3.67188,0.92323,-0.31644,-0.49271,0.23468,0.96256,0.18319,,,0.74846,0.64845,-0.13764,-0.01947,
3.67969,0.95787,-0.10310,-0.49271,0.23026,0.96110,0.18077,,,0.74842,0.64850,-0.13763,-0.01949,
3.68750,0.92323,0.18134,-0.77388,0.21651,0.96843,0.18319,,,0.74838,0.64855,-0.13759,-0.01951,
3.69531,0.81931,-0.60088,-0.52785,0.22142,0.96354,0.18658,,,0.74833,0.64860,-0.13759,-0.01956,
3.70313,0.78467,-0.81422,-0.52785,0.22388,0.95719,0.18706,,,0.74829,0.64864,-0.13761,-0.01962,
3.71094,0.78467,-0.45866,-0.49271,0.22339,0.95523,0.18319,,,0.74825,0.64869,-0.13762,-0.01965,
3.71875,0.85395,-0.17421,-0.56300,0.21504,0.96110,0.17980,,,0.74821,0.64874,-0.13760,-0.01968,
3.72656,0.95787,-0.13866,-0.59815,0.21798,0.96305,0.18029,,,0.74817,0.64879,-0.13758,-0.01971,
3.73438,0.88859,-0.38755,-0.49271,0.23026,0.96403,0.18513,,,0.74812,0.64884,-0.13758,-0.01974,
3.74219,0.85395,-0.38755,-0.52785,0.22339,0.96012,0.18513,,,0.74808,0.64889,-0.13758,-0.01978,
3.75000,0.95787,-0.20977,-0.73873,0.21897,0.96159,0.18900,,,0.74804,0.64894,-0.13756,-0.01982,
3.75781,0.92323,-0.49422,-0.63329,0.22486,0.96794,0.18658,,,0.74799,0.64899,-0.13756,-0.01986,
3.76563,0.85395,-0.52977,-0.59815,0.22290,0.96110,0.18077,,,0.74795,0.64904,-0.13756,-0.01991,
3.77344,0.88859,-0.38755,-0.70358,0.22437,0.96012,0.17980,,,0.74790,0.64909,-0.13755,-0.01995,
3.78125,0.88859,-0.67200,-0.59815,0.21946,0.96696,0.18029,,,0.74786,0.64914,-0.13756,-0.02000,
3.78906,0.92323,-0.63644,-0.66844,0.21405,0.96501,0.18319,,,0.74781,0.64920,-0.13756,-0.02006,
3.79688,0.75003,-0.49422,-0.59815,0.22240,0.96012,0.18706,,,0.74777,0.64924,-0.13756,-0.02010,
3.80469,0.75003,-0.45866,-0.66844,0.22584,0.95963,0.18706,,,0.74773,0.64928,-0.13756,-0.02015,
3.81250,0.88859,-0.49422,-0.73873,0.21798,0.96207,0.18610,,,0.74769,0.64934,-0.13755,-0.02020,
3.82031,0.85395,-0.42311,-0.80902,0.22339,0.96599,0.18029,,,0.74764,0.64939,-0.13754,-0.02025,
3.82813,0.85395,-0.49422,-0.73873,0.23026,0.96550,0.18222,,,0.74760,0.64944,-0.13753,-0.02031,
3.83594,0.78467,-0.38755,-0.84417,0.22781,0.96012,0.18368,,,0.74756,0.64948,-0.13751,-0.02036,
3.84375,0.88859,-0.13866,-0.73873,0.22093,0.96305,0.18464,,,0.74752,0.64953,-0.13749,-0.02039,
3.85156,0.85395,-0.28088,-0.70358,0.22142,0.96452,0.17932,,,0.74748,0.64958,-0.13747,-0.02043,
3.85938,0.85395,-0.45866,-0.80902,0.21995,0.96501,0.18222,,,0.74743,0.64963,-0.13746,-0.02049,
3.86719,0.81931,-0.17421,-0.73873,0.22437,0.96305,0.18513,,,0.74740,0.64968,-0.13744,-0.02053,
3.87500,0.88859,-0.17421,-0.66844,0.22093,0.95963,0.19045,,,0.74735,0.64973,-0.13742,-0.02056,
3.88281,0.78467,-0.17421,-0.66844,0.21160,0.96647,0.18658,,,0.74732,0.64978,-0.13740,-0.02059,
3.89063,0.78467,-0.42311,-0.66844,0.21946,0.96159,0.18658,,,0.74728,0.64983,-0.13739,-0.02064,
3.89844,0.92323,-0.38755,-0.52785,0.22977,0.96550,0.18222,,,0.74723,0.64988,-0.13739,-0.02067,
3.90625,0.85395,-0.56533,-0.42241,0.22486,0.95719,0.18077,,,0.74719,0.64992,-0.13740,-0.02071,
3.91406,0.88859,-0.35199,-0.59815,0.22240,0.96012,0.18271,,,0.74714,0.64997,-0.13740,-0.02075,
3.92188,0.88859,-0.56533,-0.38727,0.22781,0.96550,0.18513,,,0.74710,0.65002,-0.13741,-0.02079,
3.92969,0.88859,-0.45866,-0.28183,0.22682,0.96550,0.18271,,,0.74706,0.65007,-0.13742,-0.02081,
3.93750,0.85395,-0.63644,-0.24668,0.22633,0.95719,0.17786,,,0.74701,0.65011,-0.13744,-0.02085,
3.94531,0.95787,-0.60088,-0.35212,0.22584,0.96207,0.18561,,,0.74696,0.65017,-0.13746,-0.02088,
3.95313,0.88859,-0.49422,-0.52785,0.22486,0.96207,0.18706,,,0.74692,0.65021,-0.13746,-0.02092,
3.96094,0.92323,-0.49422,-0.45756,0.22240,0.96647,0.18755,,,0.74687,0.65027,-0.13747,-0.02096,
3.96875,0.75003,-0.70755,-0.38727,0.22682,0.95767,0.17496,,,0.74683,0.65031,-0.13749,-0.02100,
3.97656,0.92323,-0.52977,-0.42241,0.22584,0.95474,0.18416,,,0.74679,0.65036,-0.13750,-0.02104,
3.98438,1.06179,-0.52977,-0.45756,0.21651,0.96354,0.18513,,,0.74673,0.65041,-0.13751,-0.02108,
3.99219,0.92323,-0.56533,-0.35212,0.23174,0.96647,0.18464,,,0.74669,0.65046,-0.13752,-0.02111,
4.00000,0.85395,-0.63644,-0.28183,0.22928,0.96061,0.18077,,,0.74664,0.65051,-0.13754,-0.02114,
4.00781,0.81931,-0.17421,-0.42241,0.22142,0.96647,0.18368,1021.980,25.4,0.74660,0.65055,-0.13753,-0.02117,
4.01563,0.88859,-0.63644,-0.45756,0.22290,0.96696,0.18222,,,0.74656,0.65060,-0.13755,-0.02121,
4.02344,0.78467,-0.74311,-0.35212,0.21995,0.96794,0.18077,,,0.74652,0.65064,-0.13757,-0.02125,
4.03125,0.78467,-0.84978,-0.31697,0.23075,0.96452,0.18319,,,0.74647,0.65069,-0.13760,-0.02130,
4.03906,0.88859,-0.13866,-0.42241,0.21749,0.95376,0.18077,,,0.74643,0.65073,-0.13759,-0.02132,
4.04688,0.88859,0.00356,-0.38727,0.21651,0.96305,0.18464,,,0.74639,0.65078,-0.13758,-0.02133,
4.05469,0.81931,-0.45866,-0.38727,0.22535,0.96305,0.18174,,,0.74635,0.65083,-0.13758,-0.02136,
4.06250,0.81931,-0.74311,-0.35212,0.22928,0.96305,0.18222,,,0.74631,0.65087,-0.13761,-0.02140,
4.07031,0.88859,-0.38755,-0.45756,0.22535,0.95572,0.18319,,,0.74626,0.65092,-0.13761,-0.02144,
4.07813,0.75003,-0.20977,-0.66844,0.21258,0.96794,0.18949,,,0.74623,0.65096,-0.13759,-0.02147,
4.08594,0.75003,-0.60088,-0.70358,0.22339,0.96452,0.18513,,,0.74619,0.65101,-0.13759,-0.02153,
4.09375,0.64611,-0.70755,-0.56300,0.22879,0.95914,0.17835,,,0.74615,0.65105,-0.13760,-0.02158,
4.10156,1.09643,-0.38755,-0.63329,0.22388,0.96305,0.18319,,,0.74610,0.65111,-0.13759,-0.02162,
4.10938,0.99251,-0.31644,-0.66844,0.21798,0.96403,0.18029,,,0.74605,0.65116,-0.13758,-0.02166,
4.11719,0.81931,-0.52977,-0.66844,0.21995,0.95914,0.18610,,,0.74601,0.65121,-0.13758,-0.02171,
4.12500,0.85395,-0.49422,-0.59815,0.22879,0.96550,0.18706,,,0.74596,0.65126,-0.13758,-0.02175,
4.13281,0.81931,-0.17421,-0.49271,0.22830,0.95376,0.18368,,,0.74592,0.65130,-0.13757,-0.02178,
4.14063,0.88859,-0.10310,-0.73873,0.21700,0.96745,0.18077,,,0.74588,0.65136,-0.13754,-0.02181,
4.14844,0.85395,-0.31644,-0.63329,0.22093,0.97039,0.18610,,,0.74584,0.65140,-0.13753,-0.02185,
4.15625,0.71539,-0.67200,-0.56300,0.23910,0.95865,0.18077,,,0.74580,0.65145,-0.13754,-0.02190,
4.16406,0.81931,-0.06755,-0.73873,0.22633,0.95816,0.17980,,,0.74576,0.65149,-0.13751,-0.02194,
4.17188,1.06179,0.03912,-0.80902,0.21847,0.96501,0.18174,,,0.74572,0.65156,-0.13748,-0.02197,
4.17969,0.78467,-0.56533,-0.77388,0.21995,0.96941,0.18706,,,0.74568,0.65160,-0.13747,-0.02202,
4.18750,0.81931,-0.67200,-0.73873,0.23223,0.96599,0.18271,,,0.74563,0.65165,-0.13748,-0.02208,
4.19531,0.81931,-0.52977,-0.66844,0.23174,0.95963,0.18319,,,0.74559,0.65170,-0.13748,-0.02213,
4.20313,0.92323,0.11023,-0.80902,0.21455,0.96403,0.18900,,,0.74555,0.65175,-0.13743,-0.02216,
4.21094,0.95787,-0.06755,-0.84417,0.21258,0.96941,0.18997,,,0.74550,0.65181,-0.13740,-0.02220,
4.21875,0.81931,-0.49422,-0.80902,0.22732,0.96696,0.18610,,,0.74546,0.65186,-0.13739,-0.02225,
4.22656,0.81931,-0.13866,-0.63329,0.22093,0.95914,0.18077,,,0.74542,0.65190,-0.13737,-0.02228,
4.23438,0.92323,-0.03199,-0.73873,0.21946,0.96696,0.18368,,,0.74538,0.65196,-0.13734,-0.02231,
4.24219,0.92323,-0.35199,-0.77388,0.22142,0.96403,0.18416,,,0.74533,0.65201,-0.13733,-0.02236,
4.25000,0.75003,-0.63644,-0.73873,0.23272,0.96354,0.18029,,,0.74529,0.65205,-0.13733,-0.02242,
4.25781,0.75003,-0.28088,-0.70358,0.23518,0.96012,0.18416,,,0.74526,0.65210,-0.13731,-0.02246,
4.26563,0.99251,0.18134,-0.80902,0.21749,0.96354,0.18610,,,0.74521,0.65216,-0.13727,-0.02248,
4.27344,0.85395,-0.35199,-0.77388,0.22437,0.96305,0.18319,,,0.74517,0.65221,-0.13725,-0.02253,
4.28125,0.75003,-1.02755,-0.66844,0.22584,0.95816,0.17980,,,0.74513,0.65225,-0.13728,-0.02260,
4.28906,0.75003,-0.42311,-0.59815,0.22290,0.96207,0.17835,,,0.74509,0.65229,-0.13727,-0.02264,
4.29688,1.02715,-0.03199,-0.70358,0.22044,0.95816,0.18706,,,0.74504,0.65235,-0.13725,-0.02267,
4.30469,0.78467,-0.20977,-0.59815,0.21749,0.96892,0.18271,,,0.74500,0.65240,-0.13723,-0.02270,
4.31250,0.71539,-0.92089,-0.63329,0.23223,0.96501,0.17399,,,0.74496,0.65244,-0.13725,-0.02277,
4.32031,0.85395,-0.84978,-0.56300,0.23960,0.95914,0.18125,,,0.74492,0.65248,-0.13727,-0.02283,
4.32813,0.99251,-0.03199,-0.77388,0.22191,0.96207,0.18561,,,0.74487,0.65254,-0.13724,-0.02286,
4.33594,0.88859,-0.13866,-0.87932,0.21455,0.97234,0.18561,,,0.74483,0.65259,-0.13721,-0.02290,
4.34375,0.75003,-0.52977,-0.70358,0.22044,0.96550,0.18174,,,0.74479,0.65264,-0.13721,-0.02296,
4.35156,0.75003,-0.70755,-0.52785,0.22977,0.96061,0.18368,,,0.74475,0.65268,-0.13722,-0.02301,
4.35938,0.88859,-0.35199,-0.56300,0.22191,0.95621,0.17690,,,0.74470,0.65273,-0.13721,-0.02304,
4.36719,0.92323,0.11023,-0.73873,0.21700,0.96550,0.18464,,,0.74466,0.65278,-0.13718,-0.02307,
4.37500,0.75003,-0.67200,-0.63329,0.22830,0.96599,0.18029,,,0.74462,0.65283,-0.13718,-0.02312,
4.38281,0.68075,-0.74311,-0.52785,0.23321,0.96110,0.18368,,,0.74458,0.65286,-0.13720,-0.02317,
4.39063,0.95787,-0.10310,-0.66844,0.21995,0.96207,0.18125,,,0.74454,0.65292,-0.13718,-0.02320,
4.39844,0.78467,-0.42311,-0.73873,0.22044,0.96256,0.18416,,,0.74450,0.65297,-0.13717,-0.02325,
4.40625,0.92323,-0.67200,-0.70358,0.22191,0.96550,0.18755,,,0.74445,0.65302,-0.13717,-0.02331,
4.41406,0.68075,-0.63644,-0.52785,0.23174,0.96256,0.18561,,,0.74441,0.65306,-0.13718,-0.02336,
4.42188,0.85395,0.00356,-0.59815,0.21897,0.96305,0.18997,,,0.74438,0.65311,-0.13715,-0.02338,
4.42969,0.85395,-0.20977,-0.70358,0.21504,0.96305,0.18077,,,0.74433,0.65315,-0.13713,-0.02342,
4.43750,0.78467,-0.81422,-0.59815,0.22633,0.96159,0.18706,,,0.74429,0.65320,-0.13715,-0.02348,
4.44531,0.68075,-0.88533,-0.56300,0.22339,0.96452,0.17738,,,0.74425,0.65324,-0.13717,-0.02354,
4.45313,0.85395,-0.38755,-0.45756,0.22142,0.96110,0.17980,,,0.74421,0.65328,-0.13717,-0.02357,
4.46094,0.85395,-0.24533,-0.59815,0.21307,0.96843,0.18464,,,0.74417,0.65333,-0.13716,-0.02360,
4.46875,0.88859,-0.52977,-0.66844,0.22290,0.96745,0.18271,,,0.74412,0.65338,-0.13716,-0.02365,
4.47656,0.78467,-0.74311,-0.38727,0.22977,0.96941,0.18029,,,0.74408,0.65343,-0.13718,-0.02370,
4.48438,0.78467,-0.31644,-0.49271,0.22142,0.96159,0.17738,,,0.74404,0.65347,-0.13718,-0.02373,
4.49219,0.99251,-0.24533,-0.52785,0.22437,0.96452,0.18416,,,0.74399,0.65352,-0.13717,-0.02376,
4.50000,0.78467,-0.52977,-0.56300,0.22191,0.96794,0.18029,,,0.74395,0.65357,-0.13717,-0.02380,
4.50781,0.75003,-0.60088,-0.42241,0.23075,0.95963,0.18029,,,0.74391,0.65361,-0.13718,-0.02385,
4.51563,0.78467,-0.38755,-0.49271,0.22928,0.95865,0.17980,,,0.74387,0.65365,-0.13718,-0.02388,
4.52344,0.95787,-0.35199,-0.63329,0.22142,0.96403,0.18658,,,0.74383,0.65371,-0.13717,-0.02392,
4.53125,0.95787,-0.35199,-0.66844,0.21749,0.96599,0.18029,,,0.74378,0.65376,-0.13716,-0.02396,
4.53906,0.81931,-0.49422,-0.56300,0.23125,0.96354,0.18125,,,0.74374,0.65381,-0.13716,-0.02400,
4.54688,0.85395,-0.17421,-0.63329,0.22044,0.96110,0.18319,,,0.74370,0.65386,-0.13715,-0.02403,
4.55469,0.95787,-0.17421,-0.70358,0.22781,0.96501,0.18464,,,0.74365,0.65391,-0.13712,-0.02407,
4.56250,0.88859,-0.35199,-0.66844,0.22142,0.96110,0.18561,,,0.74361,0.65396,-0.13711,-0.02411,
4.57031,0.78467,-0.35199,-0.59815,0.23026,0.96305,0.18271,,,0.74357,0.65401,-0.13711,-0.02415,
4.57813,0.85395,-0.28088,-0.56300,0.22781,0.96403,0.18222,,,0.74353,0.65405,-0.13710,-0.02418,
4.58594,1.06179,0.21690,-0.66844,0.22290,0.96207,0.18513,,,0.74348,0.65411,-0.13706,-0.02420,
4.59375,1.02715,-0.20977,-0.63329,0.21798,0.96256,0.18271,,,0.74343,0.65417,-0.13704,-0.02423,
4.60156,0.81931,-0.35199,-0.59815,0.22093,0.96403,0.18561,,,0.74339,0.65422,-0.13703,-0.02427,
4.60938,0.88859,-0.38755,-0.56300,0.22584,0.96354,0.18755,,,0.74335,0.65427,-0.13703,-0.02430,
4.61719,0.81931,-0.35199,-0.56300,0.22191,0.95865,0.18174,,,0.74331,0.65431,-0.13702,-0.02434,
4.62500,0.88859,-0.42311,-0.52785,0.21897,0.95865,0.18610,,,0.74326,0.65436,-0.13702,-0.02438,
4.63281,0.88859,-0.60088,-0.42241,0.22535,0.95963,0.18416,,,0.74322,0.65441,-0.13704,-0.02442,
4.64063,0.88859,-0.49422,-0.49271,0.22240,0.96159,0.17835,,,0.74317,0.65446,-0.13704,-0.02446,
4.64844,1.06179,0.00356,-0.38727,0.21749,0.95670,0.18610,,,0.74312,0.65452,-0.13703,-0.02447,
4.65625,0.92323,-0.38755,-0.42241,0.21847,0.96305,0.18803,,,0.74308,0.65457,-0.13703,-0.02450,
4.66406,0.99251,-0.45866,-0.38727,0.21995,0.96012,0.18513,,,0.74303,0.65462,-0.13704,-0.02453,
4.67188,0.75003,-0.81422,-0.31697,0.22584,0.95621,0.18271,,,0.74299,0.65466,-0.13706,-0.02457,
4.67969,1.02715,-0.67200,-0.17639,0.22339,0.96256,0.18271,,,0.74294,0.65471,-0.13709,-0.02460,
4.68750,0.88859,-0.24533,-0.38727,0.22044,0.96647,0.18319,,,0.74289,0.65476,-0.13709,-0.02462,
4.69531,0.88859,-0.74311,-0.35212,0.22830,0.96403,0.18174,,,0.74285,0.65481,-0.13711,-0.02467,
4.70313,0.88859,-0.67200,-0.31697,0.22879,0.96599,0.18658,,,0.74280,0.65485,-0.13713,-0.02470,
4.71094,0.85395,-0.35199,-0.38727,0.22290,0.96550,0.17932,,,0.74276,0.65490,-0.13714,-0.02473,
4.71875,0.88859,-0.60088,-0.42241,0.22437,0.96305,0.18513,,,0.74271,0.65495,-0.13715,-0.02477,
4.72656,0.88859,-0.42311,-0.56300,0.22682,0.96110,0.18125,,,0.74267,0.65500,-0.13715,-0.02481,
4.73438,0.75003,-0.56533,-0.56300,0.23026,0.96403,0.17738,,,0.74263,0.65504,-0.13715,-0.02486,
4.74219,0.81931,-0.20977,-0.80902,0.22830,0.96159,0.17835,,,0.74259,0.65509,-0.13713,-0.02490,
4.75000,0.88859,-0.31644,-0.63329,0.22240,0.95865,0.18513,,,0.74254,0.65514,-0.13712,-0.02494,
4.75781,0.85395,-0.35199,-0.80902,0.22093,0.96647,0.18125,,,0.74250,0.65519,-0.13710,-0.02499,
4.76563,0.57683,-0.60088,-0.73873,0.22486,0.96305,0.18610,,,0.74247,0.65522,-0.13710,-0.02504,
4.77344,0.75003,-0.56533,-0.70358,0.22191,0.95670,0.18852,,,0.74243,0.65527,-0.13710,-0.02510,
4.78125,0.71539,-0.38755,-0.84417,0.22388,0.96354,0.18852,,,0.74239,0.65531,-0.13708,-0.02515,
4.78906,0.64611,-0.49422,-0.91446,0.22093,0.96501,0.18125,,,0.74236,0.65535,-0.13707,-0.02521,
4.79688,0.75003,-0.28088,-0.77388,0.22142,0.95767,0.18610,,,0.74232,0.65540,-0.13705,-0.02526,
4.80469,0.85395,-0.35199,-0.98476,0.22388,0.96256,0.18271,,,0.74228,0.65545,-0.13702,-0.02532,
4.81250,0.88859,-0.10310,-0.94961,0.22290,0.96256,0.18561,,,0.74223,0.65550,-0.13699,-0.02536,
4.82031,0.81931,-0.17421,-0.80902,0.22240,0.96550,0.18658,,,0.74219,0.65555,-0.13696,-0.02540,
4.82813,0.61147,-0.31644,-0.84417,0.22682,0.96403,0.18319,,,0.74216,0.65559,-0.13694,-0.02545,
4.83594,0.68075,-0.49422,-0.84417,0.22437,0.96354,0.18852,,,0.74213,0.65563,-0.13693,-0.02551,
4.84375,1.02715,-0.24533,-0.80902,0.22339,0.95865,0.18949,,,0.74208,0.65569,-0.13691,-0.02555,
4.85156,0.81931,-0.20977,-0.84417,0.22142,0.95670,0.18077,,,0.74204,0.65574,-0.13688,-0.02560,
4.85938,0.78467,-0.28088,-0.73873,0.21946,0.96110,0.18416,,,0.74200,0.65578,-0.13686,-0.02564,
4.86719,0.75003,-0.38755,-0.73873,0.23125,0.96354,0.18610,,,0.74196,0.65583,-0.13685,-0.02569,
4.87500,0.78467,-0.20977,-0.77388,0.22486,0.95816,0.18029,,,0.74192,0.65587,-0.13683,-0.02573,
4.88281,0.81931,-0.31644,-0.77388,0.21946,0.96745,0.18222,,,0.74188,0.65592,-0.13681,-0.02577,
4.89063,0.57683,-0.38755,-0.77388,0.21700,0.96403,0.18029,,,0.74185,0.65596,-0.13680,-0.02583,
4.89844,0.71539,-0.56533,-0.73873,0.22732,0.96354,0.18319,,,0.74181,0.65600,-0.13679,-0.02588,
4.90625,0.68075,-0.45866,-0.56300,0.22633,0.96305,0.18706,,,0.74177,0.65604,-0.13679,-0.02592,
4.91406,0.64611,-0.17421,-0.73873,0.21847,0.95865,0.18803,,,0.74174,0.65608,-0.13677,-0.02596,
4.92188,0.71539,-0.45866,-0.73873,0.22486,0.96941,0.17883,,,0.74171,0.65612,-0.13676,-0.02601,
4.92969,0.57683,-0.74311,-0.70358,0.23026,0.96550,0.18174,,,0.74167,0.65615,-0.13677,-0.02608,
4.93750,0.57683,-0.70755,-0.77388,0.23075,0.95719,0.18125,,,0.74164,0.65619,-0.13677,-0.02614,
4.94531,0.68075,-0.31644,-0.63329,0.22732,0.96256,0.18513,,,0.74160,0.65623,-0.13676,-0.02618,
4.95313,0.81931,-0.52977,-0.84417,0.22290,0.96452,0.17980,,,0.74156,0.65628,-0.13675,-0.02624,
4.96094,0.64611,-0.42311,-0.70358,0.22830,0.96256,0.18561,,,0.74153,0.65631,-0.13674,-0.02629,
4.96875,0.81931,-0.20977,-0.80902,0.23075,0.95914,0.17835,,,0.74149,0.65636,-0.13672,-0.02633,
4.97656,0.78467,-0.06755,-0.84417,0.21651,0.96305,0.18658,,,0.74145,0.65641,-0.13668,-0.02637,
4.98438,0.81931,-0.06755,-0.94961,0.21405,0.96501,0.18949,,,0.74141,0.65646,-0.13665,-0.02641,
4.99219,0.68075,-0.56533,-0.94961,0.22928,0.96501,0.18368,,,0.74137,0.65650,-0.13663,-0.02648,
5.00000,0.64611,-0.67200,-0.87932,0.23075,0.96599,0.18513,,,0.74134,0.65654,-0.13663,-0.02655,
5.00781,0.75003,-0.49422,-0.84417,0.22388,0.96012,0.18319,1021.979,25.4,0.74130,0.65659,-0.13662,-0.02661,
5.01563,0.75003,-0.20977,-0.98476,0.22240,0.96892,0.19094,,,0.74126,0.65663,-0.13659,-0.02666,
5.02344,0.68075,-0.56533,-0.91446,0.22633,0.96696,0.18464,,,0.74122,0.65668,-0.13658,-0.02672,
5.03125,0.57683,-0.45866,-0.73873,0.22437,0.95963,0.18803,,,0.74119,0.65671,-0.13657,-0.02678,
5.03906,0.78467,-0.24533,-0.80902,0.22290,0.96256,0.18949,,,0.74115,0.65676,-0.13654,-0.02682,
5.04688,0.61147,-0.31644,-0.77388,0.22240,0.96256,0.18610,,,0.74112,0.65679,-0.13653,-0.02687,
5.05469,0.43828,-0.63644,-0.77388,0.22388,0.96403,0.18464,,,0.74109,0.65682,-0.13653,-0.02693,
5.06250,0.47292,-0.81422,-0.63329,0.23223,0.96696,0.18368,,,0.74106,0.65685,-0.13654,-0.02700,
5.07031,0.54219,-0.60088,-0.52785,0.22830,0.96159,0.18464,,,0.74103,0.65688,-0.13655,-0.02704,
5.07813,0.71539,-0.38755,-0.73873,0.21946,0.96599,0.18271,,,0.74100,0.65692,-0.13653,-0.02709,
5.08594,0.50755,-0.42311,-0.70358,0.22044,0.96892,0.18174,,,0.74097,0.65696,-0.13653,-0.02714,
5.09375,0.43828,-0.88533,-0.49271,0.23174,0.96403,0.18368,,,0.74094,0.65698,-0.13655,-0.02720,
5.10156,0.57683,-0.70755,-0.56300,0.21700,0.96159,0.18900,,,0.74091,0.65701,-0.13656,-0.02726,
5.10938,0.61147,-0.60088,-0.70358,0.21651,0.96452,0.18706,,,0.74087,0.65705,-0.13656,-0.02731,
5.11719,0.33436,-1.09867,-0.49271,0.21700,0.96256,0.18416,,,0.74085,0.65707,-0.13659,-0.02739,
5.12500,0.23044,-1.52534,-0.24668,0.22879,0.95328,0.19191,,,0.74082,0.65708,-0.13666,-0.02746,
5.13281,0.16116,-1.27645,-0.24668,0.22633,0.95865,0.18029,,,0.74080,0.65709,-0.13672,-0.02753,
5.14063,0.23044,-0.88533,-0.24668,0.21946,0.96550,0.19191,,,0.74078,0.65710,-0.13675,-0.02758,
5.14844,0.19580,-0.84978,-0.38727,0.21405,0.96550,0.19336,,,0.74076,0.65711,-0.13678,-0.02764,
5.15625,-0.15060,-1.13422,-0.07095,0.22535,0.96550,0.18706,,,0.74076,0.65710,-0.13683,-0.02769,
5.16406,-0.42772,-1.02755,-0.00066,0.22486,0.96892,0.19965,,,0.74077,0.65708,-0.13688,-0.02774,
5.17188,-0.91267,-1.34756,0.13993,0.21602,0.95963,0.19336,,,0.74080,0.65703,-0.13695,-0.02781,
5.17969,-0.08132,-2.37868,-0.03580,0.22732,0.96696,0.16092,,,0.74078,0.65702,-0.13707,-0.02791,
5.18750,-0.28916,-2.37868,0.35081,0.24549,0.96354,0.17060,,,0.74077,0.65700,-0.13721,-0.02801,
5.19531,-0.28916,-1.34756,0.06963,0.23370,0.96159,0.17254,,,0.74077,0.65698,-0.13728,-0.02807,
5.20313,-0.35844,-0.17421,0.06963,0.22093,0.96012,0.18755,,,0.74079,0.65696,-0.13729,-0.02807,
5.21094,-0.84339,-0.03199,-0.00066,0.23419,0.96892,0.17932,,,0.74082,0.65692,-0.13729,-0.02808,
5.21875,-1.08587,-0.42311,0.21022,0.22633,0.96452,0.17690,,,0.74087,0.65686,-0.13732,-0.02810,
5.22656,-1.64011,-0.63644,0.03449,0.21405,0.95328,0.19191,,,0.74094,0.65678,-0.13735,-0.02814,
5.23438,-1.67475,-1.70312,0.03449,0.22240,0.95621,0.18416,,,0.74100,0.65669,-0.13743,-0.02823,
5.24219,-2.57538,-2.30756,0.10478,0.22339,0.96941,0.19530,,,0.74109,0.65655,-0.13755,-0.02835,
5.25000,-4.34200,-3.08979,-0.21154,0.23518,0.96990,0.18852,,,0.74126,0.65633,-0.13769,-0.02854,
5.25781,-4.65376,-2.94757,-0.24668,0.24254,0.96403,0.17980,,,0.74144,0.65609,-0.13782,-0.02873,
5.26563,-4.68840,-1.48978,-0.56300,0.22290,0.95865,0.18077,,,0.74163,0.65586,-0.13786,-0.02887,
5.27344,-4.13417,-1.77423,-0.73873,0.22928,0.96110,0.17399,,,0.74180,0.65565,-0.13791,-0.02903,
5.28125,-3.82241,-1.70312,-0.73873,0.23861,0.96599,0.18416,,,0.74195,0.65546,-0.13795,-0.02918,
5.28906,-3.47601,-1.16978,-0.91446,0.23125,0.95719,0.18610,,,0.74209,0.65529,-0.13796,-0.02931,
5.29688,-3.26817,-0.84978,-1.16049,0.22584,0.95816,0.18368,,,0.74223,0.65513,-0.13795,-0.02943,
5.30469,-3.02569,-0.60088,-1.54710,0.22732,0.96061,0.18077,,,0.74236,0.65499,-0.13790,-0.02957,
5.31250,-2.54074,-1.70312,-1.58224,0.23714,0.96354,0.20111,,,0.74245,0.65488,-0.13791,-0.02975,
5.32031,-2.43682,-1.45422,-2.03915,0.24451,0.96207,0.17786,,,0.74254,0.65477,-0.13789,-0.02994,
5.32813,-3.02569,0.89246,-2.35546,0.21356,0.95767,0.18222,,,0.74268,0.65464,-0.13773,-0.03005,
5.33594,-3.71849,1.17691,-3.16383,0.22388,0.95719,0.20982,,,0.74285,0.65448,-0.13753,-0.03019,
5.34375,-3.96097,-1.41867,-3.05839,0.27300,0.95328,0.17835,,,0.74301,0.65431,-0.13745,-0.03044,
5.35156,-3.30281,-0.92089,-3.26927,0.24009,0.96012,0.17109,,,0.74314,0.65417,-0.13735,-0.03068,
5.35938,-3.06033,1.53247,-4.60483,0.22977,0.96501,0.18610,,,0.74328,0.65406,-0.13706,-0.03088,
5.36719,-3.23353,1.53247,-4.42910,0.22879,0.96403,0.18271,,,0.74343,0.65394,-0.13678,-0.03106,
5.37500,-3.75313,1.88802,-4.63998,0.23223,0.96403,0.19578,,,0.74360,0.65380,-0.13647,-0.03125,
5.38281,-3.54529,1.95914,-4.74542,0.23616,0.96403,0.18658,,,0.74377,0.65367,-0.13615,-0.03143,
5.39063,-3.02569,3.73693,-5.20232,0.24107,0.96745,0.19336,,,0.74393,0.65357,-0.13572,-0.03156,
5.39844,-3.47601,4.34138,-6.04583,0.22879,0.96941,0.18706,,,0.74411,0.65346,-0.13522,-0.03170,
5.40625,-3.44137,4.44805,-6.50273,0.22830,0.96403,0.17302,,,0.74429,0.65335,-0.13470,-0.03187,
5.41406,-3.26817,1.31913,-8.11947,0.22142,0.97772,0.14445,,,0.74443,0.65327,-0.13426,-0.03225,
5.42188,-3.30281,-6.36093,-10.19310,0.23419,0.98652,0.18222,,,0.74450,0.65318,-0.13413,-0.03308,
5.42969,-3.30281,-7.67650,-11.59895,0.24303,0.98358,0.18464,,,0.74455,0.65310,-0.13399,-0.03404,
5.43750,-2.67930,-4.65425,-14.23493,0.27889,0.97674,0.18077,,,0.74459,0.65308,-0.13359,-0.03500,
5.44531,-2.19434,-0.49422,-17.60898,0.30885,0.97772,0.19965,,,0.74464,0.65313,-0.13282,-0.03593,
5.45313,-1.74403,1.17691,-19.78805,0.30148,0.98065,0.10330,,,0.74468,0.65322,-0.13188,-0.03690,
5.46094,-1.91722,4.30582,-25.13030,0.29755,0.98945,0.11734,,,0.74474,0.65336,-0.13054,-0.03800,
5.46875,-1.70939,6.97251,-28.08259,0.30541,1.00510,0.15220,,,0.74480,0.65354,-0.12893,-0.03913,
5.47656,-4.13417,11.98588,-33.53028,0.32555,1.01927,0.22338,,,0.74500,0.65365,-0.12681,-0.04034,
5.48438,-10.78499,13.79923,-39.85662,0.37221,1.02025,0.11443,,,0.74549,0.65348,-0.12431,-0.04184,
5.49219,-12.89801,18.10149,-42.98465,0.37025,1.00412,0.06843,,,0.74609,0.65324,-0.12143,-0.04333,
5.50000,-13.93720,27.55934,-49.83819,0.33488,1.01341,0.03599,,,0.74679,0.65302,-0.11777,-0.04475,
5.50781,-14.80319,37.83498,-57.11348,0.30983,1.04812,0.06407,,,0.74757,0.65283,-0.11325,-0.04609,
5.51563,-15.70383,42.56391,-60.80385,0.32457,1.05692,0.04616,,,0.74839,0.65263,-0.10833,-0.04741,
5.52344,-16.18878,48.85729,-67.20048,0.32899,1.05447,0.03986,,,0.74924,0.65245,-0.10279,-0.04879,
5.53125,-16.11950,54.47511,-71.38290,0.33881,1.06523,0.04616,,,0.75009,0.65229,-0.09678,-0.05012,
5.53906,-15.91166,62.90185,-77.35778,0.31131,1.07598,0.01662,,,0.75093,0.65219,-0.09007,-0.05139,
5.54688,-14.80319,71.57747,-83.33266,0.23714,1.10727,0.01081,,,0.75172,0.65217,-0.08264,-0.05256,
5.55469,-14.17968,74.20860,-85.26571,0.17623,1.12682,0.00452,,,0.75244,0.65217,-0.07499,-0.05371,
5.56250,-13.59080,74.99083,-88.04227,0.00776,1.23340,-0.00662,,,0.75308,0.65218,-0.06718,-0.05496,
5.57031,-19.72203,62.68851,-87.76110,-0.05167,1.29646,-0.13881,,,0.75389,0.65179,-0.05998,-0.05676,
5.57813,-21.93897,52.66177,-87.37449,-0.10276,1.27984,-0.28262,,,0.75472,0.65121,-0.05331,-0.05900,
5.58594,-18.82140,48.89285,-92.50586,-0.30709,1.35170,-0.38189,,,0.75534,0.65075,-0.04661,-0.06166,
5.59375,-7.49422,20.37706,-93.38452,-0.49816,1.42552,-0.57267,,,0.75533,0.65074,-0.04138,-0.06559,
5.60156,-8.08309,-5.15203,-94.33347,-0.40974,1.44410,-0.42837,,,0.75524,0.65055,-0.03743,-0.07070,
5.60938,-2.71394,-30.64557,-99.18367,-0.07574,1.31602,-0.68404,,,0.75478,0.65050,-0.03459,-0.07717,
5.61719,7.47014,-11.97875,-103.85813,-0.26877,1.32628,-0.49326,,,0.75386,0.65105,-0.03064,-0.08302,
5.62500,16.68430,-30.21890,-106.56440,-0.19412,1.22949,-0.74795,,,0.75243,0.65194,-0.02756,-0.08980,
5.63281,27.28405,-21.61439,-106.10750,-0.28056,1.17767,-0.65353,,,0.75050,0.65339,-0.02412,-0.09615,
5.64063,32.13360,-32.13892,-104.98281,-0.25551,1.18891,-0.59736,,,0.74830,0.65498,-0.02129,-0.10290,
5.64844,31.64865,-51.30351,-97.14518,-0.07967,1.13660,-0.25938,,,0.74611,0.65636,-0.01979,-0.11010,
5.65625,38.78443,-51.94352,-99.18367,-0.10177,1.01096,-0.31845,,,0.74354,0.65805,-0.01829,-0.11741,
5.66406,46.92476,-47.96126,-96.19623,-0.08802,0.99630,-0.38770,,,0.74058,0.66015,-0.01678,-0.12438,
5.67188,56.62387,-46.89459,-86.39039,0.26661,1.02221,-0.43224,,,0.73722,0.66269,-0.01574,-0.13078,
5.67969,72.38494,-47.07237,-77.11176,0.56427,0.81541,-0.49713,,,0.73319,0.66597,-0.01527,-0.13670,
5.68750,81.63374,-26.27220,-74.15946,0.60110,0.79342,-0.50003,,,0.72874,0.66986,-0.01397,-0.14151,
5.69531,92.68380,19.98595,-69.94190,0.38990,0.75577,-0.40707,,,0.72383,0.67471,-0.01068,-0.14398,
5.70313,99.02287,35.77274,-66.67329,0.34618,0.76408,-0.39932,,,0.71862,0.67997,-0.00682,-0.14554,
5.71094,110.59253,50.88397,-57.25407,0.28871,0.71764,-0.42740,,,0.71292,0.68589,-0.00277,-0.14593,
5.71875,121.05372,61.69295,-45.48004,0.32162,0.72840,-0.40561,,,0.70678,0.69236,0.00115,-0.14523,
5.72656,124.93337,66.67077,-38.59135,0.37320,0.75528,-0.37123,,,0.70046,0.69901,0.00494,-0.14394,
5.73438,126.56143,81.74644,-23.51357,0.31868,0.72057,-0.33104,,,0.69413,0.70581,0.00872,-0.14120,
5.74219,131.16851,90.06651,-8.68181,0.23910,0.74697,-0.22306,,,0.68764,0.71284,0.01214,-0.13735,
5.75000,131.20315,92.16430,-1.37137,0.19195,0.78804,-0.17949,,,0.68114,0.71981,0.01530,-0.13303,
5.75781,126.76927,87.68427,12.89805,0.16592,0.82128,-0.16980,,,0.67490,0.72646,0.01759,-0.12826,
5.76563,123.13210,82.35089,19.57586,0.16248,0.80417,-0.18820,,,0.66884,0.73283,0.01933,-0.12342,
5.77344,121.67724,73.39082,31.34989,0.16641,0.80759,-0.22064,,,0.66290,0.73900,0.02008,-0.11847,
5.78125,122.02363,72.32415,41.08543,0.08880,0.84768,-0.18142,,,0.65695,0.74512,0.02029,-0.11313,
5.78906,120.94980,69.51523,45.58416,0.03428,0.88288,-0.16351,,,0.65103,0.75110,0.02016,-0.10772,
5.79688,117.03551,58.17292,54.01929,-0.03841,0.90928,-0.11266,,,0.64532,0.75676,0.01911,-0.10250,
5.80469,113.08659,47.18617,61.36487,-0.05020,0.93225,-0.06037,,,0.63983,0.76211,0.01723,-0.09751,
5.81250,110.83501,42.24390,64.80922,-0.03006,0.95621,-0.00614,,,0.63442,0.76727,0.01497,-0.09262,
5.82031,104.39202,32.75049,70.78410,-0.02171,0.99043,0.14736,,,0.62935,0.77204,0.01202,-0.08794,
5.82813,96.00922,29.62158,75.03681,0.03576,0.98505,0.26890,,,0.62470,0.77636,0.00877,-0.08324,
5.83594,93.27268,31.86160,76.19664,0.09764,0.97234,0.25437,,,0.62016,0.78053,0.00556,-0.07836,
5.84375,91.71389,51.27509,76.82927,0.18262,0.96452,0.30376,,,0.61564,0.78468,0.00315,-0.07242,
5.85156,93.27268,65.28409,78.09454,0.15560,0.99678,0.31151,,,0.61100,0.78890,0.00125,-0.06566,
5.85938,93.93083,96.78656,78.79747,0.04902,1.06865,0.39092,,,0.60626,0.79321,0.00063,-0.05718,
5.86719,91.02110,119.18674,81.43344,-0.05855,1.14931,0.42966,,,0.60161,0.79738,0.00079,-0.04737,
5.87500,87.90352,131.16906,83.64766,-0.16956,1.18598,0.48631,,,0.59705,0.80136,0.00134,-0.03681,
5.88281,76.92274,150.58255,85.47527,-0.38469,1.22362,0.46597,,,0.59300,0.80481,0.00261,-0.02511,
5.89063,63.58645,161.46264,85.82674,-0.63372,1.21775,0.40545,,,0.58958,0.80760,0.00432,-0.01279,
5.89844,57.73234,161.28486,85.22925,-0.76045,1.23046,0.42046,,,0.58638,0.81001,0.00606,-0.00050,
5.90625,46.40516,147.84475,81.25771,-1.03747,1.18744,0.42917,,,0.58372,0.81185,0.00748,0.01089,
5.91406,39.54650,120.00453,72.15480,-1.30664,1.05936,0.40883,,,0.58139,0.81333,0.00830,0.02038,
5.92188,37.36420,100.41326,66.25022,-1.44466,1.02172,0.45580,,,0.57915,0.81468,0.00866,0.02855,
5.92969,31.89113,54.36845,51.27787,-1.57728,1.04323,0.54393,,,0.57724,0.81585,0.00802,0.03357,
5.93750,26.31413,28.41268,43.61597,-1.58170,1.04225,0.63787,,,0.57566,0.81683,0.00677,0.03685,
5.94531,15.61047,-21.40105,29.13567,-1.33218,0.99581,0.65869,,,0.57473,0.81751,0.00435,0.03679,
5.95313,9.02892,-50.87684,18.90808,-1.18679,0.99532,0.82381,,,0.57419,0.81799,0.00133,0.03469,
5.96094,6.29239,-60.26359,13.07379,-1.06989,0.97479,0.88288,,,0.57381,0.81837,-0.00174,0.03184,
5.96875,1.02715,-47.10792,-3.37471,-0.92990,0.94643,1.01943,,,0.57375,0.81850,-0.00339,0.02907,
5.97656,-7.80597,-14.64544,-20.63157,-0.89208,0.89608,1.11627,,,0.57423,0.81823,-0.00283,0.02744,
5.98438,-13.24441,3.06137,-27.97715,-0.89257,0.88092,1.14097,,,0.57502,0.81771,-0.00117,0.02652,
5.99219,-24.98727,30.47492,-39.54030,-0.82872,0.83301,1.03492,,,0.57649,0.81667,0.00218,0.02666,
6.00000,-27.06565,38.33276,-42.87921,-0.46132,0.81639,0.11104,,,0.57806,0.81552,0.00603,0.02711,
6.00781,18.52020,119.61341,-39.22399,-1.23149,0.79488,-2.66592,1021.948,25.4,0.57703,0.81598,0.01296,0.03220,
6.01563,62.96294,78.43975,-72.71846,-0.20345,2.04834,-1.13048,,,0.57360,0.81820,0.02023,0.03365,
6.02344,34.93942,6.04806,-68.85236,-0.75701,3.61712,1.69684,,,0.57180,0.81944,0.02439,0.03124,
6.03125,-39.01635,-25.02775,-159.98686,-1.05957,4.78649,1.45425,,,0.57433,0.81765,0.03227,0.02367,
6.03906,-54.77741,4.83916,-182.86713,0.69934,2.56947,1.16276,,,0.57762,0.81502,0.04256,0.01690,
6.04688,-74.76452,-23.21440,-175.66213,0.53234,1.10385,0.34008,,,0.58200,0.81152,0.05131,0.00891,
6.05469,-56.16300,-125.18855,-146.59610,-0.08065,-0.28356,-0.87772,,,0.58558,0.80878,0.05442,-0.00364,
6.06250,-38.46211,-73.02813,-144.45217,0.11336,0.19797,-0.59494,,,0.58789,0.80664,0.05947,-0.01329,
6.07031,-28.20876,-14.89433,-124.31331,-0.14794,0.14224,-0.57121,,,0.58937,0.80496,0.06573,-0.01897,
6.07813,-2.88714,59.59515,-114.50748,-0.91418,0.77484,0.37688,,,0.58909,0.80438,0.07442,-0.02029,
6.08594,-9.33012,50.06619,-117.35433,-0.50405,1.20455,0.12847,,,0.58916,0.80345,0.08287,-0.02221,
6.09375,-18.92532,38.93721,-100.48408,-0.00305,1.20406,-0.37801,,,0.58981,0.80215,0.08997,-0.02401,
6.10156,-7.97917,4.76805,-70.71512,-0.39894,0.85061,-0.32136,,,0.59010,0.80140,0.09404,-0.02654,
6.10938,-8.74125,12.69700,-69.13353,-0.60916,0.92052,-0.10104,,,0.59036,0.80062,0.09834,-0.02857,
6.11719,-23.87880,-14.18322,-64.91597,-0.70101,1.19086,-0.22694,,,0.59163,0.79918,0.10136,-0.03180,
6.12500,-30.49498,-28.47666,-47.44823,-0.46868,1.08820,-0.04487,,,0.59338,0.79756,0.10286,-0.03506,
6.13281,-29.10939,-42.23677,-42.98465,-0.28056,1.06523,-0.00323,,,0.59515,0.79597,0.10356,-0.03889,
6.14063,-26.64997,-43.01900,-36.62316,-0.11307,0.97772,-0.08361,,,0.59680,0.79451,0.10387,-0.04252,
6.14844,-22.04289,-33.77448,-29.91020,-0.19461,0.95963,-0.05795,,,0.59814,0.79329,0.10418,-0.04541,
6.15625,-17.29725,-24.52997,-28.78552,-0.29333,1.01536,-0.08216,,,0.59916,0.79230,0.10479,-0.04779,
6.16406,-13.41761,-16.17434,-26.88762,-0.12289,1.09505,-0.13155,,,0.59991,0.79151,0.10562,-0.04966,
6.17188,-13.45225,-12.93876,-24.39223,-0.08262,1.05692,-0.13106,,,0.60064,0.79074,0.10646,-0.05126,
6.17969,-11.89346,-11.37430,-22.77549,-0.15482,1.02905,-0.13348,,,0.60129,0.79004,0.10726,-0.05272,
6.18750,-9.64188,-11.16097,-21.82654,-0.30365,0.96452,-0.12186,,,0.60181,0.78945,0.10801,-0.05415,
6.19531,-9.84972,-12.61876,-21.33449,-0.30414,0.92541,-0.16302,,,0.60235,0.78884,0.10868,-0.05563,
6.20313,-8.87980,-12.40542,-18.48764,-0.22408,0.88826,-0.18675,,,0.60285,0.78829,0.10920,-0.05699,
6.21094,-7.63278,-5.25870,-17.85500,-0.13272,0.88679,-0.20079,,,0.60323,0.78782,0.10997,-0.05795,
6.21875,-6.90534,-3.51646,-17.50354,-0.18282,0.88337,-0.19207,,,0.60356,0.78739,0.11079,-0.05880,
6.22656,-6.90534,-11.55208,-15.39476,-0.23881,0.89852,-0.14995,,,0.60396,0.78694,0.11117,-0.06001,
6.23438,-8.04845,-16.31657,-14.41066,-0.17742,0.90928,-0.16157,,,0.60445,0.78643,0.11131,-0.06141,
6.24219,-7.18246,-12.90321,-14.34037,-0.14352,0.91123,-0.17174,,,0.60487,0.78597,0.11157,-0.06264,
6.25000,-5.00016,-6.32537,-16.30857,-0.23243,0.95621,-0.10153,,,0.60512,0.78562,0.11221,-0.06362,
6.25781,-5.48511,-7.07205,-17.71442,-0.23881,0.95376,-0.09184,,,0.60539,0.78522,0.11289,-0.06468,
6.26563,-4.68840,-10.34318,-19.19057,-0.11405,0.95083,-0.13010,,,0.60564,0.78483,0.11351,-0.06599,
6.27344,-2.33290,-5.22314,-20.59642,-0.16317,1.00754,-0.10685,,,0.60571,0.78455,0.11440,-0.06710,
6.28125,-2.19434,-4.15647,-21.96713,-0.17054,1.02221,-0.15479,,,0.60576,0.78427,0.11542,-0.06822,
6.28906,-1.57083,-3.65869,-24.56796,-0.22752,1.02709,-0.07780,,,0.60576,0.78399,0.11659,-0.06941,
6.29688,-5.00016,-11.48097,-27.66084,-0.09048,1.00412,-0.15866,,,0.60598,0.78351,0.11761,-0.07113,
6.30469,-4.58448,-9.52540,-29.10184,-0.07574,0.99385,-0.14704,,,0.60616,0.78304,0.11880,-0.07280,
6.31250,-3.82241,-1.80978,-31.45664,-0.22113,0.96256,-0.13881,,,0.60622,0.78262,0.12042,-0.07417,
6.32031,-3.92633,1.49691,-33.14367,-0.26730,0.98016,-0.10201,,,0.60625,0.78219,0.12227,-0.07543,
6.32813,-5.13872,-2.48534,-32.75706,-0.13861,0.89852,-0.19304,,,0.60638,0.78169,0.12394,-0.07687,
6.33594,-3.26817,5.69250,-32.86250,-0.22408,0.94056,-0.16302,,,0.60633,0.78130,0.12594,-0.07790,
6.34375,-3.47601,4.76805,-31.80811,-0.21818,0.93470,-0.17997,,,0.60630,0.78091,0.12785,-0.07893,
6.35156,-2.54074,7.57696,-31.10518,-0.34884,0.95719,-0.08603,,,0.60621,0.78057,0.12983,-0.07979,
6.35938,-3.82241,0.99913,-29.03155,-0.23980,0.95181,-0.13155,,,0.60624,0.78016,0.13144,-0.08090,
6.36719,-2.99106,2.35025,-28.29347,-0.23636,0.96354,-0.12574,,,0.60622,0.77979,0.13306,-0.08192,
6.37500,-2.26362,3.48804,-27.94201,-0.33459,1.01145,-0.13106,,,0.60615,0.77947,0.13470,-0.08287,
6.38281,-3.19889,2.17247,-29.17213,-0.27123,1.04469,-0.10298,,,0.60614,0.77908,0.13636,-0.08393,
6.39063,-3.02569,-2.66312,-27.62569,-0.22702,1.01389,-0.11024,,,0.60617,0.77868,0.13773,-0.08518,
6.39844,-1.77867,-5.54315,-26.81732,-0.29382,1.04616,-0.10831,,,0.60616,0.77832,0.13894,-0.08657,
6.40625,-1.98650,-6.57427,-26.78218,-0.26042,1.06865,-0.08167,,,0.60617,0.77794,0.14010,-0.08800,
6.41406,-2.47146,-6.96538,-28.08259,-0.28400,1.08967,-0.03761,,,0.60619,0.77753,0.14131,-0.08951,
6.42188,-5.48511,-11.26764,-28.60979,-0.13468,1.04372,-0.10201,,,0.60642,0.77695,0.14240,-0.09123,
6.42969,-5.38119,-8.92095,-28.53950,-0.21082,1.02514,-0.12767,,,0.60661,0.77640,0.14357,-0.09283,
6.43750,-6.17791,-6.07648,-30.08594,-0.28744,1.05838,-0.13881,,,0.60681,0.77581,0.14495,-0.09434,
6.44531,-7.21710,-5.08092,-33.28425,-0.31544,1.11216,-0.05214,,,0.60702,0.77514,0.14655,-0.09591,
6.45313,-9.43404,-10.66319,-33.56542,-0.21229,1.06963,-0.12428,,,0.60741,0.77434,0.14794,-0.09777,
6.46094,-8.67197,-9.45429,-35.77964,-0.21573,1.09407,-0.17561,,,0.60772,0.77356,0.14950,-0.09966,
6.46875,-9.01836,-7.17871,-38.16960,-0.26583,1.11949,-0.09136,,,0.60801,0.77274,0.15127,-0.10153,
6.47656,-10.47323,-13.75655,-40.45411,-0.27762,1.12047,-0.09378,,,0.60842,0.77179,0.15291,-0.10382,
6.48438,-12.06666,-17.88102,-44.46079,-0.19952,1.12536,-0.10734,,,0.60892,0.77070,0.15459,-0.10648,
6.49219,-12.17058,-17.38324,-45.83150,-0.16857,1.12780,-0.13203,,,0.60941,0.76958,0.15636,-0.10917,
6.50000,-13.20977,-14.64544,-50.01392,-0.21867,1.14393,-0.12574,,,0.60988,0.76838,0.15847,-0.11187,
6.50781,-13.86792,-12.76098,-56.93775,-0.30168,1.17864,-0.07780,,,0.61031,0.76709,0.16103,-0.11476,
6.51563,-16.43126,-15.85434,-59.15197,-0.19805,1.15958,-0.13591,,,0.61088,0.76562,0.16359,-0.11787,
6.52344,-17.64365,-18.94770,-64.24819,-0.18920,1.15518,-0.13542,,,0.61148,0.76401,0.16629,-0.12133,
6.53125,-19.61811,-14.28988,-70.11763,-0.24471,1.18451,-0.12477,,,0.61208,0.76227,0.16951,-0.12477,
6.53906,-20.69194,-14.96544,-72.71846,-0.24618,1.15029,-0.17658,,,0.61270,0.76043,0.17284,-0.12834,
6.54688,-21.86969,-15.32100,-77.99041,-0.20689,1.15518,-0.15092,,,0.61333,0.75845,0.17643,-0.13214,
6.55469,-22.38929,-16.31657,-79.53685,-0.16661,1.16251,-0.14704,,,0.61395,0.75640,0.18005,-0.13603,
6.56250,-22.49321,-10.02318,-85.37115,-0.23390,1.19820,-0.15334,,,0.61443,0.75430,0.18424,-0.13984,
6.57031,-25.78398,-9.16984,-88.92093,-0.31544,1.26615,-0.10298,,,0.61502,0.75200,0.18867,-0.14371,
6.57813,-26.92709,-8.45873,-91.62720,-0.28646,1.32824,-0.07247,,,0.61560,0.74959,0.19327,-0.14764,
6.58594,-29.45579,-8.99206,-92.64644,-0.15335,1.26371,-0.17077,,,0.61627,0.74703,0.19792,-0.15159,
6.59375,-29.42115,-7.64094,-95.56359,-0.20296,1.24024,-0.10443,,,0.61687,0.74441,0.20277,-0.15559,
6.60156,-28.79763,-10.16541,-95.87991,-0.24372,1.20015,-0.11460,,,0.61744,0.74175,0.20750,-0.15974,
6.60938,-28.13948,-13.40099,-100.02718,-0.28449,1.21433,-0.02938,,,0.61795,0.73898,0.21230,-0.16422,
6.61719,-29.80219,-19.19659,-102.69830,-0.18724,1.25980,0.00113,,,0.61857,0.73600,0.21699,-0.16908,
6.62500,-30.28714,-18.66325,-105.01796,-0.19362,1.28375,-0.04245,,,0.61914,0.73294,0.22181,-0.17399,
6.63281,-31.36097,-11.48097,-110.07903,-0.18626,1.33801,-0.08264,,,0.61955,0.72979,0.22719,-0.17873,
6.64063,-31.15313,-7.56983,-113.17191,-0.22555,1.36490,-0.06715,,,0.61982,0.72661,0.23287,-0.18340,
6.64844,-31.74201,-14.78766,-117.42462,-0.15482,1.40499,-0.12574,,,0.62014,0.72319,0.23845,-0.18858,
6.65625,-31.56881,-26.48554,-121.18528,-0.15482,1.45143,-0.16254,,,0.62055,0.71952,0.24370,-0.19449,
6.66406,-31.36097,-30.96557,-123.89155,-0.18331,1.48614,-0.17900,,,0.62093,0.71569,0.24887,-0.20071,
6.67188,-31.81129,-33.95226,-129.83128,-0.19805,1.58489,-0.12283,,,0.62126,0.71165,0.25419,-0.20732,
6.67969,-33.75111,-41.45455,-132.71329,-0.12191,1.65969,-0.12090,,,0.62171,0.70730,0.25934,-0.21435,
6.68750,-35.41382,-47.71237,-132.92416,-0.08949,1.68120,-0.11944,,,0.62229,0.70272,0.26423,-0.22164,
6.69531,-37.70004,-56.56578,-133.62709,-0.04234,1.64600,-0.17029,,,0.62306,0.69782,0.26878,-0.22933,
6.70313,-38.49675,-59.09024,-134.64634,-0.05855,1.59614,-0.24340,,,0.62384,0.69276,0.27326,-0.23714,
6.71094,-37.94252,-56.56578,-141.78104,0.09372,1.48125,-0.23275,,,0.62436,0.68755,0.27815,-0.24512,
6.71875,-34.02823,-41.49010,-146.52580,0.24451,1.36979,-0.33637,,,0.62426,0.68260,0.28380,-0.25263,
6.72656,-31.94985,-22.39661,-147.05300,0.22388,1.35952,-0.33492,,,0.62361,0.67797,0.29022,-0.25930,
6.73438,-26.96173,18.56371,-144.80363,0.09764,1.33313,-0.23904,,,0.62190,0.67425,0.29816,-0.26405,
6.74219,-23.77488,50.74175,-141.88648,-0.11356,1.30819,-0.13736,,,0.61937,0.67124,0.30724,-0.26723,
6.75000,-24.74479,60.44849,-143.36263,-0.04136,1.18402,-0.20176,,,0.61659,0.66826,0.31679,-0.26998,
6.75781,-24.01735,82.81312,-134.68148,0.14775,1.04958,-0.15866,,,0.61339,0.66583,0.32682,-0.27133,
6.76563,-21.66185,99.66659,-132.81872,-0.30119,1.04029,0.08780,,,0.60965,0.66376,0.33740,-0.27186,
6.77344,-24.91799,92.34208,-127.05472,-0.40581,0.92981,-0.15576,,,0.60627,0.66148,0.34743,-0.27237,
6.78125,-27.58524,44.94615,-117.14345,-0.42104,0.83937,-0.00081,,,0.60425,0.65837,0.35506,-0.27452,
6.78906,-29.55971,14.33257,-107.79452,-0.30758,0.79830,-0.07780,,,0.60319,0.65479,0.36103,-0.27759,
6.79688,-15.53063,9.14142,-84.49249,-0.30905,0.77093,-0.44919,,,0.60205,0.65224,0.36547,-0.28027,
6.80469,-12.62089,10.27920,-52.75533,0.04656,0.80906,-0.34896,,,0.60134,0.65060,0.36847,-0.28166,
6.81250,-12.48233,10.24365,-37.74784,0.05246,0.67706,-0.40755,,,0.60091,0.64934,0.37081,-0.28243,
6.82031,0.92323,-11.19652,-16.87091,0.15217,0.60765,-0.24146,,,0.60083,0.64873,0.37107,-0.28364,
6.82813,-3.82241,-37.97007,5.90393,0.39235,0.57538,-0.09717,,,0.60207,0.64799,0.36933,-0.28498,
6.83594,-7.63278,-39.89009,17.81854,0.43705,0.51867,-0.09523,,,0.60376,0.64735,0.36705,-0.28581,
6.84375,-7.90989,-29.11667,41.15572,0.46063,0.38130,-0.17755,,,0.60564,0.64748,0.36418,-0.28520,
6.85156,2.72450,-12.86765,62.94646,0.42477,0.32655,-0.22452,,,0.60705,0.64890,0.36082,-0.28323,
6.85938,8.37077,-6.53871,73.42007,0.37909,0.35441,-0.22258,,,0.60825,0.65092,0.35713,-0.28069,
6.86719,13.39352,2.24358,94.99993,0.26465,0.35783,-0.23178,,,0.60941,0.65382,0.35274,-0.27696,
6.87500,15.61047,4.87472,104.59489,0.21062,0.37690,-0.22258,,,0.61055,0.65706,0.34798,-0.27277,
6.88281,19.76723,7.64807,122.94128,0.14283,0.43459,-0.18820,,,0.61175,0.66092,0.34241,-0.26777,
6.89063,22.67696,12.27033,138.82744,0.07898,0.50254,-0.12332,,,0.61295,0.66530,0.33623,-0.26194,
6.89844,22.01881,13.26589,148.52783,0.06474,0.51134,-0.11605,,,0.61427,0.66983,0.32964,-0.25562,
6.90625,22.19201,12.98145,169.12359,0.07849,0.51867,-0.14850,,,0.61587,0.67474,0.32205,-0.24842,
6.91406,26.90301,13.97701,187.64572,0.08979,0.58907,-0.14801,,,0.61745,0.68017,0.31352,-0.24047,
6.92188,27.63044,12.91034,197.48670,0.09322,0.59054,-0.18336,,,0.61907,0.68571,0.30442,-0.23213,
6.92969,33.10352,12.69700,212.98624,0.12859,0.64822,-0.21919,,,0.62057,0.69165,0.29445,-0.22320,
6.93750,35.77077,13.58590,218.89083,0.10747,0.68440,-0.18723,,,0.62187,0.69769,0.28412,-0.21399,
6.94531,38.40339,13.01700,233.08995,0.11238,0.68684,-0.21580,,,0.62311,0.70393,0.27299,-0.20421,
6.95313,46.78620,14.22590,245.53176,0.10943,0.78462,-0.23178,,,0.62392,0.71058,0.26112,-0.19393,
6.96094,49.59201,15.64813,251.78781,0.09126,0.81639,-0.24389,,,0.62448,0.71727,0.24889,-0.18332,
6.96875,54.33765,16.14592,262.71833,0.02299,0.89510,-0.26083,,,0.62472,0.72412,0.23601,-0.17223,
6.97656,59.15257,12.48367,273.36767,-0.04431,0.96012,-0.27342,,,0.62470,0.73106,0.22231,-0.16090,
6.98438,62.02767,9.24808,278.99109,-0.08360,0.99238,-0.26519,,,0.62441,0.73789,0.20808,-0.14946,
6.99219,65.63020,-2.44979,289.60529,-0.11995,1.11558,-0.25502,,,0.62397,0.74461,0.19269,-0.13816,
7.00000,68.85169,-16.52990,297.51322,-0.13763,1.23340,-0.24389,,,0.62335,0.75113,0.17620,-0.12722,
7.00781,70.99935,-22.89440,300.39522,-0.13026,1.29695,-0.23275,1021.947,25.4,0.62246,0.75739,0.15919,-0.11645,
7.01563,75.32931,-31.25002,304.89395,-0.09244,1.40303,-0.20709,,,0.62119,0.76347,0.14149,-0.10591,
7.02344,78.30833,-33.38337,306.40525,-0.07132,1.45290,-0.18626,,,0.61950,0.76932,0.12353,-0.09541,
7.03125,84.82059,-32.85003,307.21361,-0.03694,1.58929,-0.11605,,,0.61718,0.77509,0.10545,-0.08485,
7.03906,90.67470,-20.83216,305.35086,-0.10325,1.73106,-0.08071,,,0.61416,0.78080,0.08789,-0.07373,
7.04688,92.37205,-13.00987,302.85546,-0.17447,1.82150,-0.05795,,,0.61070,0.78623,0.07074,-0.06228,
7.05469,90.46686,-4.33425,296.31824,-0.32084,1.92368,-0.01631,,,0.60700,0.79123,0.05428,-0.05060,
7.06250,83.81604,3.70137,289.00780,-0.35031,1.90901,-0.02066,,,0.60334,0.79561,0.03855,-0.03874,
7.07031,79.65928,9.17697,284.50907,-0.41908,1.90852,-0.01243,,,0.59963,0.79949,0.02328,-0.02675,
7.07813,74.32476,19.87928,274.77353,-0.53843,1.90119,0.00645,,,0.59593,0.80285,0.00898,-0.01455,
7.08594,69.09417,28.80380,264.19448,-0.60130,1.88946,-0.04052,,,0.59229,0.80571,-0.00438,-0.00228,
7.09375,67.50074,36.02163,258.95767,-0.66761,1.88750,-0.03132,,,0.58854,0.80822,-0.01715,0.01017,
7.10156,64.79884,45.12393,246.44557,-0.87243,1.78924,-0.07586,,,0.58476,0.81037,-0.02887,0.02261,
7.10938,62.68582,42.63502,240.71671,-0.95446,1.72666,-0.14123,,,0.58093,0.81221,-0.04036,0.03467,
7.11719,58.80617,59.20404,215.13017,-0.98000,1.60445,-0.14801,,,0.57726,0.81371,-0.04978,0.04662,
7.12500,58.32122,71.39969,191.96872,-1.08364,1.49543,-0.11508,,,0.57360,0.81504,-0.05742,0.05833,
7.13281,59.42969,71.50636,181.74113,-1.13718,1.47441,-0.07828,,,0.56980,0.81629,-0.06448,0.06963,
7.14063,54.82261,61.58628,161.07508,-1.20300,1.47099,-0.02647,,,0.56621,0.81735,-0.07078,0.07954,
7.14844,43.80718,45.72838,140.90107,-1.18728,1.38152,-0.00565,,,0.56320,0.81807,-0.07662,0.08772,
7.15625,39.06154,39.75499,130.35716,-1.14209,1.32041,-0.05117,,,0.56043,0.81861,-0.08212,0.09514,
7.16406,35.49365,30.15492,108.95304,-1.12981,1.24855,-0.03664,,,0.55789,0.81914,-0.08681,0.10118,
7.17188,35.25118,26.99045,97.35474,-1.10967,1.25588,-0.03422,,,0.55540,0.81969,-0.09097,0.10658,
7.17969,31.78721,24.96377,74.96651,-1.11753,1.26371,0.00597,,,0.55323,0.82024,-0.09398,0.11101,
7.18750,26.34877,20.05706,52.50799,-1.13423,1.20553,0.02873,,,0.55148,0.82073,-0.09595,0.11427,
7.19531,23.71616,17.53259,40.31221,-1.12343,1.18451,0.02485,,,0.54996,0.82122,-0.09736,0.11691,
7.20313,17.96597,12.37700,16.83445,-1.12048,1.13660,0.02001,,,0.54890,0.82168,-0.09769,0.11835,
7.21094,13.49744,10.17254,-7.41654,-1.06399,1.14784,0.04277,,,0.54827,0.82215,-0.09678,0.11873,
7.21875,10.69163,10.67032,-19.26086,-1.04533,1.14100,0.03841,,,0.54790,0.82259,-0.09521,0.11867,
7.22656,4.49112,18.42149,-42.84406,-0.98344,1.14393,0.02776,,,0.54812,0.82288,-0.09208,0.11812,
7.23438,0.12652,31.36382,-63.54526,-0.96379,1.14296,0.05681,,,0.54882,0.82302,-0.08733,0.11750,
7.24219,-1.18979,34.52829,-72.96449,-0.92695,1.16495,-0.01582,,,0.54967,0.82312,-0.08195,0.11670,
7.25000,6.32702,32.46605,-81.50505,-0.53156,1.31455,-0.18626,,,0.55013,0.82354,-0.07610,0.11549,
7.25781,9.89491,35.41718,-82.77032,-0.64747,1.25833,-0.07054,,,0.55041,0.82405,-0.07005,0.11442,
7.26563,16.26862,46.72394,-105.72089,-0.31740,1.18207,-0.38528,,,0.55052,0.82477,-0.06222,0.11315,
7.27344,1.96242,23.57709,-84.87910,0.44933,1.22215,-0.27391,,,0.55116,0.82501,-0.05655,0.11130,
7.28125,-10.02291,6.01250,-73.38624,0.40856,1.05789,-0.26761,,,0.55230,0.82486,-0.05227,0.10884,
7.28906,-6.93998,-28.33444,-84.98454,0.82508,1.10580,-0.18820,,,0.55321,0.82509,-0.04861,0.10402,
7.29688,-17.05477,-3.51646,-81.22388,0.57409,1.09016,0.07763,,,0.55472,0.82473,-0.04430,0.10070,
7.30469,-12.86337,16.28814,-86.21466,0.43901,1.10580,0.08005,,,0.55608,0.82437,-0.03892,0.09832,
7.31250,-11.58170,48.64396,-94.64979,-0.27369,1.34290,0.14978,,,0.55748,0.82384,-0.03183,0.09743,
7.32031,-9.60724,39.71944,-94.47405,-0.27614,1.29255,-0.15576,,,0.55872,0.82339,-0.02508,0.09604,
7.32813,-0.67020,32.11049,-96.58284,-0.12044,1.36637,-0.22742,,,0.55944,0.82330,-0.01843,0.09416,
7.33594,6.77734,17.81704,-97.77781,-0.13910,1.39570,-0.30441,,,0.55970,0.82355,-0.01222,0.09144,
7.34375,6.36166,10.59921,-99.64057,-0.20590,1.36392,-0.29957,,,0.55996,0.82379,-0.00618,0.08823,
7.35156,-0.73947,-3.51646,-102.83889,-0.27320,1.31064,-0.27826,,,0.56060,0.82380,-0.00054,0.08410,
7.35938,-9.84972,-19.90771,-103.15520,-0.18773,1.20504,-0.27536,,,0.56173,0.82352,0.00444,0.07904,
7.36719,-10.92355,-26.44998,-103.01462,-0.13812,1.16887,-0.26519,,,0.56290,0.82319,0.00915,0.07361,
7.37500,-12.89801,-37.89896,-104.10415,-0.00698,1.09407,-0.20127,,,0.56415,0.82280,0.01347,0.06749,
7.38281,-13.83328,-34.09449,-102.97947,0.06719,0.94741,-0.21483,,,0.56542,0.82231,0.01787,0.06163,
7.39063,-12.55161,-28.83222,-101.36274,0.01857,0.86577,-0.23904,,,0.56657,0.82180,0.02239,0.05612,
7.39844,-5.45047,-20.72549,-100.30835,-0.09490,0.86039,-0.23808,,,0.56727,0.82149,0.02719,0.05109,
7.40625,-3.51065,-21.61439,-100.02718,-0.11012,0.92834,-0.19789,,,0.56785,0.82123,0.03194,0.04602,
7.41406,-6.10863,-25.70331,-96.79371,-0.11798,1.00656,-0.18578,,,0.56854,0.82084,0.03635,0.04084,
7.42188,-6.87070,-41.77455,-91.73264,-0.03645,1.02807,-0.17610,,,0.56927,0.82044,0.03984,0.03496,
7.42969,-6.28183,-47.28570,-89.13181,-0.04234,1.03443,-0.15285,,,0.56995,0.82005,0.04298,0.02888,
7.43750,-4.41128,-54.14798,-86.32010,-0.03203,1.08136,-0.06715,,,0.57051,0.81971,0.04569,0.02251,
7.44531,-4.82696,-48.74349,-81.39961,-0.04529,1.10287,-0.05165,,,0.57105,0.81932,0.04833,0.01663,
7.45313,-4.37664,-43.48123,-78.44732,-0.01434,1.10922,-0.04148,,,0.57151,0.81893,0.05102,0.01116,
7.46094,-2.26362,-38.36119,-71.80466,0.06670,1.04420,-0.08894,,,0.57182,0.81861,0.05353,0.00623,
7.46875,-2.12506,-25.41886,-70.11763,-0.02269,1.00510,-0.22791,,,0.57206,0.81827,0.05645,0.00209,
7.47656,-1.88258,-19.44548,-69.59044,-0.06788,1.02221,-0.18869,,,0.57224,0.81792,0.05957,-0.00170,
7.48438,-3.92633,-14.36099,-64.74024,-0.02662,0.97821,-0.21532,,,0.57250,0.81749,0.06262,-0.00501,
7.49219,-3.68385,-15.42767,-60.38209,-0.07721,0.94203,-0.25163,,,0.57275,0.81708,0.06538,-0.00822,
7.50000,-1.05123,-21.72105,-54.96955,-0.08065,1.00461,-0.23420,,,0.57287,0.81677,0.06760,-0.01157,
7.50781,-3.06033,-24.31663,-50.11936,-0.10423,1.03980,-0.20999,,,0.57311,0.81640,0.06944,-0.01486,
7.51563,-4.30736,-24.17441,-48.25660,-0.07279,1.04714,-0.21629,,,0.57341,0.81597,0.07119,-0.01807,
7.52344,-8.08309,-25.20553,-43.16038,-0.12879,0.99581,-0.25309,,,0.57393,0.81541,0.07261,-0.02113,
7.53125,-8.49877,-26.52109,-40.66499,-0.24029,0.98212,-0.26471,,,0.57447,0.81483,0.07385,-0.02415,
7.53906,-7.49422,-27.51666,-39.36457,-0.24520,1.02269,-0.21144,,,0.57496,0.81429,0.07497,-0.02718,
7.54688,-9.71116,-31.07224,-33.95203,-0.12339,0.98798,-0.21290,,,0.57559,0.81367,0.07565,-0.03019,
7.55469,-10.54251,-30.61001,-30.75372,-0.11897,0.96159,-0.24050,,,0.57627,0.81303,0.07618,-0.03304,
7.56250,-9.50332,-29.93445,-28.75037,-0.10227,0.97136,-0.26713,,,0.57688,0.81244,0.07662,-0.03578,
7.57031,-7.07854,-24.95664,-25.41147,-0.16907,0.99581,-0.20127,,,0.57734,0.81196,0.07706,-0.03812,
7.57813,-7.11318,-24.95664,-23.58386,-0.18233,0.96794,-0.21871,,,0.57781,0.81149,0.07740,-0.04039,
7.58594,-5.93543,-21.54327,-20.17466,-0.07132,0.93128,-0.21919,,,0.57819,0.81109,0.07768,-0.04235,
7.59375,-2.19434,-16.45879,-18.17132,-0.14058,0.95425,-0.21919,,,0.57835,0.81086,0.07805,-0.04396,
7.60156,-0.80875,-11.76542,-18.27676,-0.20050,0.99678,-0.19207,,,0.57840,0.81069,0.07860,-0.04533,
7.60938,-1.39763,-12.29876,-16.48430,-0.08999,0.96550,-0.20176,,,0.57849,0.81051,0.07902,-0.04665,
7.61719,0.43828,-11.69431,-15.21903,-0.13321,0.95328,-0.20854,,,0.57848,0.81041,0.07940,-0.04790,
7.62500,1.23499,-10.66319,-15.28932,-0.11946,0.97772,-0.17561,,,0.57842,0.81034,0.07982,-0.04910,
7.63281,1.40819,-9.95207,-14.44581,-0.14402,0.97136,-0.18626,,,0.57835,0.81028,0.08022,-0.05023,
7.64063,0.99251,-9.16984,-14.86756,-0.15679,0.97625,-0.18239,,,0.57830,0.81020,0.08068,-0.05133,
7.64844,0.36900,-10.27207,-13.77803,-0.08016,0.93568,-0.24292,,,0.57829,0.81010,0.08103,-0.05244,
7.65625,1.68530,-7.42761,-13.81317,-0.13223,0.97283,-0.19740,,,0.57818,0.81007,0.08150,-0.05340,
7.66406,0.78467,-7.96094,-13.49686,-0.17054,0.95963,-0.24001,,,0.57814,0.80999,0.08193,-0.05438,
7.67188,0.23044,-8.20983,-14.30522,-0.18527,0.98554,-0.16012,,,0.57812,0.80989,0.08239,-0.05540,
7.67969,-2.29826,-12.01431,-13.21569,-0.11258,0.94056,-0.20079,,,0.57826,0.80968,0.08266,-0.05657,
7.68750,-1.43227,-10.37874,-14.34037,-0.16612,0.98065,-0.18481,,,0.57834,0.80950,0.08304,-0.05770,
7.69531,-3.61457,-11.55208,-13.53200,-0.14451,0.96110,-0.21774,,,0.57856,0.80924,0.08335,-0.05885,
7.70313,-3.71849,-11.80097,-14.65669,-0.21966,1.00998,-0.16883,,,0.57877,0.80896,0.08371,-0.06005,
7.71094,-5.31192,-15.10767,-14.09435,-0.12093,0.98407,-0.19450,,,0.57909,0.80860,0.08391,-0.06141,
7.71875,-4.51520,-14.92989,-13.63744,-0.11651,0.96061,-0.19643,,,0.57937,0.80828,0.08409,-0.06275,
7.72656,-4.68840,-14.71655,-14.02405,-0.17692,0.96207,-0.20902,,,0.57965,0.80795,0.08430,-0.06409,
7.73438,-4.93088,-14.60989,-14.62154,-0.21475,0.98896,-0.17416,,,0.57994,0.80761,0.08455,-0.06544,
7.74219,-4.75768,-18.84103,-13.74288,-0.08164,0.97821,-0.16447,,,0.58025,0.80726,0.08458,-0.06699,
7.75000,-4.51520,-19.58770,-13.39142,-0.10276,0.97430,-0.22161,,,0.58055,0.80691,0.08457,-0.06857,
7.75781,-2.19434,-16.35212,-14.02405,-0.16268,0.99238,-0.22549,,,0.58070,0.80666,0.08470,-0.07002,
7.76563,-0.87803,-15.64101,-15.81652,-0.22801,1.02954,-0.08506,,,0.58077,0.80646,0.08495,-0.07150,
7.77344,-1.50155,-20.86771,-16.27342,-0.12142,1.00265,-0.12864,,,0.58089,0.80620,0.08503,-0.07328,
7.78125,0.26508,-20.83216,-18.94454,-0.06641,1.00216,-0.13397,,,0.58090,0.80600,0.08524,-0.07518,
7.78906,0.29972,-15.24989,-23.72445,-0.19854,1.01487,-0.16496,,,0.58085,0.80579,0.08594,-0.07695,
7.79688,-0.01204,-13.54321,-27.37967,-0.16170,1.05594,-0.10734,,,0.58079,0.80556,0.08691,-0.07878,
7.80469,-2.67930,-14.39655,-33.38969,0.07309,1.00265,-0.13591,,,0.58084,0.80517,0.08818,-0.08088,
7.81250,-3.54529,-12.15653,-37.71269,0.09175,0.99630,-0.20273,,,0.58090,0.80474,0.08979,-0.08301,
7.82031,-5.03480,-4.93870,-49.41643,-0.01631,1.03052,-0.16835,,,0.58093,0.80420,0.09233,-0.08521,
7.82813,-9.50332,-2.09423,-60.17121,0.01120,1.06865,-0.13687,,,0.58111,0.80343,0.09560,-0.08765,
7.83594,-12.03202,-2.34312,-65.30258,0.04902,1.08576,-0.15237,,,0.58139,0.80250,0.09916,-0.09028,
7.84375,-19.54883,-8.42317,-70.39880,0.03625,1.06914,-0.25018,,,0.58207,0.80119,0.10279,-0.09340,
7.85156,-18.95996,12.16366,-83.05149,-0.04922,1.04567,-0.26277,,,0.58249,0.79992,0.10793,-0.09589,
7.85938,-16.77766,19.06150,-87.40964,-0.14844,1.11558,-0.16738,,,0.58268,0.79872,0.11356,-0.09820,
7.86719,-19.99915,18.13704,-91.27574,-0.19510,1.16056,-0.14123,,,0.58301,0.79732,0.11938,-0.10068,
7.87500,-21.59258,10.70587,-91.31088,-0.17692,1.17033,-0.15770,,,0.58345,0.79577,0.12491,-0.10355,
7.88281,-24.12127,3.38137,-92.54100,-0.20640,1.18011,-0.18239,,,0.58407,0.79403,0.13023,-0.10683,
7.89063,-27.10029,-0.35199,-94.50920,-0.23636,1.20162,-0.17997,,,0.58484,0.79209,0.13553,-0.11037,
7.89844,-28.31268,-3.01868,-96.33681,-0.18478,1.20260,-0.20079,,,0.58566,0.79003,0.14082,-0.11411,
7.90625,-30.63354,-7.46316,-98.44559,-0.16759,1.22362,-0.25599,,,0.58660,0.78779,0.14606,-0.11814,
7.91406,-34.27071,-7.67650,-102.76859,-0.21082,1.23193,-0.27052,,,0.58768,0.78531,0.15154,-0.12232,
7.92188,-34.54782,-7.99650,-105.93177,-0.27467,1.25344,-0.28746,,,0.58871,0.78274,0.15717,-0.12663,
7.92969,-37.31900,-9.70318,-110.39535,-0.19117,1.30379,-0.27245,,,0.58983,0.77995,0.16299,-0.13117,
7.93750,-39.63986,-14.71655,-111.87150,-0.18675,1.30624,-0.29763,,,0.59109,0.77696,0.16870,-0.13601,
7.94531,-39.53594,-14.21877,-115.35099,-0.26485,1.33361,-0.23662,,,0.59225,0.77388,0.17459,-0.14095,
7.95313,-39.15490,-17.48991,-120.44721,-0.27860,1.37321,-0.24195,,,0.59335,0.77067,0.18061,-0.14626,
7.96094,-40.05554,-18.94770,-122.52084,-0.24471,1.38690,-0.20757,,,0.59444,0.76732,0.18667,-0.15171,
7.96875,-40.92153,-26.30776,-125.82460,-0.12339,1.37077,-0.21290,,,0.59559,0.76375,0.19260,-0.15766,
7.97656,-41.09473,-24.67219,-133.13504,-0.03154,1.46756,-0.19740,,,0.59660,0.76004,0.19896,-0.16379,
7.98438,-42.99991,-24.45885,-138.54758,0.07800,1.44948,-0.34799,,,0.59758,0.75610,0.20561,-0.17010,
7.99219,-40.78297,-24.84997,-142.44883,-0.03546,1.56974,-0.20273,,,0.59835,0.75211,0.21240,-0.17660,
8.00000,-41.89144,-34.34338,-150.28646,0.01267,1.66849,-0.16835,,,0.59916,0.74777,0.21919,-0.18387,
8.00781,-42.51496,-34.80560,-155.73415,0.07849,1.72520,-0.16302,1021.970,25.5,0.59986,0.74322,0.22622,-0.19135,
8.01563,-43.27703,-32.38781,-162.41195,0.10157,1.85621,-0.21483,,,0.60039,0.73848,0.23367,-0.19895,
8.02344,-45.28613,-32.42336,-167.89478,0.07947,2.01461,-0.17852,,,0.60087,0.73346,0.24138,-0.20671,
8.03125,-46.91420,-41.49010,-167.68391,0.12269,2.11727,-0.15431,,,0.60150,0.72814,0.24870,-0.21486,
8.03906,-52.14479,-67.76587,-167.47303,-0.01385,2.38712,-0.19789,,,0.60273,0.72211,0.25497,-0.22418,
8.04688,-56.89043,-77.15261,-168.73830,0.06081,2.39544,-0.36397,,,0.60425,0.71560,0.26095,-0.23389,
8.05469,-52.56047,-80.99264,-171.90147,0.09617,1.92661,-0.41239,,,0.60546,0.70903,0.26681,-0.24396,
8.06250,-39.18954,-81.09931,-181.81274,0.35011,1.61227,-0.44677,,,0.60575,0.70269,0.27287,-0.25464,
8.07031,-35.34454,-66.13030,-184.16755,0.34569,1.63231,-0.38382,,,0.60542,0.69660,0.27954,-0.26472,
8.07813,-34.16679,-34.77005,-178.75501,0.26415,1.58489,-0.44871,,,0.60443,0.69110,0.28718,-0.27307,
8.08594,-31.01457,-6.82316,-167.92993,0.23518,1.47979,-0.33637,,,0.60286,0.68637,0.29536,-0.27968,
8.09375,-30.49498,7.29251,-162.72827,0.21209,1.41868,-0.25115,,,0.60100,0.68193,0.30383,-0.28538,
8.10156,-32.46944,24.89265,-149.40780,0.21553,1.21189,-0.31845,,,0.59906,0.67796,0.31241,-0.28965,
8.10938,-32.46944,32.85716,-142.41368,0.20227,1.08478,-0.28601,,,0.59702,0.67422,0.32096,-0.29324,
8.11719,-31.22241,41.17723,-134.36516,0.13989,0.89363,-0.21871,,,0.59484,0.67080,0.32941,-0.29611,
8.12500,-26.71925,37.79942,-125.64887,-0.20983,0.82715,0.20595,,,0.59265,0.66763,0.33721,-0.29886,
8.13281,-27.86236,21.37263,-118.97106,-0.25748,0.68831,-0.05311,,,0.59099,0.66418,0.34405,-0.30204,
8.14063,-14.28360,35.27496,-96.89915,-0.56103,0.58858,-0.27730,,,0.58880,0.66204,0.35014,-0.30401,
8.14844,-19.92987,-7.35649,-64.38878,-0.12928,0.75040,-0.18045,,,0.58853,0.65955,0.35316,-0.30644,
8.15625,-26.71925,-20.51216,-48.39719,-0.05609,0.70493,-0.16932,,,0.58921,0.65688,0.35506,-0.30866,
8.16406,-24.67551,-38.85897,-26.46586,0.22240,0.49716,-0.22258,,,0.59070,0.65443,0.35520,-0.31086,
8.17188,-14.73391,-54.29020,-6.53788,0.46505,0.39401,-0.13010,,,0.59253,0.65252,0.35361,-0.31318,
8.17969,-12.93265,-53.97020,4.56837,0.52301,0.33975,-0.09911,,,0.59450,0.65096,0.35150,-0.31508,
8.18750,-10.47323,-39.03675,27.27291,0.52644,0.20237,-0.10927,,,0.59648,0.65035,0.34893,-0.31545,
8.19531,-7.80597,-29.75667,39.01179,0.49403,0.14958,-0.12719,,,0.59837,0.65031,0.34616,-0.31499,
8.20313,-0.35844,-12.15653,61.01341,0.47684,0.10656,-0.15285,,,0.59998,0.65148,0.34296,-0.31303,
8.21094,7.57405,6.75917,80.76566,0.41495,0.13784,-0.19207,,,0.60120,0.65381,0.33948,-0.30959,
8.21875,10.89947,17.21259,89.97401,0.36534,0.17158,-0.18965,,,0.60220,0.65669,0.33594,-0.30538,
8.22656,15.40263,35.16829,108.28526,0.25384,0.25126,-0.17222,,,0.60294,0.66052,0.33220,-0.29970,
8.23438,18.13916,47.61284,127.26429,0.15855,0.31775,-0.14946,,,0.60362,0.66509,0.32804,-0.29272,
8.24219,19.14371,50.24397,136.15631,0.13055,0.36175,-0.13397,,,0.60432,0.66989,0.32353,-0.28525,
8.25000,18.93588,52.87510,154.85417,0.09224,0.42921,-0.12525,,,0.60526,0.67508,0.31825,-0.27686,
8.25781,18.13916,51.95065,174.00893,0.05000,0.48298,-0.13687,,,0.60654,0.68053,0.31202,-0.26765,
8.26563,18.52020,49.60396,183.04155,0.04263,0.49814,-0.15285,,,0.60791,0.68604,0.30521,-0.25815,
8.27344,20.97962,43.06169,201.84485,0.06130,0.55338,-0.20079,,,0.60952,0.69180,0.29715,-0.24818,
8.28125,23.12728,41.46168,210.52600,0.07898,0.59347,-0.21193,,,0.61109,0.69765,0.28852,-0.23792,
8.28906,26.27949,39.00832,227.18537,0.10649,0.64382,-0.23517,,,0.61268,0.70376,0.27888,-0.22708,
8.29688,30.92121,39.25721,241.06818,0.11140,0.71373,-0.24195,,,0.61410,0.71015,0.26843,-0.21568,
8.30469,33.31135,39.07943,247.71084,0.11680,0.74355,-0.23323,,,0.61532,0.71655,0.25754,-0.20400,
8.31250,38.47267,39.22166,260.08235,0.10845,0.81053,-0.26035,,,0.61627,0.72316,0.24590,-0.19181,
8.32031,46.33588,40.50167,271.11831,0.08389,0.90977,-0.28601,,,0.61674,0.73005,0.23359,-0.17916,
8.32813,49.90377,41.85279,276.74172,0.04754,0.97087,-0.29328,,,0.61685,0.73693,0.22092,-0.16620,
8.33594,54.37229,38.26165,288.55090,-0.03203,1.08527,-0.29570,,,0.61669,0.74384,0.20737,-0.15293,
8.34375,55.03045,32.75049,293.99858,-0.06690,1.13758,-0.30199,,,0.61637,0.75050,0.19322,-0.13965,
8.35156,56.65851,19.13261,304.19103,-0.12879,1.23291,-0.28795,,,0.61598,0.75690,0.17788,-0.12661,
8.35938,59.42969,2.81248,312.66130,-0.10423,1.32188,-0.29715,,,0.61543,0.76303,0.16131,-0.11402,
8.36719,61.78519,-1.66756,316.45710,-0.09146,1.36246,-0.29763,,,0.61455,0.76891,0.14426,-0.10148,
8.37500,67.22362,-7.96094,324.75164,-0.07378,1.47979,-0.29231,,,0.61319,0.77467,0.12640,-0.08893,
8.38281,72.17710,-12.44098,330.97255,0.00186,1.60885,-0.29231,,,0.61133,0.78025,0.10793,-0.07635,
8.39063,74.67116,-10.94763,332.51899,-0.08311,1.67093,-0.27100,,,0.60901,0.78554,0.08938,-0.06360,
8.39844,81.66838,-14.46766,333.08133,-0.07427,1.79071,-0.25309,,,0.60600,0.79068,0.07056,-0.05103,
8.40625,87.48785,-21.32994,333.64367,-0.05953,1.86941,-0.27342,,,0.60239,0.79560,0.05138,-0.03880,
8.41406,92.16421,-17.06324,331.99179,-0.01876,1.88750,-0.31845,,,0.59816,0.80028,0.03241,-0.02641,
8.42188,103.97635,-1.02755,330.76167,-0.09784,2.03416,-0.37075,,,0.59292,0.80503,0.01413,-0.01320,
8.42969,108.34095,9.56809,329.84786,-0.17005,2.11434,-0.35380,,,0.58710,0.80950,-0.00368,0.00055,
8.43750,106.95536,22.36819,325.48972,-0.49226,2.23460,-0.28262,,,0.58104,0.81348,-0.02073,0.01483,
8.44531,97.29088,26.67045,317.54664,-0.70347,2.09967,-0.22258,,,0.57521,0.81664,-0.03718,0.02901,
8.45313,99.09215,26.52822,312.34498,-0.75357,2.11483,-0.17658,,,0.56901,0.81948,-0.05331,0.04297,
8.46094,101.51693,19.73706,294.45549,-0.74866,2.08256,-0.11412,,,0.56242,0.82210,-0.06868,0.05585,
8.46875,100.06206,24.39487,271.68065,-0.80711,2.18962,-0.03180,,,0.55579,0.82441,-0.08256,0.06808,
8.47656,93.03020,38.29721,260.50411,-0.93088,2.17984,0.00064,,,0.54948,0.82613,-0.09530,0.08060,
8.48438,70.61831,67.55966,231.96527,-1.05417,2.01167,0.04325,,,0.54459,0.82678,-0.10542,0.09353,
8.49219,51.15080,72.53748,203.67246,-1.20889,1.76235,0.00403,,,0.54087,0.82665,-0.11386,0.10552,
8.50000,48.65674,75.20417,189.78965,-1.31400,1.68169,0.00016,,,0.53730,0.82635,-0.12141,0.11711,
8.50781,43.80718,85.05314,163.35959,-1.66962,1.59174,0.07521,,,0.53420,0.82585,-0.12713,0.12822,
8.51563,38.74979,81.53311,147.43829,-1.83023,1.52085,0.08151,,,0.53140,0.82522,-0.13210,0.13849,
8.52344,32.68784,61.12406,107.05513,-2.14754,1.30575,0.00258,,,0.52909,0.82483,-0.13558,0.14608,
8.53125,26.86837,31.57715,57.95568,-2.21286,1.17278,-0.01582,,,0.52729,0.82494,-0.13742,0.15017,
8.53906,22.29593,17.74593,31.17416,-2.04586,1.16740,-0.00275,,,0.52589,0.82527,-0.13829,0.15248,
8.54688,14.22488,1.42580,-18.03074,-1.70744,1.17229,0.05778,,,0.52530,0.82593,-0.13707,0.15203,
8.55469,8.40541,-6.75204,-58.37875,-1.43631,1.25442,0.13186,,,0.52537,0.82684,-0.13392,0.14963,
8.56250,3.55585,-6.75204,-75.24900,-1.29829,1.29304,0.14736,,,0.52587,0.82771,-0.12988,0.14657,
8.57031,-8.25629,4.02137,-103.89328,-1.10231,1.33557,0.18513,,,0.52741,0.82827,-0.12394,0.14298,
8.57813,-18.33644,21.79930,-126.84384,-1.07431,1.33313,0.23694,,,0.52985,0.82844,-0.11616,0.13948,
8.58594,-22.66641,30.08381,-137.73921,-1.01684,1.36246,0.24808,,,0.53266,0.82838,-0.10750,0.13601,
8.59375,-28.20876,44.94615,-155.45298,-0.94562,1.34632,0.23306,,,0.53600,0.82803,-0.09733,0.13268,
8.60156,-28.90155,48.53729,-162.58769,-0.89945,1.33655,0.20595,,,0.53939,0.82755,-0.08663,0.12927,
8.60938,-12.93265,37.79942,-159.56510,0.62959,1.68951,-0.66660,,,0.54172,0.82763,-0.07634,0.12545,
8.61719,2.30882,15.86147,-95.14183,2.46857,1.24220,-0.80364,,,0.54247,0.82806,-0.07038,0.12285,
8.62500,-4.13417,-44.51235,-51.13860,3.83257,0.94154,-0.95665,,,0.54290,0.82852,-0.06919,0.11846,
8.63281,3.65977,-35.33894,-44.35535,1.90617,0.06402,-0.53780,,,0.54288,0.82914,-0.06797,0.11485,
8.64063,48.86458,0.21690,-90.85398,0.47291,0.80955,0.08005,,,0.54082,0.83135,-0.06245,0.11172,
8.64844,28.77355,48.35951,-92.85732,-0.13861,1.43432,0.39528,,,0.54009,0.83241,-0.05518,0.11116,
8.65625,-27.72380,100.09326,-94.40376,-0.91566,1.23291,-0.07199,,,0.54274,0.83094,-0.04634,0.11324,
8.66406,-14.69927,139.52468,-107.23218,-0.49619,1.34975,-0.05068,,,0.54480,0.82960,-0.03520,0.11712,
8.67188,12.18113,51.38175,-81.22388,-0.41760,1.31504,-0.25018,,,0.54488,0.82982,-0.02860,0.11703,
8.67969,7.88581,-3.97869,-80.97785,0.00039,1.47832,-0.09959,,,0.54507,0.83028,-0.02410,0.11381,
8.68750,2.58594,-16.99213,-83.19207,0.03281,1.38103,-0.01098,,,0.54553,0.83063,-0.02000,0.10976,
8.69531,2.89769,-47.03681,-84.91425,-0.00796,1.18647,-0.16883,,,0.54593,0.83119,-0.01692,0.10393,
8.70313,9.82563,-50.48573,-86.24981,-0.04627,1.21922,-0.25986,,,0.54592,0.83199,-0.01384,0.09787,
8.71094,8.95964,-41.63232,-86.81215,-0.02515,1.32090,-0.18481,,,0.54594,0.83266,-0.01040,0.09228,
8.71875,-3.54529,-32.81448,-84.28161,0.08094,1.32041,-0.16399,,,0.54664,0.83278,-0.00686,0.08728,
8.72656,-7.73669,-32.06780,-82.45400,0.02839,1.13562,-0.14269,,,0.54755,0.83270,-0.00342,0.08238,
8.73438,-5.41583,-37.68563,-80.45066,0.02937,1.09016,-0.13203,,,0.54829,0.83271,-0.00029,0.07723,
8.74219,-1.46691,-34.62782,-79.67744,0.05540,0.98261,-0.15866,,,0.54879,0.83283,0.00293,0.07229,
8.75000,2.79378,-23.24995,-80.66154,0.09028,0.89412,-0.30054,,,0.54902,0.83302,0.00666,0.06795,
8.75781,20.11363,13.76368,-82.03225,0.18507,0.88288,-0.54265,,,0.54824,0.83365,0.01192,0.06565,
8.76563,28.87747,31.11493,-78.41217,0.05246,1.00705,-0.49955,,,0.54691,0.83452,0.01767,0.06446,
8.77344,26.79909,29.26602,-77.18205,-0.05855,1.08478,-0.37995,,,0.54569,0.83528,0.02327,0.06321,
8.78125,9.20212,7.29251,-72.61302,-0.25502,1.11167,-0.16544,,,0.54546,0.83546,0.02772,0.06091,
8.78906,2.51666,-12.54765,-69.02809,-0.17201,1.02465,-0.19401,,,0.54562,0.83547,0.03120,0.05762,
8.79688,1.54675,-22.43217,-65.19714,-0.12928,1.04567,-0.23517,,,0.54583,0.83546,0.03408,0.05391,
8.80469,-3.57993,-33.49004,-56.86746,-0.03989,1.04127,-0.32765,,,0.54632,0.83531,0.03606,0.04990,
8.81250,-5.20800,-34.45004,-56.69172,-0.06101,1.05300,-0.35187,,,0.54689,0.83509,0.03799,0.04583,
8.82031,-9.74580,-40.53009,-55.91850,-0.08311,1.08625,-0.32088,,,0.54772,0.83469,0.03963,0.04146,
8.82813,-17.92077,-51.16129,-52.29843,0.01513,1.03736,-0.31749,,,0.54902,0.83402,0.04065,0.03665,
8.83594,-19.54883,-53.82798,-50.68170,0.06130,1.01243,-0.29667,,,0.55040,0.83327,0.04146,0.03174,
8.84375,-19.72203,-55.07243,-48.92438,0.03527,1.00167,-0.28698,,,0.55177,0.83250,0.04213,0.02684,
8.85156,-17.67829,-46.50347,-47.94028,0.05933,1.05936,-0.19159,,,0.55299,0.83177,0.04307,0.02244,
8.85938,-18.16324,-40.99232,-46.35870,0.09912,1.05349,-0.15479,,,0.55421,0.83100,0.04413,0.01843,
8.86719,-15.87702,-33.34781,-42.42231,0.05246,0.99678,-0.14607,,,0.55526,0.83031,0.04525,0.01498,
8.87500,-9.98828,-25.70331,-41.08674,-0.01582,1.02758,-0.14559,,,0.55595,0.82982,0.04659,0.01200,
8.88281,-9.29548,-20.79660,-40.48926,-0.03154,1.03638,-0.14269,,,0.55657,0.82935,0.04809,0.00932,
8.89063,-9.12228,-15.53434,-36.23655,0.01464,0.98016,-0.17029,,,0.55716,0.82889,0.04954,0.00710,
8.89844,-7.97917,-14.64544,-33.67086,0.00186,0.93030,-0.19740,,,0.55768,0.82848,0.05088,0.00502,
8.90625,-3.71849,-12.08542,-31.31606,-0.01876,0.93079,-0.21968,,,0.55794,0.82823,0.05219,0.00316,
8.91406,-0.87803,-8.45873,-29.34786,-0.09637,0.94936,-0.19062,,,0.55803,0.82809,0.05352,0.00157,
8.92188,-0.32380,-10.87652,-27.87172,-0.06739,0.95034,-0.21386,,,0.55809,0.82798,0.05468,-0.00011,
8.92969,-0.77411,-15.56989,-22.07257,-0.01041,0.91319,-0.21677,,,0.55819,0.82786,0.05534,-0.00182,
8.93750,2.34346,-19.05437,-20.98303,-0.08753,0.92590,-0.24050,,,0.55813,0.82787,0.05580,-0.00370,
8.94531,3.45193,-18.69881,-21.12362,-0.10521,0.97674,-0.18820,,,0.55800,0.82791,0.05627,-0.00558,
8.95313,2.34346,-23.03662,-19.92864,-0.02368,0.95865,-0.21822,,,0.55795,0.82791,0.05652,-0.00764,
8.96094,3.52121,-26.55665,-18.80396,-0.02761,0.95523,-0.23178,,,0.55784,0.82796,0.05657,-0.00987,
8.96875,3.72905,-28.22777,-19.22571,0.01316,0.96354,-0.23565,,,0.55773,0.82800,0.05658,-0.01221,
8.97656,4.21400,-26.20109,-20.13952,-0.02319,0.96647,-0.19159,,,0.55758,0.82806,0.05672,-0.01447,
8.98438,4.83752,-24.70774,-20.91274,0.01021,0.98798,-0.18530,,,0.55738,0.82814,0.05695,-0.01668,
8.99219,5.35711,-21.32994,-20.17466,0.08831,0.95670,-0.21822,,,0.55714,0.82823,0.05727,-0.01867,
9.00000,7.36622,-12.08542,-23.26754,0.03035,0.97723,-0.21338,,,0.55674,0.82841,0.05812,-0.02026,
9.00781,8.89036,-6.43204,-24.81398,-0.02122,0.98505,-0.20176,1021.962,25.5,0.55623,0.82863,0.05926,-0.02160,
9.01563,9.82563,-1.20533,-25.86837,0.03723,0.97870,-0.20370,,,0.55564,0.82890,0.06066,-0.02269,
9.02344,12.04258,0.64357,-24.63825,0.01709,0.94936,-0.20370,,,0.55492,0.82925,0.06206,-0.02363,
9.03125,13.60136,-0.88533,-24.81398,-0.01631,0.97625,-0.18675,,,0.55411,0.82966,0.06341,-0.02468,
9.03906,14.53663,-4.40536,-24.81398,-0.11995,1.04323,-0.11896,,,0.55327,0.83009,0.06462,-0.02593,
9.04688,13.22033,-7.32094,-24.25164,-0.09490,1.07207,-0.11605,,,0.55251,0.83046,0.06569,-0.02732,
9.05469,10.93411,-11.58764,-21.22905,0.01169,1.01976,-0.19014,,,0.55191,0.83075,0.06643,-0.02882,
9.06250,11.38442,-11.65875,-21.61566,-0.06297,1.04812,-0.24292,,,0.55128,0.83106,0.06720,-0.03034,
9.07031,9.51388,-10.55652,-21.61566,-0.11602,1.04958,-0.25357,,,0.55074,0.83129,0.06800,-0.03180,
9.07813,4.35256,-8.92095,-19.19057,-0.04774,0.99141,-0.32378,,,0.55049,0.83135,0.06875,-0.03304,
9.08594,2.65522,-7.96094,-17.96044,-0.04873,0.97381,-0.36203,,,0.55034,0.83134,0.06946,-0.03418,
9.09375,0.92323,-9.88096,-17.50354,-0.10472,0.97772,-0.38092,,,0.55029,0.83127,0.07008,-0.03540,
9.10156,-3.40673,-16.31657,-17.25752,-0.22260,0.99190,-0.30441,,,0.55052,0.83102,0.07045,-0.03696,
9.10938,-7.00926,-25.38331,-17.39810,-0.05020,0.96207,-0.30635,,,0.55100,0.83061,0.07050,-0.03901,
9.11719,-7.07854,-28.04999,-18.34705,-0.01385,0.94154,-0.32862,,,0.55148,0.83018,0.07051,-0.04126,
9.12500,-8.36021,-33.56115,-25.13030,-0.01434,0.93372,-0.34460,,,0.55205,0.82964,0.07069,-0.04406,
9.13281,-8.04845,-29.33000,-29.66418,-0.03055,0.91074,-0.30683,,,0.55255,0.82911,0.07129,-0.04679,
9.14063,-7.42494,-23.49885,-40.94616,0.22486,0.95963,-0.21629,,,0.55295,0.82855,0.07274,-0.04962,
9.14844,-7.66741,-13.57877,-54.86411,0.26808,0.98554,-0.26422,,,0.55327,0.82793,0.07535,-0.05242,
9.15625,-8.22165,-7.78316,-63.93187,0.27054,0.99385,-0.26955,,,0.55354,0.82726,0.07869,-0.05522,
9.16406,-9.57260,7.68363,-77.92012,0.17623,0.93714,-0.31216,,,0.55374,0.82650,0.08340,-0.05767,
9.17188,-7.39030,25.07043,-91.06486,0.05589,0.98407,-0.23130,,,0.55364,0.82578,0.08951,-0.05965,
9.17969,-6.97462,27.55934,-94.22803,0.07112,1.01194,-0.25066,,,0.55347,0.82503,0.09588,-0.06161,
9.18750,-6.00471,26.56378,-98.37530,-0.06543,1.03149,-0.36542,,,0.55321,0.82426,0.10243,-0.06379,
9.19531,-5.83151,23.25708,-103.71754,-0.25944,1.16056,-0.19256,,,0.55291,0.82339,0.10916,-0.06635,
9.20313,-8.46413,18.31482,-103.33093,-0.24471,1.19966,-0.13203,,,0.55277,0.82236,0.11569,-0.06915,
9.21094,-12.86337,6.11917,-102.45228,-0.20148,1.13953,-0.14269,,,0.55295,0.82107,0.12172,-0.07257,
9.21875,-14.66463,1.78136,-103.54181,-0.18036,1.08625,-0.21144,,,0.55323,0.81965,0.12765,-0.07624,
9.22656,-17.05477,0.18134,-102.76859,-0.21327,1.02416,-0.29134,,,0.55364,0.81809,0.13348,-0.07996,
9.23438,-20.62266,-1.16978,-105.43972,-0.18380,1.07647,-0.25066,,,0.55421,0.81632,0.13943,-0.08381,
9.24219,-23.04744,-3.51646,-104.84223,-0.11405,1.10042,-0.22403,,,0.55492,0.81441,0.14526,-0.08775,
9.25000,-27.72380,-4.47647,-106.35352,-0.16612,1.15811,-0.20757,,,0.55585,0.81226,0.15115,-0.09174,
9.25781,-31.91521,-8.10317,-108.91921,-0.32379,1.20846,-0.22936,,,0.55701,0.80985,0.15707,-0.09598,
9.26563,-33.33543,-11.65875,-109.05979,-0.25748,1.25442,-0.15043,,,0.55824,0.80732,0.16286,-0.10041,
9.27344,-37.07652,-23.56996,-108.60289,-0.21867,1.22117,-0.17416,,,0.55979,0.80451,0.16819,-0.10542,
9.28125,-38.56603,-29.04556,-108.77862,-0.24913,1.21042,-0.19643,,,0.56144,0.80156,0.17331,-0.11072,
9.28906,-41.19865,-29.93445,-110.00874,-0.24225,1.22362,-0.17755,,,0.56320,0.79842,0.17848,-0.11607,
9.29688,-45.66717,-37.89896,-111.97694,-0.30905,1.25148,-0.15915,,,0.56524,0.79498,0.18348,-0.12187,
9.30469,-48.33443,-41.24121,-113.59367,-0.21917,1.26175,-0.26810,,,0.56741,0.79132,0.18843,-0.12787,
9.31250,-49.99713,-47.03681,-116.01877,-0.23145,1.29157,-0.26568,,,0.56968,0.78745,0.19330,-0.13425,
9.32031,-52.62975,-43.12567,-121.74762,-0.19461,1.29842,-0.42304,,,0.57193,0.78337,0.19863,-0.14059,
9.32813,-49.82393,-36.61895,-125.68402,-0.22015,1.37663,-0.26519,,,0.57386,0.77934,0.20438,-0.14676,
9.33594,-49.40826,-41.20565,-128.98777,-0.06985,1.39130,-0.33976,,,0.57574,0.77516,0.21010,-0.15329,
9.34375,-47.60699,-51.44574,-128.49572,-0.19362,1.49152,-0.28020,,,0.57763,0.77088,0.21536,-0.16036,
9.35156,-48.40371,-57.66801,-130.00702,-0.17987,1.54725,-0.23614,,,0.57957,0.76639,0.22043,-0.16778,
9.35938,-50.17033,-66.94808,-134.85721,-0.13714,1.67876,-0.18578,,,0.58162,0.76157,0.22539,-0.17584,
9.36719,-52.14479,-67.97920,-137.87980,-0.05118,1.73986,-0.23178,,,0.58369,0.75653,0.23045,-0.18402,
9.37500,-53.80750,-70.50367,-140.44548,0.09470,1.83030,-0.27584,,,0.58578,0.75125,0.23554,-0.19238,
9.38281,-54.60421,-65.81030,-147.26388,0.07505,1.97550,-0.26229,,,0.58767,0.74579,0.24115,-0.20073,
9.39063,-55.78196,-63.92584,-151.37600,0.09666,2.06643,-0.30538,,,0.58945,0.74014,0.24702,-0.20910,
9.39844,-59.97337,-73.49036,-159.17849,0.18900,2.11336,-0.35816,,,0.59140,0.73395,0.25292,-0.21816,
9.40625,-55.74732,-88.60159,-167.19186,0.28773,1.91879,-0.42401,,,0.59318,0.72744,0.25851,-0.22834,
9.41406,-50.13569,-85.61490,-171.86632,0.26858,1.89679,-0.29812,,,0.59445,0.72099,0.26432,-0.23862,
9.42188,-42.03000,-72.28146,-178.43869,0.11385,1.92954,-0.27826,,,0.59486,0.71483,0.27081,-0.24861,
9.42969,-39.50130,-66.73475,-180.37174,0.07702,1.91048,-0.29182,,,0.59492,0.70871,0.27753,-0.25842,
9.43750,-38.46211,-68.79699,-177.91150,0.13694,1.76137,-0.33976,,,0.59489,0.70252,0.28398,-0.26819,
9.44531,-31.56881,-61.22359,-170.91737,0.32899,1.53454,-0.41723,,,0.59442,0.69676,0.29023,-0.27741,
9.45313,-29.62899,-48.38793,-163.11488,0.35650,1.43285,-0.41142,,,0.59366,0.69138,0.29655,-0.28570,
9.46094,-26.58069,-6.85871,-147.54505,0.30738,1.18891,-0.35816,,,0.59215,0.68715,0.30372,-0.29144,
9.46875,-21.10762,31.25715,-128.67146,0.17083,1.00901,-0.30441,,,0.58991,0.68423,0.31141,-0.29471,
9.47656,-20.69194,45.44393,-122.16938,0.07996,0.93519,-0.19740,,,0.58744,0.68170,0.31933,-0.29704,
9.48438,-26.61533,45.23059,-111.66062,0.06375,0.77191,-0.07877,,,0.58541,0.67909,0.32686,-0.29882,
9.49219,-31.39561,31.43493,-101.60876,-0.12142,0.60813,0.13719,,,0.58408,0.67620,0.33344,-0.30071,
9.50000,-32.64264,16.96370,-98.16442,-0.20247,0.54849,0.10233,,,0.58317,0.67300,0.33930,-0.30308,
9.50781,-30.01002,21.76374,-83.01634,-0.42153,0.39499,-0.26277,,,0.58232,0.67032,0.34459,-0.30468,
9.51563,-24.81407,37.55053,-71.13688,-0.51142,0.34659,-0.32475,,,0.58108,0.66844,0.34984,-0.30520,
9.52344,-17.22797,16.57259,-38.13445,-0.17889,0.44827,-0.29376,,,0.58067,0.66719,0.35259,-0.30554,
9.53125,-22.14681,-1.34756,-5.76466,0.14676,0.46783,-0.29085,,,0.58159,0.66615,0.35326,-0.30529,
9.53906,-23.11672,0.11023,7.48552,0.17918,0.36028,-0.27294,,,0.58280,0.66542,0.35340,-0.30443,
9.54688,-16.11950,-9.52540,29.41684,0.25188,0.22682,-0.15576,,,0.58436,0.66529,0.35202,-0.30330,
9.55469,-12.41305,-26.87665,49.66114,0.38449,0.19064,-0.11702,,,0.58660,0.66543,0.34895,-0.30224,
9.56250,-11.68562,-28.65444,60.59165,0.43754,0.15984,-0.14123,,,0.58905,0.66580,0.34529,-0.30083,
9.57031,-9.29548,-17.84547,79.95729,0.44344,0.09825,-0.12961,,,0.59152,0.66694,0.34113,-0.29820,
9.57813,-1.39763,-4.76092,97.31959,0.41937,0.10949,-0.17610,,,0.59366,0.66904,0.33653,-0.29445,
9.58594,3.31337,2.49247,107.72291,0.37172,0.11144,-0.20127,,,0.59560,0.67168,0.33164,-0.29004,
9.59375,13.98240,15.71925,120.79736,0.34373,0.23268,-0.21047,,,0.59697,0.67527,0.32646,-0.28472,
9.60156,14.95231,22.97264,134.32870,0.20177,0.22095,-0.23130,,,0.59835,0.67928,0.32090,-0.27851,
9.60938,18.62412,26.63489,148.35210,0.18900,0.31726,-0.18384,,,0.59969,0.68376,0.31475,-0.27162,
9.61719,19.90579,31.57715,165.57381,0.13940,0.39059,-0.14898,,,0.60111,0.68867,0.30793,-0.26378,
9.62500,19.97507,32.89272,174.71186,0.10796,0.43116,-0.13542,,,0.60258,0.69370,0.30069,-0.25547,
9.63281,21.08354,35.52385,190.98462,0.10059,0.51329,-0.11654,,,0.60413,0.69904,0.29272,-0.24635,
9.64063,22.15737,38.68832,208.94441,0.08782,0.53578,-0.16399,,,0.60575,0.70470,0.28395,-0.23632,
9.64844,24.92855,40.18166,214.42724,0.10698,0.59640,-0.16060,,,0.60716,0.71045,0.27487,-0.22598,
9.65625,27.35332,39.75499,228.20461,0.10599,0.67169,-0.19062,,,0.60853,0.71638,0.26500,-0.21509,
9.66406,30.85193,41.21278,238.99454,0.11827,0.73817,-0.20660,,,0.60970,0.72249,0.25455,-0.20369,
9.67188,33.06888,42.70613,244.23135,0.13055,0.78804,-0.21144,,,0.61063,0.72859,0.24380,-0.19197,
9.67969,39.47722,48.64396,255.05642,0.11484,0.87848,-0.24243,,,0.61110,0.73499,0.23259,-0.17956,
