Gait Up - Physilog data export
Created on: YYYY-MM-DD hh:mm:ss
Total data points: 20693

Time [128 hz],Gyro [128 hz],,,Accel [128 hz],,,Baro [1 hz],,Event [128 hz],Quaternion [128 hz],,,,
Time,Gyro X,Gyro Y,Gyro Z,Accel X,Accel Y,Accel Z,Pressure,Temperature,Quat W,Quat X,Quat Y,Quat Z,
[s],[deg/s],[deg/s],[deg/s],[g],[g],[g],[mBar],[degree C],[],[],[],[],
0.00781,0.09163,-0.53150,-0.85082,0.18264,0.91292,0.35730,1020.943,27.9,0.81883,0.56346,-0.10954,-0.00559,
0.01563,-0.01150,-0.46121,-0.95583,0.18312,0.91486,0.35634,,,0.81882,0.56347,-0.10953,-0.00566,
0.02344,-0.01150,-0.53150,-0.81581,0.18166,0.91486,0.35537,,,0.81882,0.56347,-0.10953,-0.00572,
0.03125,-0.08026,-0.46121,-0.60578,0.18361,0.91632,0.35634,,,0.81882,0.56347,-0.10953,-0.00578,
0.03906,0.12601,-0.49635,-0.64079,0.18653,0.92021,0.35682,,,0.81881,0.56349,-0.10953,-0.00583,
0.04688,0.05725,-0.42607,-0.57078,0.17971,0.92069,0.35391,,,0.81881,0.56349,-0.10954,-0.00588,
0.05469,0.29790,-0.35578,-0.60578,0.18264,0.92166,0.35634,,,0.81879,0.56351,-0.10953,-0.00592,
0.06250,0.22914,-0.46121,-0.67579,0.18264,0.92069,0.35488,,,0.81878,0.56353,-0.10953,-0.00598,
0.07031,0.36666,-0.25036,-0.67579,0.18117,0.92264,0.36021,,,0.81876,0.56356,-0.10952,-0.00602,
0.07813,0.43541,-0.25036,-0.57078,0.18702,0.92166,0.36166,,,0.81874,0.56359,-0.10951,-0.00606,
0.08594,0.43541,-0.10979,-0.53577,0.18702,0.91826,0.35634,,,0.81873,0.56361,-0.10950,-0.00609,
0.09375,0.36666,-0.28550,-0.57078,0.18361,0.91826,0.35973,,,0.81871,0.56364,-0.10949,-0.00613,
0.10156,0.43541,-0.28550,-0.46576,0.18458,0.91632,0.35488,,,0.81869,0.56367,-0.10949,-0.00616,
0.10938,0.46979,-0.28550,-0.67579,0.17922,0.91875,0.34859,,,0.81867,0.56370,-0.10948,-0.00621,
0.11719,0.74482,-0.25036,-0.64079,0.18069,0.91195,0.35634,,,0.81864,0.56374,-0.10947,-0.00625,
0.12500,0.81357,0.03078,-0.60578,0.18800,0.91923,0.35730,,,0.81861,0.56379,-0.10945,-0.00627,
0.13281,0.74482,-0.07465,-0.57078,0.18605,0.91972,0.35391,,,0.81858,0.56384,-0.10943,-0.00630,
0.14063,0.77920,-0.00436,-0.53577,0.18166,0.92361,0.35149,,,0.81855,0.56389,-0.10941,-0.00633,
0.14844,0.84795,0.06592,-0.50076,0.18264,0.92118,0.35343,,,0.81852,0.56394,-0.10939,-0.00635,
0.15625,0.84795,0.17135,-0.50076,0.18069,0.92312,0.35488,,,0.81848,0.56399,-0.10936,-0.00636,
0.16406,0.88233,0.24163,-0.50076,0.18507,0.92409,0.35198,,,0.81845,0.56404,-0.10932,-0.00637,
0.17188,0.81357,0.20649,-0.53577,0.18166,0.92555,0.35246,,,0.81842,0.56409,-0.10929,-0.00639,
0.17969,0.60730,0.17135,-0.50076,0.18264,0.93090,0.35827,,,0.81840,0.56413,-0.10926,-0.00641,
0.18750,0.50417,0.24163,-0.50076,0.18507,0.92652,0.35101,,,0.81838,0.56416,-0.10923,-0.00642,
0.19531,0.43541,0.10107,-0.50076,0.17922,0.92604,0.35730,,,0.81837,0.56419,-0.10921,-0.00644,
0.20313,0.22914,-0.00436,-0.39575,0.18069,0.91729,0.35537,,,0.81836,0.56421,-0.10919,-0.00646,
0.21094,0.26352,0.13621,-0.43075,0.17776,0.92166,0.35053,,,0.81835,0.56422,-0.10917,-0.00648,
0.21875,0.19477,0.03078,-0.39575,0.17728,0.91875,0.35488,,,0.81834,0.56424,-0.10915,-0.00650,
0.22656,0.26352,0.13621,-0.43075,0.18264,0.91972,0.35198,,,0.81833,0.56425,-0.10913,-0.00652,
0.23438,0.22914,0.13621,-0.50076,0.17435,0.91632,0.35198,,,0.81832,0.56427,-0.10910,-0.00654,
0.24219,0.22914,0.10107,-0.50076,0.18117,0.91923,0.35246,,,0.81831,0.56429,-0.10908,-0.00656,
0.25000,0.33228,0.10107,-0.53577,0.18458,0.92021,0.35343,,,0.81830,0.56431,-0.10905,-0.00658,
0.25781,0.33228,-0.00436,-0.50076,0.18361,0.92118,0.35246,,,0.81829,0.56433,-0.10903,-0.00661,
0.26563,0.26352,0.03078,-0.43075,0.17679,0.92361,0.35440,,,0.81828,0.56435,-0.10901,-0.00663,
0.27344,0.33228,-0.18007,-0.50076,0.18507,0.92118,0.35537,,,0.81826,0.56437,-0.10900,-0.00666,
0.28125,0.36666,-0.21522,-0.57078,0.18361,0.92069,0.35391,,,0.81825,0.56440,-0.10899,-0.00670,
0.28906,0.36666,-0.18007,-0.60578,0.18264,0.91923,0.35682,,,0.81823,0.56442,-0.10898,-0.00674,
0.29688,0.40104,-0.10979,-0.39575,0.18458,0.92312,0.35440,,,0.81822,0.56445,-0.10897,-0.00676,
0.30469,0.36666,-0.18007,-0.46576,0.18264,0.91778,0.35585,,,0.81820,0.56447,-0.10896,-0.00679,
0.31250,0.36666,-0.10979,-0.64079,0.17679,0.91972,0.35246,,,0.81819,0.56450,-0.10895,-0.00683,
0.32031,0.33228,-0.18007,-0.71080,0.18605,0.91875,0.35634,,,0.81817,0.56452,-0.10893,-0.00687,
0.32813,0.33228,-0.21522,-0.60578,0.18069,0.91972,0.34956,,,0.81816,0.56454,-0.10892,-0.00691,
0.33594,0.40104,-0.18007,-0.64079,0.18312,0.91778,0.35585,,,0.81814,0.56457,-0.10890,-0.00695,
0.34375,0.53855,-0.10979,-0.64079,0.18410,0.91729,0.35488,,,0.81812,0.56461,-0.10888,-0.00699,
0.35156,0.74482,-0.18007,-0.57078,0.17874,0.92118,0.35295,,,0.81809,0.56465,-0.10887,-0.00702,
0.35938,0.64168,-0.25036,-0.53577,0.17825,0.91632,0.35440,,,0.81806,0.56469,-0.10887,-0.00706,
0.36719,0.67606,-0.18007,-0.60578,0.17971,0.91923,0.35149,,,0.81803,0.56473,-0.10885,-0.00709,
0.37500,0.74482,-0.32064,-0.67579,0.18020,0.92215,0.35585,,,0.81800,0.56478,-0.10885,-0.00714,
0.38281,0.71044,-0.39093,-0.60578,0.17776,0.91875,0.35973,,,0.81797,0.56482,-0.10884,-0.00718,
0.39063,0.67606,-0.39093,-0.67579,0.18117,0.92069,0.35537,,,0.81794,0.56487,-0.10884,-0.00723,
0.39844,0.57293,-0.35578,-0.71080,0.17728,0.92604,0.35779,,,0.81792,0.56490,-0.10883,-0.00728,
0.40625,0.60730,-0.35578,-0.71080,0.18312,0.92264,0.35440,,,0.81789,0.56494,-0.10883,-0.00733,
0.41406,0.53855,-0.28550,-0.71080,0.18312,0.92409,0.35827,,,0.81787,0.56498,-0.10882,-0.00737,
0.42188,0.57293,-0.35578,-0.64079,0.17581,0.91729,0.35391,,,0.81784,0.56501,-0.10881,-0.00742,
0.42969,0.43541,-0.35578,-0.64079,0.18312,0.91535,0.35779,,,0.81782,0.56504,-0.10881,-0.00746,
0.43750,0.50417,-0.18007,-0.74580,0.18507,0.91535,0.35779,,,0.81780,0.56508,-0.10879,-0.00751,
0.44531,0.53855,-0.46121,-0.74580,0.18556,0.91486,0.35585,,,0.81778,0.56511,-0.10878,-0.00756,
0.45313,0.46979,-0.49635,-0.71080,0.18117,0.91438,0.35634,,,0.81775,0.56514,-0.10879,-0.00762,
0.46094,0.46979,-0.35578,-0.64079,0.18069,0.91486,0.35295,,,0.81773,0.56517,-0.10878,-0.00766,
0.46875,0.64168,-0.32064,-0.71080,0.17971,0.92264,0.35682,,,0.81771,0.56521,-0.10877,-0.00771,
0.47656,0.64168,-0.35578,-0.81581,0.18361,0.91923,0.35488,,,0.81768,0.56526,-0.10876,-0.00777,
0.48438,0.71044,-0.28550,-0.74580,0.18361,0.92555,0.35730,,,0.81765,0.56530,-0.10875,-0.00781,
0.49219,0.50417,-0.21522,-0.60578,0.18751,0.92409,0.35488,,,0.81763,0.56533,-0.10874,-0.00785,
0.50000,0.50417,-0.35578,-0.67579,0.18507,0.92750,0.35585,,,0.81760,0.56537,-0.10873,-0.00790,
0.50781,0.46979,-0.32064,-0.64079,0.18556,0.92750,0.36215,,,0.81758,0.56540,-0.10872,-0.00794,
0.51563,0.33228,-0.39093,-0.60578,0.18264,0.92993,0.36069,,,0.81757,0.56542,-0.10872,-0.00799,
0.52344,0.36666,-0.18007,-0.53577,0.18361,0.92264,0.36118,,,0.81755,0.56544,-0.10871,-0.00802,
0.53125,0.19477,-0.14493,-0.60578,0.18215,0.92312,0.35634,,,0.81754,0.56546,-0.10870,-0.00806,
0.53906,0.22914,-0.21522,-0.64079,0.18653,0.91923,0.35440,,,0.81753,0.56548,-0.10868,-0.00810,
0.54688,0.22914,-0.14493,-0.43075,0.18946,0.91778,0.35440,,,0.81752,0.56549,-0.10868,-0.00813,
0.55469,0.22914,-0.10979,-0.60578,0.18069,0.92118,0.35198,,,0.81751,0.56551,-0.10866,-0.00817,
0.56250,0.22914,-0.18007,-0.57078,0.18410,0.91340,0.35730,,,0.81750,0.56553,-0.10865,-0.00821,
0.57031,0.40104,-0.07465,-0.50076,0.18069,0.91583,0.35440,,,0.81749,0.56555,-0.10863,-0.00823,
0.57813,0.40104,-0.21522,-0.53577,0.18458,0.91340,0.35537,,,0.81747,0.56558,-0.10862,-0.00827,
0.58594,0.40104,-0.14493,-0.60578,0.18020,0.91583,0.35537,,,0.81745,0.56561,-0.10861,-0.00831,
0.59375,0.43541,-0.21522,-0.50076,0.17338,0.91583,0.35004,,,0.81743,0.56563,-0.10860,-0.00834,
0.60156,0.57293,-0.35578,-0.53577,0.18215,0.92555,0.35827,,,0.81741,0.56567,-0.10860,-0.00838,
0.60938,0.46979,-0.25036,-0.57078,0.18215,0.92069,0.35779,,,0.81739,0.56570,-0.10859,-0.00842,
0.61719,0.67606,-0.25036,-0.50076,0.18069,0.92555,0.36069,,,0.81736,0.56574,-0.10859,-0.00845,
0.62500,0.57293,-0.18007,-0.46576,0.18264,0.92652,0.35391,,,0.81734,0.56578,-0.10858,-0.00848,
0.63281,0.53855,-0.21522,-0.50076,0.18166,0.92312,0.35924,,,0.81731,0.56581,-0.10857,-0.00851,
0.64063,0.36666,-0.14493,-0.60578,0.18410,0.92798,0.35827,,,0.81730,0.56583,-0.10856,-0.00855,
0.64844,0.29790,-0.07465,-0.53577,0.18312,0.92458,0.35101,,,0.81728,0.56585,-0.10854,-0.00858,
0.65625,0.29790,-0.07465,-0.46576,0.18117,0.92021,0.35101,,,0.81727,0.56587,-0.10853,-0.00860,
0.66406,0.43541,-0.10979,-0.39575,0.18361,0.91535,0.35585,,,0.81725,0.56590,-0.10852,-0.00863,
0.67188,0.33228,-0.18007,-0.50076,0.18312,0.91729,0.35440,,,0.81724,0.56592,-0.10851,-0.00866,
0.67969,0.40104,-0.00436,-0.53577,0.18117,0.91826,0.35440,,,0.81722,0.56595,-0.10849,-0.00869,
0.68750,0.50417,-0.00436,-0.50076,0.17922,0.91389,0.35730,,,0.81720,0.56598,-0.10847,-0.00871,
0.69531,0.46979,-0.10979,-0.53577,0.18117,0.91778,0.35391,,,0.81718,0.56601,-0.10846,-0.00874,
0.70313,0.46979,-0.21522,-0.57078,0.18410,0.92069,0.35779,,,0.81716,0.56604,-0.10845,-0.00878,
0.71094,0.53855,-0.14493,-0.67579,0.18264,0.91972,0.35440,,,0.81714,0.56608,-0.10843,-0.00882,
0.71875,0.53855,-0.03950,-0.60578,0.17776,0.92458,0.35391,,,0.81712,0.56611,-0.10841,-0.00885,
0.72656,0.46979,0.10107,-0.57078,0.18458,0.91972,0.35246,,,0.81710,0.56614,-0.10838,-0.00887,
0.73438,0.60730,-0.14493,-0.57078,0.18166,0.92312,0.35149,,,0.81708,0.56618,-0.10837,-0.00890,
0.74219,0.53855,-0.18007,-0.71080,0.18117,0.92458,0.35343,,,0.81706,0.56622,-0.10835,-0.00895,
0.75000,0.57293,-0.21522,-0.60578,0.18312,0.92118,0.35634,,,0.81703,0.56625,-0.10834,-0.00899,
0.75781,0.50417,-0.03950,-0.60578,0.18117,0.92507,0.36021,,,0.81701,0.56628,-0.10832,-0.00902,
0.76563,0.40104,-0.07465,-0.60578,0.18410,0.92458,0.35537,,,0.81700,0.56631,-0.10830,-0.00905,
0.77344,0.33228,-0.00436,-0.53577,0.18069,0.92312,0.35053,,,0.81698,0.56633,-0.10828,-0.00908,
0.78125,0.33228,0.24163,-0.46576,0.17971,0.92215,0.35876,,,0.81697,0.56636,-0.10825,-0.00909,
0.78906,0.12601,0.34706,-0.53577,0.18507,0.91972,0.35343,,,0.81697,0.56637,-0.10821,-0.00911,
0.79688,-0.04588,0.17135,-0.53577,0.17825,0.92507,0.35053,,,0.81697,0.56637,-0.10818,-0.00913,
0.80469,-0.11464,-0.03950,-0.53577,0.18361,0.92215,0.35101,,,0.81697,0.56637,-0.10816,-0.00916,
0.81250,-0.08026,-0.32064,-0.50076,0.18215,0.91535,0.35440,,,0.81697,0.56636,-0.10816,-0.00920,
0.82031,-0.08026,-0.39093,-0.67579,0.17825,0.91438,0.34568,,,0.81697,0.56636,-0.10815,-0.00926,
0.82813,0.22914,-0.42607,-0.67579,0.18215,0.91389,0.35634,,,0.81696,0.56638,-0.10815,-0.00931,
0.83594,0.36666,-0.28550,-0.60578,0.18361,0.91778,0.35391,,,0.81695,0.56641,-0.10815,-0.00935,
0.84375,0.50417,-0.42607,-0.67579,0.18069,0.91923,0.35246,,,0.81692,0.56644,-0.10814,-0.00940,
0.85156,0.50417,-0.32064,-0.71080,0.18117,0.92021,0.35537,,,0.81690,0.56647,-0.10813,-0.00945,
0.85938,0.43541,-0.32064,-0.74580,0.18361,0.91972,0.35343,,,0.81688,0.56650,-0.10812,-0.00950,
0.86719,0.46979,-0.49635,-0.78081,0.18166,0.91486,0.35391,,,0.81686,0.56653,-0.10812,-0.00956,
0.87500,0.40104,-0.49635,-0.71080,0.18556,0.92069,0.35488,,,0.81684,0.56656,-0.10812,-0.00962,
0.88281,0.29790,-0.39093,-0.64079,0.18069,0.91875,0.35101,,,0.81682,0.56658,-0.10812,-0.00966,
0.89063,0.50417,-0.53150,-0.60578,0.18264,0.92507,0.35440,,,0.81680,0.56661,-0.10813,-0.00972,
0.89844,0.50417,-0.42607,-0.57078,0.18361,0.91972,0.35440,,,0.81678,0.56665,-0.10813,-0.00976,
0.90625,0.43541,-0.42607,-0.74580,0.18410,0.92118,0.35391,,,0.81676,0.56668,-0.10812,-0.00981,
0.91406,0.53855,-0.46121,-0.67579,0.18312,0.92118,0.34956,,,0.81673,0.56671,-0.10812,-0.00987,
0.92188,0.57293,-0.32064,-0.74580,0.17922,0.92215,0.35730,,,0.81671,0.56675,-0.10811,-0.00992,
0.92969,0.64168,-0.39093,-0.60578,0.18507,0.91632,0.35730,,,0.81668,0.56679,-0.10811,-0.00996,
0.93750,0.64168,-0.32064,-0.67579,0.18264,0.92361,0.35440,,,0.81665,0.56683,-0.10810,-0.01001,
0.94531,0.64168,-0.25036,-0.50076,0.18361,0.91826,0.35488,,,0.81662,0.56687,-0.10810,-0.01004,
0.95313,0.74482,-0.35578,-0.50076,0.17922,0.91826,0.35391,,,0.81659,0.56691,-0.10810,-0.01007,
0.96094,0.77920,-0.28550,-0.57078,0.18361,0.92069,0.35730,,,0.81656,0.56696,-0.10809,-0.01011,
0.96875,0.81357,-0.25036,-0.60578,0.18069,0.92215,0.35924,,,0.81653,0.56701,-0.10808,-0.01015,
0.97656,0.77920,-0.39093,-0.67579,0.18507,0.92264,0.35391,,,0.81649,0.56706,-0.10808,-0.01020,
0.98438,0.74482,-0.07465,-0.64079,0.18605,0.92166,0.35391,,,0.81646,0.56710,-0.10806,-0.01023,
0.99219,0.95109,0.06592,-0.71080,0.18605,0.92069,0.35585,,,0.81643,0.56716,-0.10803,-0.01026,
1.00000,0.98547,-0.00436,-0.64079,0.17874,0.91778,0.35634,,,0.81639,0.56722,-0.10801,-0.01029,
1.00781,0.95109,0.06592,-0.50076,0.18166,0.92166,0.35682,1020.935,27.9,0.81635,0.56728,-0.10798,-0.01031,
1.01563,0.77920,0.03078,-0.46576,0.18410,0.92701,0.35827,,,0.81632,0.56733,-0.10796,-0.01032,
1.02344,0.60730,0.17135,-0.50076,0.18069,0.92021,0.35101,,,0.81630,0.56736,-0.10794,-0.01034,
1.03125,0.57293,-0.00436,-0.53577,0.17971,0.91729,0.35295,,,0.81628,0.56740,-0.10792,-0.01037,
1.03906,0.53855,0.03078,-0.43075,0.18410,0.92069,0.35246,,,0.81625,0.56743,-0.10790,-0.01039,
1.04688,0.57293,0.03078,-0.50076,0.18312,0.91826,0.35634,,,0.81623,0.56747,-0.10788,-0.01041,
1.05469,0.53855,0.10107,-0.39575,0.18215,0.92021,0.35391,,,0.81621,0.56750,-0.10786,-0.01042,
1.06250,0.71044,0.03078,-0.50076,0.18069,0.91778,0.35634,,,0.81618,0.56754,-0.10784,-0.01044,
1.07031,0.71044,0.10107,-0.43075,0.18215,0.91923,0.35585,,,0.81616,0.56759,-0.10781,-0.01046,
1.07813,0.60730,0.06592,-0.60578,0.17728,0.92409,0.35779,,,0.81613,0.56762,-0.10779,-0.01049,
1.08594,0.64168,0.17135,-0.64079,0.18117,0.92069,0.35827,,,0.81611,0.56767,-0.10775,-0.01051,
1.09375,0.46979,0.13621,-0.60578,0.17922,0.92264,0.35682,,,0.81609,0.56770,-0.10772,-0.01053,
1.10156,0.53855,-0.03950,-0.57078,0.17484,0.92166,0.36215,,,0.81607,0.56773,-0.10770,-0.01056,
1.10938,0.29790,-0.18007,-0.60578,0.18361,0.91826,0.35391,,,0.81606,0.56775,-0.10769,-0.01060,
1.11719,0.22914,-0.32064,-0.57078,0.18215,0.91875,0.35827,,,0.81605,0.56777,-0.10769,-0.01065,
1.12500,0.26352,-0.25036,-0.46576,0.18020,0.91486,0.35343,,,0.81603,0.56779,-0.10768,-0.01068,
1.13281,0.40104,-0.35578,-0.60578,0.18166,0.91972,0.34907,,,0.81601,0.56781,-0.10768,-0.01072,
1.14063,0.50417,-0.28550,-0.64079,0.18458,0.91680,0.35585,,,0.81599,0.56784,-0.10767,-0.01077,
1.14844,0.53855,-0.28550,-0.67579,0.17874,0.91680,0.35488,,,0.81597,0.56788,-0.10766,-0.01081,
1.15625,0.57293,-0.32064,-0.67579,0.18020,0.91778,0.35246,,,0.81594,0.56792,-0.10765,-0.01086,
1.16406,0.71044,-0.32064,-0.78081,0.18361,0.91923,0.35682,,,0.81591,0.56796,-0.10764,-0.01091,
1.17188,0.71044,-0.32064,-0.60578,0.18556,0.91972,0.35488,,,0.81588,0.56800,-0.10764,-0.01095,
1.17969,0.60730,-0.39093,-0.64079,0.18361,0.92312,0.35004,,,0.81586,0.56804,-0.10763,-0.01099,
1.18750,0.60730,-0.42607,-0.64079,0.18166,0.92069,0.35246,,,0.81583,0.56808,-0.10763,-0.01104,
1.19531,0.74482,-0.28550,-0.60578,0.17971,0.92847,0.35391,,,0.81580,0.56813,-0.10763,-0.01108,
1.20313,0.53855,-0.53150,-0.57078,0.18653,0.93041,0.35585,,,0.81577,0.56816,-0.10763,-0.01113,
1.21094,0.57293,-0.42607,-0.57078,0.18410,0.92215,0.35343,,,0.81575,0.56820,-0.10764,-0.01117,
1.21875,0.29790,-0.42607,-0.64079,0.18264,0.92555,0.35634,,,0.81573,0.56822,-0.10763,-0.01122,
1.22656,0.43541,-0.14493,-0.60578,0.18215,0.92069,0.35682,,,0.81571,0.56825,-0.10762,-0.01126,
1.23438,0.36666,0.06592,-0.43075,0.18605,0.92264,0.35488,,,0.81570,0.56827,-0.10760,-0.01128,
1.24219,0.29790,-0.18007,-0.57078,0.18751,0.91972,0.35730,,,0.81569,0.56829,-0.10759,-0.01132,
1.25000,0.29790,-0.21522,-0.53577,0.18069,0.92166,0.35053,,,0.81567,0.56831,-0.10758,-0.01135,
1.25781,0.40104,-0.25036,-0.53577,0.17435,0.91535,0.35440,,,0.81565,0.56834,-0.10757,-0.01139,
1.26563,0.53855,-0.14493,-0.53577,0.17922,0.91875,0.34859,,,0.81563,0.56837,-0.10756,-0.01142,
1.27344,0.64168,-0.32064,-0.57078,0.17776,0.92312,0.35149,,,0.81560,0.56841,-0.10756,-0.01146,
1.28125,0.60730,-0.03950,-0.50076,0.17533,0.91632,0.34859,,,0.81558,0.56845,-0.10754,-0.01148,
1.28906,0.77920,-0.14493,-0.60578,0.17874,0.92361,0.35295,,,0.81555,0.56849,-0.10752,-0.01152,
1.29688,0.71044,-0.07465,-0.53577,0.18312,0.92166,0.34956,,,0.81552,0.56854,-0.10751,-0.01154,
1.30469,0.67606,0.10107,-0.50076,0.18166,0.91923,0.35343,,,0.81549,0.56858,-0.10748,-0.01156,
1.31250,0.71044,0.06592,-0.64079,0.18751,0.92166,0.35053,,,0.81547,0.56862,-0.10746,-0.01159,
1.32031,0.77920,-0.03950,-0.57078,0.18897,0.92166,0.35343,,,0.81544,0.56867,-0.10744,-0.01162,
1.32813,0.67606,-0.00436,-0.53577,0.18410,0.92069,0.35634,,,0.81541,0.56871,-0.10742,-0.01164,
1.33594,0.43541,-0.03950,-0.53577,0.18166,0.92458,0.35246,,,0.81539,0.56874,-0.10740,-0.01167,
1.34375,0.46979,-0.14493,-0.60578,0.18215,0.92409,0.35343,,,0.81537,0.56877,-0.10738,-0.01171,
1.35156,0.40104,0.03078,-0.50076,0.18215,0.91826,0.35585,,,0.81536,0.56880,-0.10736,-0.01173,
1.35938,0.33228,0.13621,-0.57078,0.17728,0.92118,0.35101,,,0.81534,0.56882,-0.10733,-0.01176,
1.36719,0.53855,-0.03950,-0.53577,0.18605,0.92264,0.35537,,,0.81532,0.56885,-0.10732,-0.01178,
1.37500,0.57293,0.06592,-0.64079,0.18264,0.92118,0.34810,,,0.81530,0.56889,-0.10729,-0.01181,
1.38281,0.60730,-0.00436,-0.46576,0.17874,0.91826,0.35246,,,0.81528,0.56893,-0.10727,-0.01183,
1.39063,0.64168,-0.07465,-0.50076,0.18166,0.91535,0.35391,,,0.81525,0.56897,-0.10726,-0.01186,
1.39844,0.74482,-0.07465,-0.53577,0.18507,0.91972,0.35488,,,0.81522,0.56901,-0.10724,-0.01189,
1.40625,0.74482,0.06592,-0.53577,0.18215,0.92166,0.34907,,,0.81519,0.56906,-0.10722,-0.01191,
1.41406,0.74482,-0.00436,-0.60578,0.18215,0.92507,0.35246,,,0.81516,0.56910,-0.10719,-0.01194,
1.42188,0.81357,-0.10979,-0.60578,0.17971,0.92409,0.35730,,,0.81513,0.56915,-0.10718,-0.01197,
1.42969,0.60730,-0.00436,-0.53577,0.18410,0.92021,0.35198,,,0.81510,0.56919,-0.10716,-0.01199,
1.43750,0.53855,-0.03950,-0.57078,0.18117,0.92409,0.35343,,,0.81508,0.56922,-0.10714,-0.01202,
1.44531,0.46979,-0.07465,-0.50076,0.18215,0.92264,0.35537,,,0.81506,0.56925,-0.10712,-0.01205,
1.45313,0.43541,-0.03950,-0.60578,0.17679,0.92604,0.35149,,,0.81505,0.56928,-0.10710,-0.01208,
1.46094,0.36666,-0.18007,-0.64079,0.18264,0.92021,0.35246,,,0.81503,0.56931,-0.10709,-0.01212,
1.46875,0.50417,-0.18007,-0.53577,0.17874,0.92895,0.34956,,,0.81501,0.56934,-0.10708,-0.01216,
1.47656,0.36666,-0.00436,-0.57078,0.17630,0.92701,0.35149,,,0.81499,0.56936,-0.10705,-0.01219,
1.48438,0.36666,-0.07465,-0.57078,0.18215,0.92361,0.34859,,,0.81498,0.56939,-0.10704,-0.01222,
1.49219,0.33228,-0.25036,-0.67579,0.17825,0.92701,0.34907,,,0.81496,0.56941,-0.10702,-0.01226,
1.50000,0.33228,-0.28550,-0.53577,0.17825,0.92166,0.35391,,,0.81495,0.56943,-0.10702,-0.01230,
1.50781,0.40104,-0.28550,-0.57078,0.17971,0.92361,0.35537,,,0.81493,0.56946,-0.10701,-0.01234,
1.51563,0.46979,-0.32064,-0.60578,0.17825,0.92361,0.35488,,,0.81491,0.56949,-0.10701,-0.01238,
1.52344,0.57293,-0.32064,-0.67579,0.18069,0.91923,0.35585,,,0.81488,0.56953,-0.10700,-0.01243,
1.53125,0.46979,-0.28550,-0.60578,0.17630,0.92312,0.35779,,,0.81486,0.56956,-0.10699,-0.01247,
1.53906,0.43541,-0.25036,-0.64079,0.18458,0.92166,0.35295,,,0.81484,0.56959,-0.10698,-0.01251,
1.54688,0.26352,-0.42607,-0.74580,0.18166,0.92312,0.35343,,,0.81483,0.56961,-0.10698,-0.01257,
1.55469,0.29790,-0.49635,-0.74580,0.17728,0.92069,0.34568,,,0.81481,0.56963,-0.10698,-0.01263,
1.56250,0.19477,-0.39093,-0.78081,0.18264,0.92021,0.35053,,,0.81480,0.56964,-0.10697,-0.01268,
1.57031,0.36666,-0.18007,-0.74580,0.18020,0.91923,0.35053,,,0.81479,0.56967,-0.10695,-0.01273,
1.57813,0.33228,-0.28550,-0.71080,0.17435,0.92021,0.35053,,,0.81477,0.56969,-0.10694,-0.01278,
1.58594,0.43541,-0.32064,-0.57078,0.18117,0.92118,0.35149,,,0.81475,0.56972,-0.10693,-0.01282,
1.59375,0.46979,-0.32064,-0.60578,0.17874,0.92021,0.35488,,,0.81473,0.56975,-0.10693,-0.01286,
1.60156,0.57293,-0.39093,-0.39575,0.18166,0.92798,0.35343,,,0.81470,0.56979,-0.10694,-0.01289,
1.60938,0.40104,-0.49635,-0.53577,0.18215,0.92069,0.35537,,,0.81468,0.56981,-0.10694,-0.01294,
1.61719,0.43541,-0.39093,-0.60578,0.17776,0.92458,0.35585,,,0.81466,0.56984,-0.10694,-0.01299,
1.62500,0.46979,-0.03950,-0.64079,0.17971,0.92555,0.35730,,,0.81465,0.56987,-0.10692,-0.01302,
1.63281,0.29790,0.17135,-0.60578,0.18215,0.92361,0.35295,,,0.81463,0.56989,-0.10689,-0.01304,
1.64063,0.12601,0.03078,-0.60578,0.17581,0.92895,0.35198,,,0.81463,0.56990,-0.10686,-0.01308,
1.64844,-0.11464,-0.00436,-0.43075,0.17922,0.92798,0.35295,,,0.81463,0.56990,-0.10684,-0.01310,
1.65625,-0.42404,-0.32064,-0.50076,0.17289,0.91972,0.35149,,,0.81465,0.56988,-0.10684,-0.01314,
1.66406,-0.32091,-0.42607,-0.46576,0.17825,0.92312,0.35198,,,0.81466,0.56986,-0.10685,-0.01319,
1.67188,-0.35529,-0.42607,-0.60578,0.18020,0.91826,0.34810,,,0.81467,0.56985,-0.10685,-0.01324,
1.67969,-0.14902,-0.42607,-0.74580,0.18020,0.91826,0.35004,,,0.81467,0.56985,-0.10684,-0.01330,
1.68750,0.02287,-0.28550,-0.71080,0.17533,0.91729,0.35053,,,0.81466,0.56985,-0.10683,-0.01335,
1.69531,0.26352,-0.10979,-0.71080,0.18264,0.91583,0.35440,,,0.81465,0.56987,-0.10681,-0.01339,
1.70313,0.43541,-0.14493,-0.81581,0.17971,0.92215,0.34907,,,0.81463,0.56990,-0.10679,-0.01344,
1.71094,0.33228,-0.10979,-0.74580,0.17728,0.92361,0.35198,,,0.81462,0.56993,-0.10676,-0.01348,
1.71875,0.43541,-0.42607,-0.64079,0.18361,0.92264,0.35198,,,0.81460,0.56995,-0.10676,-0.01353,
1.72656,0.36666,-0.46121,-0.57078,0.17874,0.92750,0.35343,,,0.81458,0.56998,-0.10677,-0.01358,
1.73438,0.40104,-0.42607,-0.53577,0.18069,0.92361,0.35343,,,0.81456,0.57000,-0.10677,-0.01362,
1.74219,0.29790,-0.39093,-0.64079,0.18702,0.92166,0.35053,,,0.81455,0.57002,-0.10677,-0.01367,
1.75000,0.29790,-0.21522,-0.57078,0.18507,0.92458,0.35149,,,0.81453,0.57004,-0.10676,-0.01371,
1.75781,0.33228,-0.21522,-0.57078,0.18312,0.92215,0.35004,,,0.81452,0.57007,-0.10675,-0.01375,
1.76563,0.29790,-0.25036,-0.78081,0.18361,0.92409,0.35295,,,0.81450,0.57009,-0.10673,-0.01380,
1.77344,0.22914,-0.14493,-0.78081,0.18312,0.92021,0.35246,,,0.81449,0.57011,-0.10671,-0.01385,
1.78125,0.29790,-0.18007,-0.71080,0.18166,0.92264,0.35585,,,0.81448,0.57013,-0.10669,-0.01389,
1.78906,0.26352,-0.14493,-0.64079,0.18507,0.92361,0.35004,,,0.81447,0.57015,-0.10667,-0.01393,
1.79688,0.16039,-0.14493,-0.71080,0.17922,0.92166,0.34665,,,0.81446,0.57016,-0.10666,-0.01397,
1.80469,0.09163,-0.14493,-0.67579,0.18117,0.91923,0.34810,,,0.81445,0.57017,-0.10664,-0.01402,
1.81250,0.22914,-0.03950,-0.60578,0.18800,0.92021,0.35634,,,0.81444,0.57019,-0.10662,-0.01405,
1.82031,0.36666,-0.03950,-0.71080,0.18458,0.91875,0.35537,,,0.81443,0.57021,-0.10659,-0.01409,
1.82813,0.50417,0.03078,-0.64079,0.18166,0.92118,0.34810,,,0.81441,0.57025,-0.10656,-0.01412,
1.83594,0.60730,0.13621,-0.53577,0.18410,0.92118,0.35295,,,0.81439,0.57029,-0.10654,-0.01414,
1.84375,0.60730,0.24163,-0.43075,0.18848,0.92458,0.35585,,,0.81436,0.57032,-0.10651,-0.01415,
1.85156,0.57293,0.27678,-0.46576,0.18800,0.92652,0.35488,,,0.81434,0.57036,-0.10647,-0.01416,
1.85938,0.53855,0.27678,-0.36074,0.17971,0.92507,0.35924,,,0.81432,0.57039,-0.10645,-0.01416,
1.86719,0.33228,0.24163,-0.39575,0.18458,0.92409,0.35246,,,0.81431,0.57041,-0.10642,-0.01417,
1.87500,0.40104,0.17135,-0.36074,0.18410,0.92458,0.35053,,,0.81430,0.57044,-0.10639,-0.01419,
1.88281,0.12601,0.17135,-0.32574,0.18166,0.92361,0.35295,,,0.81429,0.57045,-0.10637,-0.01420,
1.89063,0.33228,0.20649,-0.50076,0.18069,0.92021,0.35101,,,0.81428,0.57047,-0.10634,-0.01421,
1.89844,0.40104,0.20649,-0.50076,0.18215,0.92069,0.35198,,,0.81427,0.57049,-0.10631,-0.01423,
1.90625,0.29790,0.17135,-0.39575,0.18410,0.92166,0.35295,,,0.81426,0.57051,-0.10629,-0.01424,
1.91406,0.36666,0.03078,-0.43075,0.18069,0.92361,0.34956,,,0.81424,0.57054,-0.10627,-0.01426,
1.92188,0.43541,-0.00436,-0.46576,0.18458,0.92166,0.35488,,,0.81422,0.57057,-0.10625,-0.01429,
1.92969,0.40104,0.06592,-0.36074,0.17922,0.92215,0.35053,,,0.81421,0.57059,-0.10623,-0.01430,
1.93750,0.43541,-0.00436,-0.46576,0.18264,0.92215,0.35391,,,0.81419,0.57062,-0.10622,-0.01432,
1.94531,0.43541,0.10107,-0.57078,0.18507,0.91923,0.35440,,,0.81417,0.57065,-0.10619,-0.01435,
1.95313,0.50417,-0.10979,-0.43075,0.18020,0.92361,0.35053,,,0.81415,0.57068,-0.10618,-0.01437,
1.96094,0.36666,-0.10979,-0.46576,0.18117,0.92507,0.35585,,,0.81414,0.57070,-0.10617,-0.01440,
1.96875,0.40104,-0.07465,-0.57078,0.17776,0.92166,0.35779,,,0.81412,0.57073,-0.10615,-0.01443,
1.97656,0.50417,-0.35578,-0.50076,0.18264,0.92458,0.35343,,,0.81410,0.57076,-0.10615,-0.01447,
1.98438,0.43541,-0.32064,-0.53577,0.18117,0.92361,0.34956,,,0.81408,0.57079,-0.10615,-0.01451,
1.99219,0.16039,-0.25036,-0.60578,0.17581,0.92166,0.35924,,,0.81407,0.57080,-0.10614,-0.01455,
2.00000,0.12601,-0.35578,-0.67579,0.17630,0.92409,0.35488,,,0.81406,0.57081,-0.10613,-0.01460,
2.00781,0.09163,-0.18007,-0.67579,0.18117,0.92264,0.35198,1020.913,28.0,0.81406,0.57082,-0.10612,-0.01465,
2.01563,0.12601,-0.28550,-0.53577,0.18361,0.91972,0.35149,,,0.81405,0.57083,-0.10611,-0.01469,
2.02344,0.33228,-0.25036,-0.60578,0.18069,0.91438,0.35585,,,0.81403,0.57085,-0.10610,-0.01473,
2.03125,0.16039,-0.35578,-0.67579,0.17630,0.91535,0.35488,,,0.81402,0.57087,-0.10609,-0.01478,
2.03906,0.29790,-0.46121,-0.71080,0.17825,0.92021,0.35246,,,0.81401,0.57089,-0.10609,-0.01483,
2.04688,0.26352,-0.28550,-0.81581,0.18507,0.92312,0.35488,,,0.81400,0.57091,-0.10608,-0.01489,
2.05469,0.19477,-0.32064,-0.74580,0.17825,0.92652,0.35198,,,0.81399,0.57092,-0.10607,-0.01494,
2.06250,0.26352,-0.32064,-0.88582,0.18069,0.92361,0.35440,,,0.81397,0.57095,-0.10605,-0.01500,
2.07031,0.19477,-0.28550,-0.74580,0.18166,0.92750,0.35682,,,0.81396,0.57096,-0.10604,-0.01505,
2.07813,0.16039,-0.35578,-0.71080,0.18264,0.92652,0.35730,,,0.81395,0.57097,-0.10603,-0.01510,
2.08594,0.16039,-0.39093,-0.67579,0.18605,0.92847,0.36069,,,0.81394,0.57099,-0.10602,-0.01515,
2.09375,0.12601,-0.35578,-0.67579,0.18361,0.92604,0.35149,,,0.81393,0.57100,-0.10602,-0.01520,
2.10156,0.12601,-0.32064,-0.64079,0.18507,0.92312,0.35440,,,0.81393,0.57101,-0.10601,-0.01525,
2.10938,0.02287,-0.46121,-0.60578,0.18117,0.92166,0.35053,,,0.81392,0.57102,-0.10601,-0.01530,
2.11719,0.02287,-0.28550,-0.64079,0.18264,0.91438,0.35634,,,0.81392,0.57102,-0.10600,-0.01535,
2.12500,-0.04588,-0.25036,-0.64079,0.18556,0.92069,0.35585,,,0.81392,0.57102,-0.10599,-0.01539,
2.13281,-0.01150,-0.14493,-0.64079,0.18264,0.91826,0.34762,,,0.81392,0.57103,-0.10598,-0.01544,
2.14063,0.29790,-0.18007,-0.53577,0.18458,0.91826,0.35295,,,0.81390,0.57105,-0.10597,-0.01547,
2.14844,0.40104,-0.18007,-0.60578,0.18458,0.91632,0.35343,,,0.81388,0.57107,-0.10595,-0.01551,
2.15625,0.36666,-0.14493,-0.60578,0.17825,0.91729,0.35053,,,0.81387,0.57110,-0.10594,-0.01554,
2.16406,0.53855,-0.14493,-0.60578,0.18215,0.92215,0.35391,,,0.81385,0.57113,-0.10592,-0.01558,
2.17188,0.40104,-0.10979,-0.60578,0.18215,0.92166,0.34907,,,0.81383,0.57116,-0.10591,-0.01561,
2.17969,0.53855,-0.14493,-0.57078,0.18215,0.92507,0.35537,,,0.81381,0.57119,-0.10589,-0.01565,
2.18750,0.46979,-0.18007,-0.39575,0.17874,0.93041,0.35246,,,0.81379,0.57122,-0.10589,-0.01567,
2.19531,0.40104,-0.21522,-0.43075,0.18361,0.92215,0.35053,,,0.81377,0.57125,-0.10588,-0.01570,
2.20313,0.33228,-0.07465,-0.60578,0.18166,0.92701,0.35537,,,0.81375,0.57127,-0.10586,-0.01574,
2.21094,0.26352,-0.03950,-0.50076,0.18702,0.92944,0.35053,,,0.81374,0.57129,-0.10585,-0.01576,
2.21875,0.12601,-0.07465,-0.39575,0.18117,0.92361,0.35295,,,0.81374,0.57130,-0.10584,-0.01579,
2.22656,0.05725,-0.03950,-0.39575,0.18166,0.92118,0.35779,,,0.81373,0.57130,-0.10582,-0.01581,
2.23438,0.09163,-0.00436,-0.43075,0.17922,0.91826,0.35391,,,0.81373,0.57131,-0.10581,-0.01583,
2.24219,0.09163,0.03078,-0.50076,0.18605,0.92312,0.35198,,,0.81373,0.57132,-0.10578,-0.01586,
2.25000,0.05725,0.03078,-0.53577,0.18264,0.91680,0.35924,,,0.81372,0.57133,-0.10576,-0.01589,
2.25781,0.16039,0.13621,-0.57078,0.18020,0.91583,0.35391,,,0.81372,0.57134,-0.10573,-0.01591,
2.26563,0.22914,0.03078,-0.46576,0.17776,0.91826,0.35343,,,0.81371,0.57136,-0.10571,-0.01594,
2.27344,0.29790,-0.10979,-0.50076,0.18458,0.91632,0.35537,,,0.81370,0.57138,-0.10570,-0.01597,
2.28125,0.36666,-0.00436,-0.50076,0.17922,0.92312,0.35149,,,0.81368,0.57140,-0.10568,-0.01599,
2.28906,0.29790,0.03078,-0.46576,0.17581,0.92021,0.35537,,,0.81367,0.57142,-0.10566,-0.01601,
2.29688,0.40104,-0.03950,-0.50076,0.18166,0.92507,0.35343,,,0.81365,0.57145,-0.10564,-0.01604,
2.30469,0.36666,-0.03950,-0.50076,0.18361,0.92701,0.35101,,,0.81364,0.57147,-0.10563,-0.01607,
2.31250,0.16039,-0.03950,-0.53577,0.18117,0.92798,0.35634,,,0.81363,0.57148,-0.10561,-0.01610,
2.32031,-0.04588,-0.25036,-0.46576,0.17679,0.92701,0.35585,,,0.81363,0.57148,-0.10560,-0.01613,
2.32813,-0.04588,-0.21522,-0.53577,0.17922,0.92361,0.35585,,,0.81363,0.57148,-0.10560,-0.01617,
2.33594,-0.18340,-0.03950,-0.57078,0.17971,0.92750,0.35634,,,0.81364,0.57148,-0.10558,-0.01621,
2.34375,-0.21777,-0.21522,-0.64079,0.17825,0.92361,0.35537,,,0.81364,0.57147,-0.10556,-0.01625,
2.35156,-0.18340,-0.21522,-0.60578,0.18312,0.92069,0.35053,,,0.81365,0.57146,-0.10555,-0.01630,
2.35938,-0.08026,-0.07465,-0.57078,0.17874,0.92166,0.35198,,,0.81365,0.57146,-0.10553,-0.01633,
2.36719,-0.11464,-0.25036,-0.53577,0.18215,0.91680,0.35343,,,0.81365,0.57146,-0.10553,-0.01637,
2.37500,-0.08026,-0.21522,-0.60578,0.17825,0.91632,0.35295,,,0.81365,0.57146,-0.10551,-0.01641,
2.38281,-0.14902,-0.14493,-0.57078,0.18410,0.91729,0.35682,,,0.81366,0.57146,-0.10550,-0.01645,
2.39063,-0.04588,-0.14493,-0.67579,0.17922,0.91729,0.35101,,,0.81366,0.57146,-0.10548,-0.01649,
2.39844,0.12601,-0.14493,-0.60578,0.17922,0.91778,0.35198,,,0.81365,0.57147,-0.10547,-0.01653,
2.40625,0.19477,-0.10979,-0.67579,0.18312,0.92021,0.35246,,,0.81364,0.57149,-0.10545,-0.01657,
2.41406,0.16039,-0.25036,-0.64079,0.18458,0.92312,0.35924,,,0.81363,0.57150,-0.10543,-0.01662,
2.42188,0.09163,-0.32064,-0.53577,0.18215,0.91826,0.35440,,,0.81363,0.57151,-0.10543,-0.01666,
2.42969,0.12601,-0.39093,-0.60578,0.18069,0.91778,0.35053,,,0.81362,0.57152,-0.10543,-0.01671,
2.43750,0.12601,-0.32064,-0.64079,0.18361,0.91875,0.35198,,,0.81361,0.57153,-0.10542,-0.01675,
2.44531,-0.01150,-0.28550,-0.67579,0.18605,0.92118,0.35246,,,0.81361,0.57153,-0.10541,-0.01680,
2.45313,0.12601,-0.03950,-0.67579,0.18702,0.91826,0.35634,,,0.81360,0.57155,-0.10539,-0.01684,
2.46094,0.02287,-0.10979,-0.53577,0.18312,0.91923,0.35440,,,0.81360,0.57155,-0.10537,-0.01687,
2.46875,0.09163,-0.07465,-0.53577,0.18117,0.91875,0.35682,,,0.81359,0.57156,-0.10536,-0.01691,
2.47656,0.05725,-0.35578,-0.71080,0.18312,0.92264,0.35343,,,0.81359,0.57157,-0.10535,-0.01696,
2.48438,0.16039,-0.18007,-0.60578,0.18312,0.92652,0.35537,,,0.81358,0.57158,-0.10534,-0.01700,
2.49219,0.02287,-0.18007,-0.53577,0.18069,0.91923,0.35198,,,0.81358,0.57158,-0.10532,-0.01704,
2.50000,0.05725,-0.10979,-0.60578,0.17533,0.92701,0.35682,,,0.81357,0.57159,-0.10531,-0.01707,
2.50781,-0.14902,-0.03950,-0.50076,0.18312,0.92361,0.35246,,,0.81358,0.57159,-0.10529,-0.01710,
2.51563,-0.35529,0.06592,-0.50076,0.17922,0.93041,0.35343,,,0.81359,0.57157,-0.10527,-0.01713,
2.52344,-0.49280,-0.03950,-0.43075,0.18458,0.92361,0.34762,,,0.81361,0.57155,-0.10525,-0.01716,
2.53125,-0.59593,-0.32064,-0.39575,0.17874,0.91923,0.34810,,,0.81363,0.57152,-0.10525,-0.01720,
2.53906,-0.59593,-0.35578,-0.50076,0.18507,0.91875,0.35391,,,0.81365,0.57149,-0.10525,-0.01724,
2.54688,-0.35529,-0.46121,-0.53577,0.17386,0.91583,0.34956,,,0.81366,0.57147,-0.10526,-0.01730,
2.55469,-0.21777,-0.42607,-0.53577,0.18020,0.91195,0.35246,,,0.81367,0.57146,-0.10526,-0.01734,
2.56250,0.02287,-0.46121,-0.60578,0.18069,0.91438,0.35440,,,0.81366,0.57147,-0.10526,-0.01739,
2.57031,-0.01150,-0.07465,-0.71080,0.18702,0.91729,0.35634,,,0.81366,0.57147,-0.10524,-0.01744,
2.57813,0.12601,-0.00436,-0.67579,0.18117,0.92021,0.35973,,,0.81365,0.57148,-0.10521,-0.01747,
2.58594,0.16039,-0.00436,-0.74580,0.17971,0.91972,0.35585,,,0.81365,0.57150,-0.10518,-0.01751,
2.59375,0.09163,-0.18007,-0.74580,0.18020,0.91972,0.35537,,,0.81364,0.57151,-0.10516,-0.01756,
2.60156,0.02287,-0.32064,-0.67579,0.18020,0.92166,0.35149,,,0.81364,0.57151,-0.10516,-0.01761,
2.60938,-0.01150,-0.14493,-0.50076,0.17922,0.92264,0.35246,,,0.81364,0.57152,-0.10514,-0.01764,
2.61719,-0.04588,-0.18007,-0.60578,0.18458,0.91875,0.35682,,,0.81364,0.57152,-0.10513,-0.01769,
2.62500,0.05725,-0.18007,-0.53577,0.18410,0.91632,0.35876,,,0.81363,0.57152,-0.10512,-0.01772,
2.63281,-0.01150,-0.25036,-0.64079,0.18410,0.92021,0.35440,,,0.81363,0.57153,-0.10511,-0.01777,
2.64063,0.09163,-0.14493,-0.67579,0.18117,0.91632,0.35585,,,0.81362,0.57154,-0.10509,-0.01781,
2.64844,0.09163,-0.00436,-0.57078,0.18507,0.92069,0.35634,,,0.81362,0.57155,-0.10507,-0.01784,
2.65625,0.09163,-0.10979,-0.57078,0.18166,0.92312,0.35537,,,0.81361,0.57156,-0.10505,-0.01788,
2.66406,0.09163,-0.25036,-0.60578,0.18215,0.92555,0.35779,,,0.81361,0.57156,-0.10504,-0.01792,
2.67188,0.05725,-0.10979,-0.60578,0.18264,0.91535,0.35682,,,0.81360,0.57157,-0.10503,-0.01796,
2.67969,0.12601,-0.07465,-0.74580,0.18458,0.91438,0.35682,,,0.81360,0.57158,-0.10500,-0.01800,
2.68750,0.19477,-0.32064,-0.67579,0.17825,0.91778,0.35343,,,0.81359,0.57160,-0.10499,-0.01805,
2.69531,0.29790,-0.10979,-0.74580,0.18605,0.91875,0.35924,,,0.81357,0.57162,-0.10497,-0.01809,
2.70313,0.16039,-0.28550,-0.78081,0.17971,0.91583,0.35391,,,0.81357,0.57164,-0.10496,-0.01815,
2.71094,0.36666,-0.21522,-0.67579,0.18458,0.91875,0.35634,,,0.81355,0.57166,-0.10494,-0.01819,
2.71875,0.29790,-0.18007,-0.60578,0.18215,0.91778,0.35585,,,0.81353,0.57168,-0.10493,-0.01823,
2.72656,0.29790,-0.10979,-0.67579,0.18069,0.91778,0.35730,,,0.81352,0.57170,-0.10491,-0.01827,
2.73438,0.40104,-0.07465,-0.71080,0.18410,0.92215,0.35730,,,0.81350,0.57173,-0.10489,-0.01831,
2.74219,0.36666,-0.07465,-0.67579,0.18166,0.92555,0.36360,,,0.81349,0.57175,-0.10486,-0.01834,
2.75000,0.16039,-0.10979,-0.60578,0.18166,0.92652,0.36360,,,0.81348,0.57177,-0.10485,-0.01838,
2.75781,0.09163,-0.14493,-0.53577,0.18166,0.92458,0.35488,,,0.81348,0.57178,-0.10483,-0.01842,
2.76563,0.12601,-0.32064,-0.50076,0.17435,0.91923,0.36118,,,0.81347,0.57179,-0.10483,-0.01845,
2.77344,-0.01150,-0.42607,-0.57078,0.18069,0.92118,0.35343,,,0.81346,0.57179,-0.10483,-0.01850,
2.78125,-0.18340,-0.21522,-0.53577,0.18361,0.92604,0.36215,,,0.81347,0.57178,-0.10482,-0.01854,
2.78906,-0.11464,-0.21522,-0.57078,0.18458,0.92652,0.35827,,,0.81347,0.57178,-0.10481,-0.01858,
2.79688,-0.04588,-0.18007,-0.53577,0.18166,0.92069,0.35973,,,0.81347,0.57178,-0.10480,-0.01862,
2.80469,-0.08026,-0.18007,-0.57078,0.18312,0.91972,0.35682,,,0.81347,0.57178,-0.10479,-0.01866,
2.81250,-0.14902,-0.10979,-0.57078,0.17874,0.91340,0.35730,,,0.81348,0.57178,-0.10477,-0.01870,
2.82031,-0.18340,-0.07465,-0.53577,0.18312,0.91486,0.36215,,,0.81348,0.57177,-0.10476,-0.01873,
2.82813,-0.11464,-0.10979,-0.53577,0.17776,0.91583,0.35391,,,0.81349,0.57177,-0.10474,-0.01876,
2.83594,-0.08026,-0.25036,-0.53577,0.18166,0.91535,0.35730,,,0.81349,0.57177,-0.10474,-0.01881,
2.84375,0.02287,-0.10979,-0.39575,0.18166,0.91340,0.35924,,,0.81349,0.57177,-0.10473,-0.01883,
2.85156,0.19477,-0.35578,-0.57078,0.17971,0.91826,0.35537,,,0.81347,0.57178,-0.10472,-0.01888,
2.85938,0.19477,-0.32064,-0.46576,0.18361,0.91972,0.35537,,,0.81346,0.57180,-0.10472,-0.01891,
2.86719,0.19477,-0.28550,-0.57078,0.18069,0.91972,0.35730,,,0.81345,0.57181,-0.10472,-0.01895,
2.87500,0.33228,-0.18007,-0.60578,0.17922,0.92312,0.35585,,,0.81344,0.57183,-0.10470,-0.01899,
2.88281,0.26352,-0.00436,-0.60578,0.18215,0.92021,0.36118,,,0.81343,0.57185,-0.10468,-0.01902,
2.89063,0.29790,-0.03950,-0.57078,0.17874,0.92166,0.35827,,,0.81341,0.57187,-0.10466,-0.01905,
2.89844,0.09163,-0.07465,-0.57078,0.18069,0.92069,0.35682,,,0.81341,0.57188,-0.10464,-0.01909,
2.90625,0.12601,-0.14493,-0.57078,0.17435,0.91972,0.36360,,,0.81340,0.57189,-0.10463,-0.01912,
2.91406,0.16039,-0.03950,-0.60578,0.18361,0.92215,0.35876,,,0.81340,0.57191,-0.10461,-0.01916,
2.92188,0.09163,-0.03950,-0.60578,0.18166,0.91778,0.35682,,,0.81339,0.57192,-0.10459,-0.01919,
2.92969,0.05725,0.03078,-0.60578,0.17874,0.91389,0.35827,,,0.81339,0.57192,-0.10456,-0.01923,
2.93750,0.02287,-0.10979,-0.50076,0.18215,0.91778,0.35295,,,0.81339,0.57193,-0.10455,-0.01926,
2.94531,0.12601,-0.18007,-0.64079,0.18312,0.91535,0.35924,,,0.81338,0.57194,-0.10453,-0.01930,
2.95313,0.16039,-0.03950,-0.64079,0.18020,0.91195,0.35730,,,0.81337,0.57195,-0.10451,-0.01933,
2.96094,0.22914,-0.10979,-0.71080,0.17874,0.92021,0.35391,,,0.81336,0.57197,-0.10449,-0.01938,
2.96875,0.36666,-0.21522,-0.74580,0.18215,0.91972,0.36166,,,0.81334,0.57200,-0.10447,-0.01942,
2.97656,0.36666,-0.21522,-0.78081,0.17874,0.91583,0.35730,,,0.81333,0.57202,-0.10446,-0.01947,
2.98438,0.40104,-0.28550,-0.71080,0.18458,0.91535,0.36021,,,0.81331,0.57205,-0.10444,-0.01952,
2.99219,0.36666,-0.21522,-0.64079,0.18117,0.91972,0.36118,,,0.81329,0.57207,-0.10443,-0.01956,
3.00000,0.40104,-0.14493,-0.57078,0.17825,0.92166,0.35682,,,0.81328,0.57210,-0.10442,-0.01960,
3.00781,0.40104,-0.14493,-0.50076,0.18556,0.91826,0.35440,1020.912,28.0,0.81326,0.57212,-0.10441,-0.01963,
3.01563,0.29790,-0.18007,-0.53577,0.18361,0.91972,0.35876,,,0.81324,0.57214,-0.10440,-0.01966,
3.02344,0.02287,-0.03950,-0.53577,0.18264,0.92458,0.36166,,,0.81324,0.57215,-0.10438,-0.01969,
3.03125,0.19477,0.17135,-0.50076,0.18069,0.92118,0.36069,,,0.81324,0.57216,-0.10435,-0.01971,
3.03906,0.22914,0.10107,-0.43075,0.18605,0.91923,0.36263,,,0.81323,0.57218,-0.10433,-0.01973,
3.04688,0.12601,0.27678,-0.46576,0.18166,0.91826,0.35779,,,0.81322,0.57219,-0.10429,-0.01974,
3.05469,0.22914,0.27678,-0.39575,0.18069,0.91632,0.35730,,,0.81322,0.57221,-0.10426,-0.01975,
3.06250,0.26352,0.24163,-0.36074,0.18166,0.91583,0.36505,,,0.81321,0.57222,-0.10424,-0.01976,
3.07031,0.33228,0.24163,-0.43075,0.17874,0.91632,0.36408,,,0.81319,0.57224,-0.10421,-0.01977,
3.07813,0.40104,0.27678,-0.43075,0.17728,0.91875,0.35827,,,0.81318,0.57227,-0.10418,-0.01979,
3.08594,0.36666,0.27678,-0.43075,0.17874,0.91778,0.36166,,,0.81317,0.57229,-0.10414,-0.01980,
3.09375,0.40104,0.38220,-0.43075,0.18215,0.92021,0.35634,,,0.81315,0.57232,-0.10411,-0.01980,
3.10156,0.53855,0.27678,-0.32574,0.18020,0.92069,0.35682,,,0.81313,0.57235,-0.10408,-0.01980,
3.10938,0.46979,0.31192,-0.32574,0.18458,0.91923,0.35537,,,0.81312,0.57238,-0.10405,-0.01981,
3.11719,0.36666,0.13621,-0.39575,0.17630,0.92069,0.35585,,,0.81310,0.57240,-0.10403,-0.01982,
3.12500,0.33228,0.10107,-0.32574,0.18264,0.92215,0.35585,,,0.81309,0.57243,-0.10401,-0.01983,
3.13281,0.29790,0.06592,-0.50076,0.17581,0.91972,0.36360,,,0.81308,0.57245,-0.10399,-0.01986,
3.14063,0.22914,0.06592,-0.46576,0.18361,0.91972,0.35682,,,0.81307,0.57246,-0.10397,-0.01988,
3.14844,0.19477,-0.00436,-0.43075,0.17728,0.91875,0.35440,,,0.81306,0.57248,-0.10395,-0.01990,
3.15625,0.26352,0.03078,-0.57078,0.17630,0.91826,0.35827,,,0.81305,0.57249,-0.10393,-0.01993,
3.16406,0.09163,-0.14493,-0.57078,0.17630,0.91486,0.35827,,,0.81305,0.57250,-0.10391,-0.01997,
3.17188,0.16039,-0.18007,-0.57078,0.18117,0.91778,0.36069,,,0.81304,0.57252,-0.10390,-0.02000,
3.17969,0.22914,-0.42607,-0.53577,0.18166,0.91875,0.35585,,,0.81303,0.57253,-0.10390,-0.02005,
3.18750,0.40104,-0.53150,-0.67579,0.17874,0.91826,0.35682,,,0.81301,0.57256,-0.10391,-0.02010,
3.19531,0.33228,-0.56664,-0.60578,0.18166,0.91680,0.35827,,,0.81299,0.57258,-0.10391,-0.02016,
3.20313,0.36666,-0.70721,-0.60578,0.17776,0.92215,0.35730,,,0.81297,0.57260,-0.10393,-0.02022,
3.21094,0.29790,-0.74235,-0.78081,0.18312,0.91923,0.35827,,,0.81295,0.57262,-0.10394,-0.02029,
3.21875,0.22914,-0.63692,-0.71080,0.17728,0.91875,0.35730,,,0.81293,0.57264,-0.10395,-0.02035,
3.22656,0.29790,-0.60178,-0.74580,0.17776,0.92166,0.36069,,,0.81292,0.57266,-0.10395,-0.02041,
3.23438,0.05725,-0.74235,-0.67579,0.17094,0.91632,0.36408,,,0.81291,0.57267,-0.10397,-0.02048,
3.24219,0.09163,-0.74235,-0.71080,0.17874,0.92021,0.35730,,,0.81290,0.57268,-0.10398,-0.02054,
3.25000,0.02287,-0.63692,-0.78081,0.18507,0.91826,0.35585,,,0.81289,0.57268,-0.10399,-0.02061,
3.25781,0.19477,-0.84778,-0.67579,0.18312,0.91729,0.35730,,,0.81288,0.57270,-0.10401,-0.02068,
3.26563,0.33228,-0.74235,-0.74580,0.18264,0.91632,0.35682,,,0.81286,0.57272,-0.10402,-0.02075,
3.27344,0.22914,-0.67207,-0.71080,0.18458,0.91875,0.35488,,,0.81284,0.57274,-0.10403,-0.02081,
3.28125,0.36666,-0.63692,-0.81581,0.18458,0.91778,0.35634,,,0.81282,0.57276,-0.10403,-0.02088,
3.28906,0.46979,-0.46121,-0.74580,0.18264,0.91486,0.35585,,,0.81280,0.57279,-0.10403,-0.02094,
3.29688,0.43541,-0.56664,-0.78081,0.18556,0.91632,0.35876,,,0.81278,0.57282,-0.10403,-0.02100,
3.30469,0.53855,-0.39093,-0.74580,0.18458,0.91972,0.35876,,,0.81276,0.57286,-0.10403,-0.02105,
3.31250,0.53855,-0.28550,-0.78081,0.18458,0.92264,0.35295,,,0.81273,0.57289,-0.10401,-0.02110,
3.32031,0.53855,-0.39093,-0.78081,0.18215,0.91923,0.35440,,,0.81271,0.57293,-0.10400,-0.02116,
3.32813,0.60730,-0.21522,-0.67579,0.17874,0.92264,0.35973,,,0.81268,0.57296,-0.10399,-0.02120,
3.33594,0.57293,-0.14493,-0.67579,0.17922,0.92021,0.35537,,,0.81266,0.57300,-0.10397,-0.02124,
3.34375,0.57293,-0.07465,-0.57078,0.18020,0.92118,0.35730,,,0.81263,0.57304,-0.10396,-0.02127,
3.35156,0.43541,-0.03950,-0.50076,0.18312,0.92118,0.35730,,,0.81261,0.57306,-0.10394,-0.02129,
3.35938,0.43541,0.03078,-0.50076,0.18069,0.92409,0.35973,,,0.81260,0.57309,-0.10392,-0.02132,
3.36719,0.26352,0.03078,-0.50076,0.18507,0.92069,0.35682,,,0.81259,0.57311,-0.10390,-0.02134,
3.37500,0.36666,0.24163,-0.57078,0.18264,0.91389,0.35488,,,0.81257,0.57313,-0.10386,-0.02136,
3.38281,0.40104,0.13621,-0.50076,0.18312,0.91486,0.35488,,,0.81256,0.57316,-0.10384,-0.02138,
3.39063,0.43541,0.27678,-0.46576,0.18361,0.91729,0.35730,,,0.81254,0.57319,-0.10380,-0.02139,
3.39844,0.57293,0.20649,-0.43075,0.18312,0.91972,0.35876,,,0.81252,0.57322,-0.10378,-0.02141,
3.40625,0.64168,0.13621,-0.39575,0.18166,0.92215,0.35343,,,0.81249,0.57326,-0.10375,-0.02142,
3.41406,0.60730,0.20649,-0.53577,0.17971,0.92021,0.35973,,,0.81247,0.57330,-0.10372,-0.02143,
3.42188,0.64168,0.31192,-0.53577,0.18264,0.92312,0.35682,,,0.81245,0.57334,-0.10369,-0.02145,
3.42969,0.53855,0.24163,-0.39575,0.18117,0.92555,0.35973,,,0.81243,0.57337,-0.10366,-0.02146,
3.43750,0.40104,0.38220,-0.46576,0.17776,0.92555,0.36069,,,0.81241,0.57340,-0.10362,-0.02146,
3.44531,0.19477,0.34706,-0.43075,0.18117,0.92604,0.36166,,,0.81241,0.57341,-0.10358,-0.02147,
3.45313,0.26352,0.31192,-0.39575,0.18166,0.92847,0.36166,,,0.81240,0.57343,-0.10355,-0.02148,
3.46094,0.02287,0.10107,-0.46576,0.17874,0.92409,0.35246,,,0.81240,0.57343,-0.10353,-0.02150,
3.46875,0.09163,-0.21522,-0.36074,0.18410,0.91778,0.35634,,,0.81239,0.57344,-0.10352,-0.02153,
3.47656,0.12601,-0.21522,-0.43075,0.18361,0.91583,0.35924,,,0.81239,0.57345,-0.10352,-0.02156,
3.48438,0.26352,-0.10979,-0.53577,0.17971,0.91389,0.35585,,,0.81237,0.57347,-0.10351,-0.02159,
3.49219,0.53855,-0.00436,-0.71080,0.18069,0.91583,0.35537,,,0.81235,0.57350,-0.10348,-0.02163,
3.50000,0.57293,-0.00436,-0.64079,0.18361,0.91486,0.35488,,,0.81233,0.57354,-0.10345,-0.02166,
3.50781,0.60730,-0.03950,-0.74580,0.18361,0.91729,0.36021,,,0.81230,0.57358,-0.10343,-0.02170,
3.51563,0.57293,-0.10979,-0.67579,0.17776,0.92021,0.36021,,,0.81228,0.57362,-0.10341,-0.02174,
3.52344,0.60730,0.06592,-0.64079,0.18117,0.91826,0.35295,,,0.81226,0.57365,-0.10338,-0.02177,
3.53125,0.50417,-0.39093,-0.67579,0.18800,0.92069,0.35537,,,0.81223,0.57369,-0.10338,-0.02181,
3.53906,0.46979,-0.39093,-0.67579,0.18556,0.92118,0.35730,,,0.81221,0.57372,-0.10337,-0.02186,
3.54688,0.64168,-0.28550,-0.60578,0.18020,0.91486,0.35682,,,0.81218,0.57376,-0.10337,-0.02190,
3.55469,0.60730,-0.21522,-0.64079,0.18215,0.91680,0.35827,,,0.81216,0.57379,-0.10335,-0.02194,
3.56250,0.60730,-0.25036,-0.60578,0.18215,0.92069,0.35391,,,0.81213,0.57383,-0.10335,-0.02198,
3.57031,0.71044,-0.07465,-0.57078,0.18264,0.91875,0.35343,,,0.81210,0.57387,-0.10333,-0.02201,
3.57813,0.77920,-0.07465,-0.67579,0.18117,0.92166,0.35827,,,0.81207,0.57392,-0.10331,-0.02205,
3.58594,0.88233,-0.25036,-0.57078,0.18020,0.92264,0.35682,,,0.81203,0.57397,-0.10330,-0.02208,
3.59375,0.84795,-0.18007,-0.64079,0.18069,0.91778,0.35585,,,0.81200,0.57403,-0.10329,-0.02212,
3.60156,0.67606,-0.10979,-0.67579,0.18215,0.92118,0.35876,,,0.81197,0.57407,-0.10327,-0.02216,
3.60938,0.67606,-0.21522,-0.71080,0.18020,0.92312,0.35779,,,0.81194,0.57411,-0.10325,-0.02220,
3.61719,0.67606,-0.18007,-0.60578,0.17728,0.92069,0.35682,,,0.81191,0.57415,-0.10324,-0.02223,
3.62500,0.67606,-0.21522,-0.53577,0.17874,0.92166,0.35295,,,0.81188,0.57419,-0.10323,-0.02227,
3.63281,0.67606,-0.28550,-0.60578,0.18166,0.92069,0.35827,,,0.81185,0.57423,-0.10322,-0.02231,
3.64063,0.71044,-0.39093,-0.57078,0.17386,0.91535,0.35295,,,0.81182,0.57428,-0.10323,-0.02235,
3.64844,0.60730,-0.49635,-0.67579,0.18361,0.91875,0.35343,,,0.81179,0.57431,-0.10323,-0.02240,
3.65625,0.74482,-0.28550,-0.67579,0.18020,0.91486,0.35973,,,0.81176,0.57436,-0.10322,-0.02245,
3.66406,0.71044,-0.21522,-0.64079,0.18653,0.92021,0.35827,,,0.81173,0.57440,-0.10321,-0.02248,
3.67188,0.74482,-0.10979,-0.57078,0.18507,0.92118,0.35634,,,0.81170,0.57445,-0.10319,-0.02251,
3.67969,0.67606,-0.35578,-0.57078,0.18166,0.91972,0.35391,,,0.81167,0.57449,-0.10319,-0.02256,
3.68750,0.64168,-0.21522,-0.57078,0.17679,0.91972,0.35973,,,0.81164,0.57453,-0.10318,-0.02259,
3.69531,0.60730,-0.35578,-0.67579,0.18069,0.92264,0.35682,,,0.81161,0.57456,-0.10317,-0.02264,
3.70313,0.57293,-0.42607,-0.67579,0.18117,0.92701,0.36021,,,0.81159,0.57460,-0.10317,-0.02269,
3.71094,0.53855,-0.28550,-0.50076,0.18020,0.92507,0.36215,,,0.81156,0.57463,-0.10317,-0.02272,
3.71875,0.43541,-0.18007,-0.57078,0.17630,0.92215,0.35924,,,0.81155,0.57466,-0.10316,-0.02276,
3.72656,0.50417,-0.10979,-0.64079,0.17776,0.92604,0.36408,,,0.81152,0.57469,-0.10314,-0.02279,
3.73438,0.50417,-0.21522,-0.60578,0.18117,0.92215,0.35682,,,0.81150,0.57472,-0.10313,-0.02283,
3.74219,0.29790,-0.35578,-0.60578,0.17581,0.91729,0.35779,,,0.81149,0.57475,-0.10312,-0.02288,
3.75000,0.33228,-0.28550,-0.67579,0.18069,0.91680,0.35730,,,0.81147,0.57477,-0.10311,-0.02292,
3.75781,0.33228,-0.28550,-0.71080,0.18264,0.92118,0.35149,,,0.81145,0.57479,-0.10310,-0.02297,
3.76563,0.29790,-0.39093,-0.78081,0.17386,0.91583,0.35440,,,0.81144,0.57481,-0.10309,-0.02303,
3.77344,0.33228,-0.39093,-0.74580,0.17922,0.91340,0.35585,,,0.81142,0.57483,-0.10309,-0.02308,
3.78125,0.57293,-0.39093,-0.78081,0.18264,0.91632,0.35779,,,0.81140,0.57487,-0.10308,-0.02314,
3.78906,0.57293,-0.49635,-0.81581,0.18020,0.91923,0.35440,,,0.81137,0.57491,-0.10308,-0.02320,
3.79688,0.46979,-0.49635,-0.74580,0.18507,0.91875,0.35634,,,0.81134,0.57494,-0.10307,-0.02326,
3.80469,0.60730,-0.60178,-0.78081,0.18117,0.92118,0.35440,,,0.81132,0.57498,-0.10308,-0.02332,
3.81250,0.64168,-0.39093,-0.71080,0.18410,0.92215,0.35827,,,0.81129,0.57502,-0.10307,-0.02337,
3.82031,0.64168,-0.35578,-0.78081,0.18215,0.92361,0.35827,,,0.81126,0.57506,-0.10306,-0.02342,
3.82813,0.64168,-0.21522,-0.71080,0.18215,0.92604,0.35876,,,0.81123,0.57510,-0.10305,-0.02346,
3.83594,0.46979,-0.39093,-0.67579,0.18361,0.92361,0.35198,,,0.81121,0.57513,-0.10304,-0.02351,
3.84375,0.43541,-0.21522,-0.67579,0.18117,0.92166,0.35876,,,0.81119,0.57516,-0.10303,-0.02356,
3.85156,0.53855,-0.28550,-0.60578,0.18166,0.91875,0.35585,,,0.81116,0.57519,-0.10302,-0.02360,
3.85938,0.46979,-0.32064,-0.67579,0.18507,0.92264,0.35682,,,0.81114,0.57522,-0.10302,-0.02364,
3.86719,0.50417,-0.18007,-0.71080,0.18166,0.91826,0.35246,,,0.81112,0.57525,-0.10300,-0.02369,
3.87500,0.43541,-0.25036,-0.74580,0.18312,0.91778,0.35343,,,0.81110,0.57528,-0.10298,-0.02373,
3.88281,0.50417,-0.21522,-0.71080,0.18361,0.91875,0.35440,,,0.81108,0.57531,-0.10297,-0.02378,
3.89063,0.40104,-0.18007,-0.57078,0.18410,0.91972,0.35343,,,0.81106,0.57534,-0.10296,-0.02381,
3.89844,0.64168,-0.18007,-0.53577,0.18458,0.92021,0.35682,,,0.81103,0.57538,-0.10295,-0.02385,
3.90625,0.67606,-0.28550,-0.57078,0.18069,0.91972,0.35440,,,0.81100,0.57542,-0.10294,-0.02388,
3.91406,0.64168,-0.35578,-0.64079,0.17971,0.91972,0.35537,,,0.81097,0.57546,-0.10294,-0.02393,
3.92188,0.81357,-0.32064,-0.57078,0.18410,0.92361,0.35682,,,0.81094,0.57551,-0.10293,-0.02397,
3.92969,0.74482,-0.21522,-0.50076,0.18020,0.92166,0.35585,,,0.81091,0.57555,-0.10293,-0.02400,
3.93750,0.71044,-0.21522,-0.53577,0.18117,0.92166,0.35876,,,0.81088,0.57559,-0.10292,-0.02403,
3.94531,0.60730,-0.10979,-0.50076,0.18166,0.92118,0.35391,,,0.81085,0.57563,-0.10291,-0.02406,
3.95313,0.53855,-0.18007,-0.57078,0.18410,0.92118,0.35537,,,0.81083,0.57566,-0.10289,-0.02409,
3.96094,0.57293,-0.14493,-0.71080,0.18897,0.91923,0.35634,,,0.81080,0.57570,-0.10288,-0.02414,
3.96875,0.57293,-0.14493,-0.60578,0.17922,0.91778,0.35440,,,0.81078,0.57573,-0.10286,-0.02417,
3.97656,0.71044,-0.07465,-0.57078,0.18264,0.91778,0.35682,,,0.81075,0.57578,-0.10284,-0.02420,
3.98438,0.64168,-0.03950,-0.50076,0.17825,0.91778,0.35682,,,0.81072,0.57582,-0.10283,-0.02422,
3.99219,0.81357,-0.00436,-0.60578,0.18410,0.92361,0.35682,,,0.81069,0.57587,-0.10281,-0.02425,
4.00000,0.67606,-0.25036,-0.46576,0.18264,0.91729,0.35634,,,0.81066,0.57591,-0.10280,-0.02428,
4.00781,0.67606,-0.10979,-0.50076,0.18166,0.92215,0.35053,1020.907,28.0,0.81063,0.57595,-0.10279,-0.02431,
4.01563,0.74482,-0.18007,-0.50076,0.18215,0.92069,0.35343,,,0.81060,0.57599,-0.10278,-0.02434,
4.02344,0.64168,-0.25036,-0.67579,0.18556,0.91923,0.35779,,,0.81058,0.57603,-0.10277,-0.02438,
4.03125,0.67606,-0.07465,-0.50076,0.18264,0.92361,0.36118,,,0.81055,0.57607,-0.10276,-0.02441,
4.03906,0.74482,-0.14493,-0.64079,0.18166,0.92652,0.35585,,,0.81052,0.57612,-0.10274,-0.02444,
4.04688,0.67606,-0.07465,-0.67579,0.17922,0.92264,0.35537,,,0.81049,0.57616,-0.10272,-0.02448,
4.05469,0.57293,-0.10979,-0.57078,0.18605,0.92021,0.35537,,,0.81046,0.57619,-0.10270,-0.02451,
4.06250,0.43541,-0.00436,-0.50076,0.18264,0.91826,0.35391,,,0.81045,0.57622,-0.10268,-0.02454,
4.07031,0.46979,-0.03950,-0.57078,0.18166,0.91778,0.35440,,,0.81043,0.57625,-0.10266,-0.02457,
4.07813,0.50417,-0.03950,-0.53577,0.18507,0.92069,0.35488,,,0.81041,0.57628,-0.10265,-0.02459,
4.08594,0.46979,-0.03950,-0.57078,0.18166,0.91923,0.35488,,,0.81039,0.57631,-0.10263,-0.02462,
4.09375,0.43541,-0.10979,-0.67579,0.18410,0.91972,0.35149,,,0.81037,0.57634,-0.10261,-0.02466,
4.10156,0.43541,-0.03950,-0.60578,0.18069,0.91778,0.35246,,,0.81035,0.57637,-0.10259,-0.02469,
4.10938,0.57293,-0.10979,-0.50076,0.18264,0.91729,0.35343,,,0.81032,0.57640,-0.10257,-0.02472,
4.11719,0.53855,-0.10979,-0.50076,0.18020,0.91778,0.35440,,,0.81030,0.57644,-0.10256,-0.02475,
4.12500,0.60730,-0.10979,-0.60578,0.18215,0.91778,0.35827,,,0.81028,0.57648,-0.10254,-0.02478,
4.13281,0.64168,-0.25036,-0.53577,0.18020,0.92409,0.35585,,,0.81025,0.57651,-0.10254,-0.02482,
4.14063,0.74482,-0.35578,-0.53577,0.17874,0.91972,0.35537,,,0.81022,0.57656,-0.10254,-0.02486,
4.14844,0.71044,-0.32064,-0.46576,0.18215,0.92264,0.35149,,,0.81018,0.57660,-0.10254,-0.02489,
4.15625,0.64168,-0.25036,-0.53577,0.18507,0.92604,0.35149,,,0.81016,0.57664,-0.10253,-0.02493,
4.16406,0.53855,-0.35578,-0.57078,0.18020,0.92555,0.35537,,,0.81013,0.57667,-0.10253,-0.02497,
4.17188,0.43541,-0.32064,-0.46576,0.17728,0.92312,0.35537,,,0.81011,0.57670,-0.10253,-0.02500,
4.17969,0.43541,-0.28550,-0.46576,0.18264,0.92312,0.35682,,,0.81009,0.57673,-0.10253,-0.02504,
4.18750,0.43541,-0.25036,-0.64079,0.18020,0.92166,0.35827,,,0.81007,0.57675,-0.10252,-0.02508,
4.19531,0.36666,-0.28550,-0.71080,0.17922,0.91972,0.35101,,,0.81005,0.57678,-0.10251,-0.02513,
4.20313,0.33228,-0.25036,-0.57078,0.18458,0.91486,0.35779,,,0.81004,0.57680,-0.10250,-0.02517,
4.21094,0.43541,-0.18007,-0.64079,0.18020,0.91680,0.35440,,,0.81002,0.57683,-0.10249,-0.02520,
4.21875,0.36666,-0.35578,-0.57078,0.18117,0.91875,0.35488,,,0.81000,0.57685,-0.10248,-0.02525,
4.22656,0.40104,-0.35578,-0.60578,0.18458,0.91583,0.35440,,,0.80998,0.57688,-0.10248,-0.02529,
4.23438,0.53855,-0.46121,-0.71080,0.17874,0.92021,0.35343,,,0.80996,0.57691,-0.10248,-0.02535,
4.24219,0.53855,-0.25036,-0.74580,0.18312,0.92312,0.35004,,,0.80993,0.57695,-0.10246,-0.02539,
4.25000,0.46979,-0.42607,-0.71080,0.18166,0.92458,0.35295,,,0.80991,0.57698,-0.10246,-0.02545,
4.25781,0.43541,-0.42607,-0.64079,0.18312,0.91972,0.35149,,,0.80989,0.57700,-0.10246,-0.02549,
4.26563,0.43541,-0.28550,-0.57078,0.18410,0.92701,0.35779,,,0.80987,0.57703,-0.10245,-0.02553,
4.27344,0.46979,-0.42607,-0.64079,0.18312,0.91729,0.35827,,,0.80985,0.57706,-0.10245,-0.02558,
4.28125,0.36666,-0.35578,-0.64079,0.18069,0.92264,0.35198,,,0.80983,0.57708,-0.10245,-0.02563,
4.28906,0.43541,-0.21522,-0.57078,0.18312,0.91972,0.35391,,,0.80981,0.57711,-0.10244,-0.02567,
4.29688,0.46979,-0.28550,-0.60578,0.17971,0.91923,0.35537,,,0.80979,0.57714,-0.10243,-0.02571,
4.30469,0.36666,-0.25036,-0.71080,0.18117,0.91923,0.35634,,,0.80977,0.57717,-0.10242,-0.02575,
4.31250,0.43541,-0.21522,-0.74580,0.18166,0.92021,0.35295,,,0.80975,0.57719,-0.10240,-0.02580,
4.32031,0.33228,-0.10979,-0.67579,0.17874,0.91972,0.35343,,,0.80973,0.57722,-0.10238,-0.02584,
4.32813,0.29790,-0.10979,-0.78081,0.18556,0.92361,0.35585,,,0.80972,0.57724,-0.10236,-0.02589,
4.33594,0.53855,-0.00436,-0.57078,0.18556,0.92118,0.35440,,,0.80970,0.57727,-0.10234,-0.02591,
4.34375,0.53855,-0.10979,-0.64079,0.17874,0.92458,0.35246,,,0.80968,0.57731,-0.10232,-0.02595,
4.35156,0.64168,-0.14493,-0.60578,0.17874,0.92312,0.35440,,,0.80965,0.57735,-0.10230,-0.02598,
4.35938,0.64168,-0.21522,-0.60578,0.17728,0.92264,0.36069,,,0.80962,0.57739,-0.10229,-0.02602,
4.36719,0.64168,-0.03950,-0.60578,0.18069,0.92312,0.35876,,,0.80959,0.57743,-0.10227,-0.02605,
4.37500,0.60730,-0.00436,-0.39575,0.18117,0.91923,0.35682,,,0.80957,0.57746,-0.10226,-0.02607,
4.38281,0.57293,-0.00436,-0.50076,0.17825,0.92166,0.36215,,,0.80955,0.57750,-0.10224,-0.02609,
4.39063,0.43541,0.24163,-0.32574,0.18312,0.92409,0.35149,,,0.80953,0.57752,-0.10221,-0.02610,
4.39844,0.19477,0.10107,-0.25573,0.18117,0.92409,0.35876,,,0.80952,0.57754,-0.10220,-0.02611,
4.40625,-0.08026,-0.00436,-0.36074,0.17922,0.92652,0.35391,,,0.80952,0.57753,-0.10218,-0.02613,
4.41406,-0.25215,-0.10979,-0.46576,0.18264,0.92118,0.35004,,,0.80953,0.57752,-0.10217,-0.02616,
4.42188,-0.28653,-0.32064,-0.57078,0.17240,0.91632,0.34907,,,0.80954,0.57751,-0.10217,-0.02621,
4.42969,-0.14902,-0.32064,-0.50076,0.17630,0.92021,0.34375,,,0.80954,0.57750,-0.10216,-0.02625,
4.43750,0.02287,-0.35578,-0.46576,0.17484,0.91972,0.35198,,,0.80954,0.57751,-0.10217,-0.02629,
4.44531,0.12601,-0.28550,-0.57078,0.18020,0.91826,0.35004,,,0.80953,0.57752,-0.10216,-0.02633,
4.45313,0.22914,-0.25036,-0.64079,0.18751,0.92264,0.35537,,,0.80952,0.57754,-0.10215,-0.02637,
4.46094,0.22914,-0.14493,-0.67579,0.17922,0.92021,0.35149,,,0.80951,0.57755,-0.10213,-0.02641,
4.46875,0.12601,-0.03950,-0.85082,0.18166,0.91535,0.35488,,,0.80950,0.57757,-0.10210,-0.02646,
4.47656,0.16039,-0.25036,-0.67579,0.18215,0.91826,0.35440,,,0.80949,0.57758,-0.10209,-0.02651,
4.48438,0.12601,-0.32064,-0.74580,0.18410,0.91972,0.35391,,,0.80948,0.57759,-0.10207,-0.02656,
4.49219,0.09163,-0.53150,-0.67579,0.17825,0.92069,0.35295,,,0.80948,0.57760,-0.10208,-0.02662,
4.50000,0.12601,-0.32064,-0.67579,0.18361,0.92166,0.35343,,,0.80947,0.57761,-0.10207,-0.02667,
4.50781,0.09163,-0.18007,-0.64079,0.18264,0.92118,0.35004,,,0.80946,0.57762,-0.10205,-0.02671,
4.51563,0.05725,-0.25036,-0.57078,0.18556,0.92555,0.34907,,,0.80946,0.57763,-0.10205,-0.02675,
4.52344,0.22914,-0.21522,-0.67579,0.18410,0.91729,0.35343,,,0.80944,0.57764,-0.10203,-0.02679,
4.53125,0.22914,-0.25036,-0.71080,0.18166,0.91875,0.35053,,,0.80943,0.57766,-0.10202,-0.02684,
4.53906,0.29790,-0.21522,-0.64079,0.18556,0.91875,0.35682,,,0.80942,0.57768,-0.10200,-0.02688,
4.54688,0.33228,-0.25036,-0.57078,0.17874,0.91875,0.35004,,,0.80940,0.57770,-0.10200,-0.02692,
4.55469,0.46979,-0.18007,-0.64079,0.18458,0.91826,0.35537,,,0.80938,0.57773,-0.10198,-0.02696,
4.56250,0.46979,-0.25036,-0.53577,0.17581,0.91972,0.35101,,,0.80936,0.57776,-0.10198,-0.02700,
4.57031,0.46979,-0.25036,-0.67579,0.17922,0.91632,0.35053,,,0.80934,0.57779,-0.10196,-0.02704,
4.57813,0.50417,-0.21522,-0.57078,0.18264,0.91923,0.35585,,,0.80932,0.57782,-0.10195,-0.02708,
4.58594,0.53855,-0.25036,-0.64079,0.17825,0.91875,0.35053,,,0.80929,0.57786,-0.10194,-0.02712,
4.59375,0.53855,-0.28550,-0.57078,0.18215,0.91972,0.35440,,,0.80927,0.57789,-0.10194,-0.02716,
4.60156,0.57293,-0.32064,-0.60578,0.18507,0.92361,0.35634,,,0.80924,0.57792,-0.10193,-0.02720,
4.60938,0.57293,-0.18007,-0.60578,0.18117,0.92409,0.35198,,,0.80922,0.57796,-0.10192,-0.02724,
4.61719,0.57293,-0.07465,-0.50076,0.18702,0.92458,0.34859,,,0.80919,0.57799,-0.10191,-0.02726,
4.62500,0.60730,-0.14493,-0.53577,0.18166,0.92652,0.35876,,,0.80917,0.57803,-0.10189,-0.02729,
4.63281,0.29790,-0.00436,-0.46576,0.17825,0.92993,0.35488,,,0.80916,0.57805,-0.10188,-0.02732,
4.64063,0.22914,-0.03950,-0.43075,0.18507,0.91972,0.35634,,,0.80915,0.57807,-0.10186,-0.02734,
4.64844,0.16039,-0.07465,-0.43075,0.17728,0.92118,0.35876,,,0.80914,0.57808,-0.10185,-0.02737,
4.65625,0.16039,-0.25036,-0.50076,0.17971,0.91875,0.35246,,,0.80913,0.57809,-0.10184,-0.02740,
4.66406,0.12601,-0.28550,-0.43075,0.18215,0.92118,0.35537,,,0.80912,0.57810,-0.10184,-0.02744,
4.67188,0.26352,-0.18007,-0.50076,0.18166,0.91535,0.35537,,,0.80911,0.57812,-0.10183,-0.02747,
4.67969,0.16039,-0.03950,-0.64079,0.18215,0.91923,0.35876,,,0.80910,0.57813,-0.10181,-0.02751,
4.68750,0.22914,-0.03950,-0.71080,0.18361,0.92021,0.35295,,,0.80909,0.57815,-0.10179,-0.02754,
4.69531,0.26352,-0.07465,-0.46576,0.17922,0.92069,0.35440,,,0.80908,0.57816,-0.10177,-0.02757,
4.70313,0.33228,-0.18007,-0.64079,0.18069,0.92021,0.35391,,,0.80906,0.57819,-0.10176,-0.02761,
4.71094,0.26352,-0.10979,-0.64079,0.17874,0.92166,0.35876,,,0.80905,0.57821,-0.10174,-0.02765,
4.71875,0.22914,-0.18007,-0.67579,0.18069,0.92215,0.35391,,,0.80904,0.57822,-0.10172,-0.02769,
4.72656,0.19477,-0.21522,-0.60578,0.18312,0.92798,0.35682,,,0.80903,0.57824,-0.10171,-0.02773,
4.73438,0.29790,-0.25036,-0.67579,0.17922,0.91923,0.35876,,,0.80901,0.57826,-0.10170,-0.02778,
4.74219,0.26352,-0.35578,-0.74580,0.18264,0.92604,0.35779,,,0.80900,0.57828,-0.10169,-0.02783,
4.75000,0.16039,-0.28550,-0.53577,0.18215,0.92166,0.35537,,,0.80899,0.57829,-0.10168,-0.02787,
4.75781,0.19477,-0.28550,-0.57078,0.18166,0.92264,0.35053,,,0.80898,0.57830,-0.10168,-0.02791,
4.76563,0.26352,-0.25036,-0.50076,0.18361,0.92021,0.35682,,,0.80897,0.57832,-0.10167,-0.02795,
4.77344,0.12601,-0.18007,-0.50076,0.18751,0.91972,0.35730,,,0.80896,0.57833,-0.10166,-0.02798,
4.78125,0.26352,-0.18007,-0.46576,0.18117,0.91632,0.35682,,,0.80895,0.57835,-0.10166,-0.02801,
4.78906,0.33228,-0.35578,-0.64079,0.18069,0.91729,0.35537,,,0.80893,0.57837,-0.10165,-0.02806,
4.79688,0.46979,-0.32064,-0.74580,0.17922,0.91729,0.35246,,,0.80891,0.57840,-0.10164,-0.02811,
4.80469,0.43541,-0.25036,-0.64079,0.18215,0.91680,0.35343,,,0.80889,0.57843,-0.10163,-0.02815,
4.81250,0.53855,-0.14493,-0.57078,0.18215,0.91875,0.35149,,,0.80886,0.57846,-0.10162,-0.02819,
4.82031,0.60730,-0.35578,-0.71080,0.18361,0.92021,0.35488,,,0.80884,0.57850,-0.10161,-0.02823,
4.82813,0.50417,-0.32064,-0.78081,0.18264,0.92361,0.35246,,,0.80881,0.57853,-0.10160,-0.02829,
4.83594,0.40104,-0.32064,-0.85082,0.18166,0.92555,0.36118,,,0.80879,0.57856,-0.10158,-0.02834,
4.84375,0.40104,-0.28550,-0.74580,0.17971,0.92264,0.35682,,,0.80877,0.57859,-0.10157,-0.02839,
4.85156,0.33228,-0.32064,-0.78081,0.17581,0.92166,0.35827,,,0.80876,0.57861,-0.10156,-0.02845,
4.85938,0.46979,-0.28550,-0.81581,0.18410,0.92166,0.35343,,,0.80874,0.57864,-0.10154,-0.02850,
4.86719,0.40104,-0.42607,-0.78081,0.17971,0.91923,0.35343,,,0.80872,0.57867,-0.10153,-0.02856,
4.87500,0.33228,-0.28550,-0.74580,0.17776,0.91972,0.35779,,,0.80870,0.57869,-0.10152,-0.02861,
4.88281,0.33228,-0.53150,-0.74580,0.18458,0.92118,0.35343,,,0.80868,0.57871,-0.10152,-0.02867,
4.89063,0.36666,-0.39093,-0.88582,0.17533,0.92166,0.35682,,,0.80866,0.57874,-0.10151,-0.02873,
4.89844,0.36666,-0.53150,-0.92083,0.17874,0.91826,0.35730,,,0.80864,0.57876,-0.10150,-0.02880,
4.90625,0.26352,-0.49635,-0.99084,0.17825,0.92118,0.35149,,,0.80863,0.57878,-0.10149,-0.02887,
4.91406,0.26352,-0.46121,-1.02584,0.17289,0.91826,0.35246,,,0.80861,0.57880,-0.10148,-0.02894,
4.92188,0.22914,-0.56664,-1.09585,0.17971,0.92118,0.35585,,,0.80860,0.57882,-0.10147,-0.02902,
4.92969,0.16039,-0.53150,-1.13086,0.17484,0.92604,0.35053,,,0.80858,0.57884,-0.10145,-0.02911,
4.93750,0.12601,-0.77749,-1.16586,0.17728,0.92701,0.34859,,,0.80857,0.57885,-0.10145,-0.02920,
4.94531,0.09163,-0.60178,-1.06085,0.18117,0.93090,0.34326,,,0.80856,0.57886,-0.10144,-0.02928,
4.95313,0.02287,-0.21522,-1.09585,0.17971,0.93576,0.34714,,,0.80856,0.57887,-0.10141,-0.02935,
4.96094,-0.18340,-0.00436,-1.23588,0.18556,0.93867,0.34617,,,0.80856,0.57887,-0.10136,-0.02942,
4.96875,-0.28653,0.13621,-1.23588,0.18069,0.93916,0.34665,,,0.80857,0.57886,-0.10130,-0.02948,
4.97656,-0.76783,0.34706,-1.09585,0.18312,0.94110,0.34617,,,0.80860,0.57883,-0.10124,-0.02954,
4.98438,-1.35226,0.34706,-1.20087,0.17581,0.93819,0.34714,,,0.80865,0.57876,-0.10117,-0.02960,
4.99219,-1.62728,0.10107,-1.30589,0.17825,0.93527,0.34326,,,0.80872,0.57868,-0.10111,-0.02968,
5.00000,-1.83355,0.24163,-1.20087,0.17338,0.93381,0.34617,,,0.80879,0.57859,-0.10104,-0.02975,
5.00781,-1.93669,0.38220,-1.27088,0.17435,0.92895,0.34084,1020.896,28.0,0.80887,0.57849,-0.10097,-0.02981,
5.01563,-1.93669,0.31192,-1.41090,0.17191,0.92507,0.34568,,,0.80894,0.57840,-0.10089,-0.02989,
5.02344,-1.79917,0.62820,-1.37590,0.17143,0.91340,0.33745,,,0.80901,0.57831,-0.10080,-0.02996,
5.03125,-1.48977,0.94448,-1.34089,0.17533,0.91000,0.34907,,,0.80908,0.57824,-0.10069,-0.03000,
5.03906,-1.28350,0.94448,-1.34089,0.17143,0.90660,0.35198,,,0.80913,0.57818,-0.10058,-0.03005,
5.04688,-0.90534,1.22562,-1.62093,0.17728,0.90903,0.35634,,,0.80917,0.57814,-0.10045,-0.03010,
5.05469,-0.73345,1.57704,-1.65594,0.17045,0.91389,0.35149,,,0.80921,0.57811,-0.10030,-0.03013,
5.06250,-0.52718,1.40133,-1.65594,0.16948,0.92069,0.35634,,,0.80923,0.57810,-0.10015,-0.03017,
5.07031,-0.56156,1.12019,-1.83096,0.16948,0.92507,0.35924,,,0.80926,0.57808,-0.10002,-0.03023,
5.07813,-0.73345,1.15533,-1.69094,0.16948,0.92458,0.35343,,,0.80929,0.57806,-0.09989,-0.03028,
5.08594,-0.83658,0.97962,-1.79596,0.17338,0.93041,0.35779,,,0.80933,0.57802,-0.09976,-0.03035,
5.09375,-1.04285,1.26076,-1.62093,0.18020,0.93236,0.35488,,,0.80938,0.57798,-0.09962,-0.03040,
5.10156,-1.62728,1.54190,-1.65594,0.18361,0.94548,0.35779,,,0.80945,0.57790,-0.09947,-0.03044,
5.10938,-1.79917,1.61218,-1.62093,0.17971,0.94110,0.36311,,,0.80953,0.57782,-0.09931,-0.03048,
5.11719,-2.28047,1.92847,-1.62093,0.18312,0.93576,0.35634,,,0.80963,0.57771,-0.09914,-0.03051,
5.12500,-2.48674,2.17446,-1.69094,0.18556,0.93721,0.36021,,,0.80973,0.57759,-0.09895,-0.03053,
5.13281,-2.86490,2.49074,-1.51592,0.18166,0.93041,0.36505,,,0.80986,0.57744,-0.09874,-0.03053,
5.14063,-3.20868,2.77188,-1.58593,0.18946,0.92847,0.36796,,,0.81000,0.57728,-0.09852,-0.03053,
5.14844,-3.24306,2.94759,-1.44591,0.18361,0.92312,0.36021,,,0.81015,0.57712,-0.09830,-0.03052,
5.15625,-3.34619,3.43958,-1.48091,0.18556,0.92215,0.37038,,,0.81030,0.57695,-0.09804,-0.03049,
5.16406,-3.20868,4.21272,-1.30589,0.18800,0.92555,0.37135,,,0.81045,0.57679,-0.09775,-0.03042,
5.17188,-3.13993,4.70471,-1.09585,0.19043,0.92944,0.36989,,,0.81060,0.57664,-0.09744,-0.03031,
5.17969,-2.41798,5.75898,-0.64079,0.20067,0.94839,0.37474,,,0.81073,0.57652,-0.09709,-0.03014,
5.18750,-2.34923,7.41066,-0.36074,0.20554,0.95665,0.38394,,,0.81088,0.57641,-0.09666,-0.02988,
5.19531,-2.79614,8.60550,-0.36074,0.20992,0.94742,0.38442,,,0.81104,0.57627,-0.09617,-0.02958,
5.20313,-2.69301,10.85461,-0.18572,0.20798,0.95568,0.39943,,,0.81122,0.57615,-0.09556,-0.02918,
5.21094,-2.38360,12.78744,0.47938,0.21090,0.97949,0.41638,,,0.81140,0.57604,-0.09486,-0.02867,
5.21875,-2.86490,13.87685,0.96946,0.20456,0.98338,0.42509,,,0.81160,0.57590,-0.09413,-0.02809,
5.22656,-4.85884,16.65309,1.59955,0.20603,0.97269,0.42170,,,0.81190,0.57565,-0.09326,-0.02738,
5.23438,-5.95894,18.72649,2.15963,0.19920,0.95811,0.44156,,,0.81226,0.57534,-0.09230,-0.02656,
5.24219,-6.37148,19.88618,2.43968,0.20749,0.95082,0.44592,,,0.81263,0.57501,-0.09128,-0.02569,
5.25000,-6.40586,21.60816,3.34981,0.20359,0.91680,0.44930,,,0.81303,0.57467,-0.09020,-0.02469,
5.25781,-6.33710,23.68155,4.36497,0.19628,0.87841,0.47158,,,0.81343,0.57433,-0.08905,-0.02356,
5.26563,-5.71829,24.45468,4.75002,0.18897,0.85946,0.48417,,,0.81380,0.57402,-0.08787,-0.02238,
5.27344,-4.65257,25.22781,5.83519,0.18215,0.84440,0.49579,,,0.81415,0.57377,-0.08669,-0.02109,
5.28125,-4.34316,25.19267,6.74532,0.18069,0.83225,0.49434,,,0.81447,0.57352,-0.08555,-0.01976,
5.28906,-4.34316,25.19267,7.16539,0.18361,0.83322,0.49627,,,0.81480,0.57327,-0.08443,-0.01840,
5.29688,-3.99938,25.15753,7.41042,0.18264,0.81816,0.49482,,,0.81511,0.57303,-0.08331,-0.01703,
5.30469,-3.82749,24.73582,7.44543,0.18312,0.80844,0.49579,,,0.81540,0.57281,-0.08223,-0.01567,
5.31250,-3.55246,24.45468,7.27040,0.17435,0.81038,0.48756,,,0.81569,0.57259,-0.08115,-0.01433,
5.32031,-3.07117,23.75184,6.85034,0.17533,0.80552,0.46577,,,0.81594,0.57241,-0.08009,-0.01304,
5.32813,-3.00241,22.34614,5.83519,0.16802,0.80066,0.44495,,,0.81619,0.57223,-0.07907,-0.01186,
5.33594,-2.89928,21.46759,5.24010,0.17094,0.79580,0.43914,,,0.81642,0.57205,-0.07808,-0.01075,
5.34375,-2.21171,19.49962,3.06977,0.16899,0.78560,0.41008,,,0.81661,0.57193,-0.07711,-0.00983,
5.35156,-0.93972,17.10994,0.93445,0.16363,0.78754,0.39943,,,0.81674,0.57188,-0.07620,-0.00911,
5.35938,-0.18340,16.05567,-0.22072,0.15778,0.79580,0.40718,,,0.81683,0.57188,-0.07529,-0.00850,
5.36719,0.71044,14.12285,-2.18102,0.15437,0.81378,0.39265,,,0.81687,0.57194,-0.07442,-0.00807,
5.37500,3.70135,11.31146,-3.86127,0.14219,0.83274,0.37861,,,0.81678,0.57217,-0.07364,-0.00782,
5.38281,4.97334,9.87063,-4.52637,0.13829,0.85460,0.37328,,,0.81664,0.57248,-0.07292,-0.00766,
5.39063,6.27972,7.16467,-5.54152,0.13196,0.87161,0.34665,,,0.81642,0.57286,-0.07231,-0.00766,
5.39844,12.33029,3.36930,-5.01644,0.16022,0.90709,0.32922,,,0.81596,0.57357,-0.07193,-0.00775,
5.40625,15.28682,2.31503,-4.03630,0.16948,0.94499,0.35391,,,0.81537,0.57444,-0.07165,-0.00781,
5.41406,15.59622,2.77188,-1.93598,0.18166,0.97220,0.33648,,,0.81477,0.57532,-0.07143,-0.00773,
5.42188,17.14325,2.87731,0.58440,0.18897,0.99796,0.34181,,,0.81411,0.57627,-0.07130,-0.00750,
5.42969,17.65892,3.40444,1.70457,0.18897,1.01156,0.33987,,,0.81343,0.57724,-0.07119,-0.00719,
5.43750,17.00573,3.86129,3.48983,0.21236,1.00622,0.34520,,,0.81278,0.57817,-0.07112,-0.00676,
5.44531,15.01179,4.07215,4.61000,0.22796,0.97220,0.31130,,,0.81221,0.57898,-0.07108,-0.00627,
5.45313,14.59925,3.96672,4.75002,0.23088,0.96443,0.31324,,,0.81166,0.57977,-0.07106,-0.00578,
5.46094,13.01786,3.72072,4.46998,0.22065,0.96248,0.30743,,,0.81116,0.58047,-0.07104,-0.00532,
5.46875,12.05526,3.65044,4.22494,0.20944,0.95957,0.31421,,,0.81070,0.58112,-0.07100,-0.00489,
5.47656,10.61138,4.91556,3.87489,0.17874,0.96589,0.30840,,,0.81031,0.58168,-0.07089,-0.00442,
5.48438,10.23322,5.75898,3.62985,0.13927,0.96054,0.31905,,,0.80993,0.58223,-0.07072,-0.00395,
5.49219,10.85202,5.79412,3.34981,0.10467,0.97560,0.31954,,,0.80953,0.58282,-0.07054,-0.00348,
5.50000,11.53959,3.96672,3.24480,0.08079,0.99699,0.32389,,,0.80909,0.58344,-0.07045,-0.00309,
5.50781,10.74889,0.34706,3.24480,0.06471,0.96880,0.32922,,,0.80866,0.58402,-0.07056,-0.00284,
5.51563,10.09570,-1.93719,3.38482,0.07494,0.96880,0.31324,,,0.80825,0.58456,-0.07080,-0.00268,
5.52344,7.20793,-5.02971,3.31481,0.09589,0.94839,0.32922,,,0.80794,0.58494,-0.07121,-0.00267,
5.53125,4.66394,-5.76770,3.24480,0.12123,0.94013,0.32050,,,0.80773,0.58518,-0.07166,-0.00270,
5.53906,4.25140,-5.83798,2.99976,0.12854,0.95228,0.32438,,,0.80753,0.58540,-0.07210,-0.00274,
5.54688,3.18567,-4.95943,2.47468,0.15145,0.97269,0.31179,,,0.80738,0.58556,-0.07248,-0.00279,
5.55469,1.46676,-3.76459,1.66956,0.16655,0.99456,0.29629,,,0.80730,0.58563,-0.07275,-0.00284,
5.56250,0.36666,-3.27260,0.96946,0.16753,1.00914,0.29484,,,0.80727,0.58564,-0.07297,-0.00292,
5.57031,-2.76176,-2.11290,-0.39575,0.16704,1.02323,0.29000,,,0.80737,0.58549,-0.07307,-0.00304,
5.57813,-7.84975,-0.91806,-1.20087,0.15388,1.01448,0.27208,,,0.80768,0.58507,-0.07307,-0.00318,
5.58594,-10.29060,-0.60178,-1.20087,0.15632,1.00233,0.25659,,,0.80809,0.58451,-0.07305,-0.00332,
5.59375,-13.62529,-0.10979,-0.74580,0.13878,0.97123,0.24497,,,0.80863,0.58376,-0.07303,-0.00343,
5.60156,-16.47869,-1.41005,-0.53577,0.10467,0.93527,0.25029,,,0.80928,0.58285,-0.07308,-0.00360,
5.60938,-17.20063,-2.49947,-0.88582,0.09151,0.92409,0.25029,,,0.80995,0.58191,-0.07318,-0.00383,
5.61719,-18.43825,-2.85089,-1.90097,0.06568,0.92701,0.27983,,,0.81066,0.58090,-0.07325,-0.00414,
5.62500,-20.60408,-2.99146,-4.21132,0.04814,0.91049,0.27305,,,0.81146,0.57978,-0.07325,-0.00460,
5.63281,-20.46657,-2.88603,-5.61153,0.05399,0.91049,0.26240,,,0.81225,0.57867,-0.07318,-0.00512,
5.64063,-19.57273,-1.65605,-8.62198,0.07445,0.92507,0.25852,,,0.81301,0.57763,-0.07292,-0.00577,
5.64844,-19.09144,-0.00436,-10.54727,0.11393,0.93381,0.23286,,,0.81376,0.57663,-0.07250,-0.00644,
5.65625,-18.23198,0.94448,-11.10736,0.13001,0.93090,0.22318,,,0.81448,0.57567,-0.07200,-0.00711,
5.66406,-17.47566,2.98273,-11.66744,0.16850,0.93236,0.23286,,,0.81517,0.57476,-0.07137,-0.00773,
5.67188,-17.95695,4.21272,-12.78761,0.18848,0.89056,0.20429,,,0.81589,0.57382,-0.07063,-0.00836,
5.67969,-16.23804,3.93158,-13.38270,0.19189,0.87793,0.19025,,,0.81653,0.57299,-0.06988,-0.00903,
5.68750,-14.79415,2.03389,-15.72805,0.18264,0.87404,0.18105,,,0.81711,0.57224,-0.06914,-0.00990,
5.69531,-12.66270,2.20960,-17.40830,0.15096,0.89154,0.19364,,,0.81760,0.57162,-0.06833,-0.01084,
5.70313,-13.17838,1.64733,-17.93338,0.11685,0.91923,0.23092,,,0.81811,0.57097,-0.06753,-0.01184,
5.71094,-13.86594,0.80391,-18.35344,0.06519,0.89542,0.17572,,,0.81863,0.57028,-0.06676,-0.01289,
5.71875,-8.98423,0.83905,-17.33829,0.05301,0.91097,0.16071,,,0.81897,0.56985,-0.06603,-0.01387,
5.72656,-8.02164,0.24163,-16.32314,0.05789,0.89688,0.15151,,,0.81927,0.56948,-0.06537,-0.01481,
5.73438,-3.68998,0.80391,-13.69774,0.06422,0.89202,0.15539,,,0.81940,0.56934,-0.06479,-0.01556,
5.74219,-1.45539,1.47162,-10.86232,0.07884,0.85072,0.20187,,,0.81945,0.56930,-0.06429,-0.01612,
5.75000,-0.18340,1.89332,-9.91718,0.07592,0.81233,0.19897,,,0.81946,0.56934,-0.06380,-0.01660,
5.75781,2.05119,2.80702,-9.60213,0.06178,0.73409,0.18057,,,0.81938,0.56950,-0.06327,-0.01702,
5.76563,6.03907,3.19359,-9.32209,0.03791,0.67334,0.16362,,,0.81914,0.56988,-0.06274,-0.01739,
5.77344,8.44555,3.05302,-9.04205,0.01110,0.64710,0.16168,,,0.81882,0.57039,-0.06222,-0.01774,
5.78125,11.29894,2.10418,-7.99189,-0.03032,0.60240,0.15490,,,0.81838,0.57106,-0.06181,-0.01805,
5.78906,12.91472,0.34706,-6.24163,-0.06394,0.55769,0.17088,,,0.81787,0.57181,-0.06156,-0.01833,
5.79688,12.57094,-1.23434,-5.47151,-0.05420,0.54214,0.28419,,,0.81737,0.57253,-0.06143,-0.01863,
5.80469,6.14220,-7.27882,-4.70140,-0.04591,0.40267,0.47158,,,0.81709,0.57288,-0.06166,-0.01915,
5.81250,9.61441,-17.99722,-4.94643,0.00379,0.35067,0.63040,,,0.81663,0.57341,-0.06248,-0.02009,
5.82031,11.33332,-24.70940,-5.57653,-0.01180,0.33124,1.04295,,,0.81608,0.57403,-0.06366,-0.02132,
5.82813,19.30908,-41.43714,-8.62198,-0.23304,0.33658,1.04731,,,0.81513,0.57508,-0.06565,-0.02334,
5.83594,28.93499,-49.87129,-9.39210,-0.46987,0.49403,0.86282,,,0.81375,0.57664,-0.06810,-0.02569,
5.84375,52.00280,-64.06878,-1.62093,-0.74422,1.08057,0.56213,,,0.81139,0.57941,-0.07168,-0.02806,
5.85156,62.66006,-70.14840,15.84669,-0.60973,1.60345,0.38539,,,0.80859,0.58266,-0.07630,-0.02964,
5.85938,64.58524,-72.81922,22.88274,-0.35291,1.72105,0.29823,,,0.80567,0.58594,-0.08135,-0.03094,
5.86719,66.37291,-74.85747,31.35401,0.41800,1.82844,0.45899,,,0.80265,0.58924,-0.08685,-0.03184,
5.87500,53.10290,-57.95402,29.81378,0.85999,1.61949,0.66333,,,0.80022,0.59183,-0.09134,-0.03222,
5.88281,45.09277,-47.58704,24.28295,0.99010,1.48099,0.70545,,,0.79815,0.59403,-0.09501,-0.03253,
5.89063,33.40416,-28.75077,9.37072,1.11632,1.30605,0.72046,,,0.79663,0.59572,-0.09703,-0.03297,
5.89844,24.60333,-16.31039,-2.11101,0.92432,1.27398,0.70884,,,0.79552,0.59703,-0.09789,-0.03358,
5.90625,19.96226,-14.79927,-5.26148,0.78105,1.31625,0.72143,,,0.79459,0.59811,-0.09853,-0.03433,
5.91406,9.64879,-13.85043,-6.87172,0.49256,1.36728,0.69722,,,0.79409,0.59865,-0.09902,-0.03521,
5.92188,0.33228,-11.28504,-5.01644,0.26012,1.31237,0.66284,,,0.79399,0.59867,-0.09943,-0.03594,
5.92969,-2.10858,-10.93362,-3.79126,0.18215,1.27446,0.65171,,,0.79399,0.59855,-0.09986,-0.03660,
5.93750,-2.28047,-10.68762,-0.78081,0.09589,1.18991,0.59070,,,0.79401,0.59841,-0.10040,-0.03710,
5.94531,-0.59593,-10.26591,3.34981,0.06568,1.09855,0.56116,,,0.79397,0.59833,-0.10109,-0.03734,
5.95313,0.16039,-9.56307,5.27510,0.07397,1.03586,0.55486,,,0.79391,0.59827,-0.10182,-0.03744,
5.96094,2.91065,-10.16049,7.27040,0.11880,0.92895,0.53017,,,0.79374,0.59835,-0.10268,-0.03744,
5.96875,4.35453,-12.51502,6.85034,0.16119,0.86724,0.50499,,,0.79350,0.59851,-0.10364,-0.03755,
5.97656,4.18264,-13.60443,5.83519,0.18653,0.85995,0.48368,,,0.79324,0.59866,-0.10463,-0.03776,
5.98438,2.29184,-15.39669,3.06977,0.23234,0.86918,0.44592,,,0.79305,0.59872,-0.10559,-0.03821,
5.99219,-2.45236,-15.95897,-0.36074,0.24160,0.84926,0.40476,,,0.79303,0.59855,-0.10644,-0.03889,
6.00000,-4.37754,-15.95897,-2.11101,0.22259,0.84731,0.40088,,,0.79309,0.59828,-0.10720,-0.03969,
6.00781,-9.29363,-16.24011,-5.54152,0.20213,0.81573,0.37861,1020.900,28.0,0.79333,0.59777,-0.10783,-0.04072,
6.01563,-14.69102,-14.51813,-8.58698,0.17191,0.78365,0.35730,,,0.79380,0.59700,-0.10822,-0.04188,
6.02344,-16.68496,-13.81529,-9.67214,0.15778,0.76470,0.35488,,,0.79435,0.59613,-0.10853,-0.04309,
6.03125,-20.29468,-12.47988,-11.28238,0.12270,0.72874,0.33455,,,0.79505,0.59508,-0.10869,-0.04436,
6.03906,-22.76991,-12.97187,-12.36755,0.12123,0.71271,0.31227,,,0.79584,0.59389,-0.10882,-0.04573,
6.04688,-23.31996,-13.07730,-12.68259,0.11636,0.70250,0.29339,,,0.79664,0.59268,-0.10894,-0.04712,
6.05469,-24.83261,-13.67472,-12.96263,0.12026,0.69035,0.26724,,,0.79750,0.59138,-0.10908,-0.04856,
6.06250,-25.14201,-15.57240,-12.01749,0.13049,0.69570,0.25417,,,0.79836,0.59005,-0.10936,-0.05003,
6.07031,-25.07325,-16.34553,-10.96734,0.13488,0.71271,0.24884,,,0.79921,0.58871,-0.10972,-0.05147,
6.07813,-24.42007,-17.78637,-8.13191,0.14170,0.74478,0.23770,,,0.80002,0.58738,-0.11028,-0.05281,
6.08594,-23.87001,-19.15692,-3.93128,0.16412,0.78025,0.23577,,,0.80082,0.58603,-0.11108,-0.05397,
6.09375,-24.24817,-19.50834,-1.72595,0.17484,0.79192,0.22753,,,0.80163,0.58465,-0.11199,-0.05502,
6.10156,-23.93877,-20.66804,2.50969,0.19823,0.80795,0.22705,,,0.80244,0.58324,-0.11313,-0.05589,
6.10938,-24.48882,-20.91403,5.87019,0.23673,0.80601,0.20429,,,0.80327,0.58178,-0.11441,-0.05659,
6.11719,-25.07325,-20.77346,7.27040,0.24940,0.78560,0.20429,,,0.80413,0.58027,-0.11574,-0.05721,
6.12500,-24.76385,-20.14090,9.82578,0.28107,0.76373,0.20236,,,0.80498,0.57875,-0.11714,-0.05767,
6.13281,-23.73250,-19.47320,11.29600,0.30787,0.76616,0.19800,,,0.80581,0.57728,-0.11856,-0.05800,
6.14063,-22.63240,-19.15692,11.82108,0.30592,0.77977,0.18928,,,0.80659,0.57587,-0.11999,-0.05829,
6.14844,-21.11975,-17.39980,12.73122,0.30105,0.79872,0.17040,,,0.80732,0.57453,-0.12136,-0.05845,
6.15625,-19.36646,-14.65870,12.87124,0.29423,0.80552,0.17233,,,0.80801,0.57330,-0.12259,-0.05847,
6.16406,-17.95695,-12.97187,12.83624,0.27669,0.80115,0.16991,,,0.80865,0.57215,-0.12374,-0.05842,
6.17188,-13.90032,-9.80906,12.62620,0.25719,0.79483,0.17282,,,0.80916,0.57124,-0.12472,-0.05822,
6.17969,-10.97817,-8.33309,12.48618,0.24501,0.80309,0.17282,,,0.80957,0.57049,-0.12562,-0.05795,
6.18750,-5.30576,-5.45142,12.73122,0.21382,0.82204,0.17233,,,0.80978,0.57007,-0.12640,-0.05751,
6.19531,0.26352,-3.02660,13.18629,0.19384,0.84731,0.18541,,,0.80979,0.56996,-0.12708,-0.05690,
6.20313,2.77313,-2.28861,13.36131,0.19043,0.86627,0.19945,,,0.80972,0.56999,-0.12773,-0.05622,
6.21094,6.65788,-0.98835,13.36131,0.18264,0.89882,0.22221,,,0.80950,0.57023,-0.12833,-0.05547,
6.21875,8.61744,-0.42607,13.22129,0.17191,0.93819,0.24739,,,0.80921,0.57059,-0.12890,-0.05468,
6.22656,8.85809,-0.07465,13.01126,0.16802,0.95471,0.25513,,,0.80891,0.57096,-0.12945,-0.05388,
6.23438,7.96425,0.34706,12.13613,0.16314,0.95325,0.27741,,,0.80865,0.57130,-0.12993,-0.05313,
6.24219,6.10783,-0.10979,10.77093,0.14804,0.95568,0.28564,,,0.80845,0.57154,-0.13038,-0.05249,
6.25000,4.93896,-0.42607,9.93080,0.13878,0.95325,0.28709,,,0.80829,0.57172,-0.13080,-0.05191,
6.25781,2.60124,-1.72633,7.72547,0.11977,0.95519,0.29775,,,0.80820,0.57179,-0.13121,-0.05153,
6.26563,-0.35529,-3.06174,5.34511,0.10905,0.96005,0.31276,,,0.80820,0.57171,-0.13159,-0.05136,
6.27344,-1.83355,-4.11601,4.15493,0.10710,0.96540,0.32631,,,0.80825,0.57156,-0.13197,-0.05131,
6.28125,-5.20262,-7.27882,2.96476,0.10710,0.98338,0.34520,,,0.80840,0.57122,-0.13247,-0.05147,
6.28906,-8.88109,-10.72276,2.33466,0.11490,1.00622,0.35343,,,0.80866,0.57067,-0.13312,-0.05184,
6.29688,-10.53125,-12.69073,2.33466,0.11393,1.01497,0.36602,,,0.80896,0.57002,-0.13387,-0.05230,
6.30469,-14.10659,-16.24011,2.26465,0.12416,1.02663,0.37716,,,0.80937,0.56917,-0.13480,-0.05294,
6.31250,-17.64755,-19.05149,1.77458,0.14560,1.03489,0.38055,,,0.80988,0.56811,-0.13586,-0.05374,
6.32031,-19.09144,-20.38690,1.24950,0.16802,1.04364,0.38539,,,0.81044,0.56697,-0.13696,-0.05464,
6.32813,-22.49488,-22.39001,-0.50076,0.21382,1.04801,0.37570,,,0.81109,0.56564,-0.13810,-0.05574,
6.33594,-25.69206,-22.28458,-2.46106,0.24111,1.05919,0.38878,,,0.81186,0.56416,-0.13914,-0.05698,
6.34375,-27.44535,-22.03859,-3.68624,0.24793,1.06065,0.41444,,,0.81269,0.56259,-0.14011,-0.05829,
6.35156,-31.39885,-18.84064,-5.57653,0.27133,1.02760,0.49337,,,0.81369,0.56082,-0.14081,-0.05962,
6.35938,-29.95497,-12.90159,-6.31164,0.31323,0.96832,0.54954,,,0.81469,0.55917,-0.14116,-0.06075,
6.36719,-27.10157,-10.23077,-6.31164,0.35612,0.95471,0.54954,,,0.81559,0.55768,-0.14138,-0.06175,
6.37500,-21.18851,-2.07776,-5.89157,0.46235,0.93041,0.53453,,,0.81635,0.55655,-0.14118,-0.06236,
6.38281,-14.93167,6.49697,-6.06660,0.56712,0.93284,0.45318,,,0.81696,0.55580,-0.14053,-0.06260,
6.39063,-13.41902,12.40087,-6.90673,0.59733,0.92069,0.42413,,,0.81755,0.55517,-0.13952,-0.06264,
6.39844,-11.01255,24.48983,-8.69199,0.55786,0.89154,0.43042,,,0.81817,0.55474,-0.13778,-0.06230,
6.40625,-5.47765,32.67798,-10.58228,0.46284,0.86870,0.44834,,,0.81863,0.55467,-0.13553,-0.06171,
6.41406,-1.86793,33.73225,-11.31739,0.41021,0.87501,0.41977,,,0.81896,0.55481,-0.13322,-0.06108,
6.42188,4.62956,31.86971,-13.48771,0.34296,0.94596,0.39604,,,0.81902,0.55533,-0.13095,-0.06058,
6.42969,6.10783,28.81233,-16.60318,0.26743,0.98289,0.33164,,,0.81898,0.55593,-0.12873,-0.06037,
6.43750,6.52036,28.60148,-17.86337,0.22552,0.98338,0.31372,,,0.81890,0.55657,-0.12649,-0.06022,
6.44531,9.23625,26.98493,-20.03370,0.16509,0.97609,0.32583,,,0.81870,0.55737,-0.12426,-0.06024,
6.45313,12.05526,24.52497,-23.67424,0.12611,0.99796,0.38442,,,0.81835,0.55834,-0.12204,-0.06052,
6.46094,11.88337,23.15442,-25.31949,0.12708,1.00185,0.40669,,,0.81798,0.55931,-0.11983,-0.06096,
6.46875,9.13311,19.60505,-26.82471,0.12465,0.98435,0.44398,,,0.81768,0.56012,-0.11775,-0.06163,
6.47656,5.45464,18.86706,-25.14446,0.16168,0.95471,0.50838,,,0.81752,0.56070,-0.11576,-0.06227,
6.48438,3.70135,19.11305,-23.53422,0.17630,0.93576,0.54808,,,0.81743,0.56117,-0.11381,-0.06282,
6.49219,-0.38966,19.88618,-19.64864,0.19238,0.89105,0.59215,,,0.81751,0.56139,-0.11195,-0.06315,
6.50000,-3.65560,21.15131,-15.27298,0.20749,0.83419,0.62459,,,0.81775,0.56139,-0.11017,-0.06322,
6.50781,-4.41192,22.17043,-13.41770,0.22942,0.80844,0.63282,,,0.81802,0.56134,-0.10840,-0.06316,
6.51563,-4.92759,22.52186,-10.23222,0.26450,0.79094,0.62604,,,0.81833,0.56123,-0.10674,-0.06290,
6.52344,-4.85884,22.66243,-8.90203,0.30300,0.79094,0.62653,,,0.81865,0.56112,-0.10511,-0.06257,
6.53125,-4.17127,22.87328,-7.36179,0.32152,0.80844,0.61248,,,0.81894,0.56104,-0.10354,-0.06213,
6.53906,-4.96197,23.99783,-7.64184,0.30495,0.81330,0.59747,,,0.81926,0.56091,-0.10188,-0.06167,
6.54688,-4.79008,23.89241,-8.55197,0.27669,0.81767,0.59505,,,0.81958,0.56080,-0.10020,-0.06127,
6.55469,-4.20565,24.73582,-10.30224,0.21967,0.84926,0.58392,,,0.81986,0.56074,-0.09841,-0.06093,
6.56250,-2.89928,23.40041,-12.15751,0.15778,0.89202,0.53840,,,0.82008,0.56075,-0.09662,-0.06073,
6.57031,-1.97106,23.22470,-12.99764,0.12903,0.90417,0.52581,,,0.82025,0.56082,-0.09482,-0.06058,
6.57813,0.40104,22.48671,-14.36284,0.08469,0.94888,0.49966,,,0.82032,0.56103,-0.09301,-0.06053,
6.58594,2.42935,21.04588,-14.57288,0.07835,0.96929,0.48417,,,0.82030,0.56135,-0.09129,-0.06052,
6.59375,3.73573,20.51874,-14.15281,0.07981,0.97317,0.47013,,,0.82023,0.56173,-0.08962,-0.06050,
6.60156,6.14220,18.72649,-12.12251,0.09931,0.98387,0.45754,,,0.82006,0.56222,-0.08813,-0.06043,
6.60938,9.20187,16.96937,-8.62198,0.13829,0.97658,0.45850,,,0.81977,0.56285,-0.08689,-0.06020,
6.61719,11.02392,16.05567,-6.24163,0.15145,0.98532,0.46770,,,0.81941,0.56357,-0.08580,-0.05987,
6.62500,13.15537,14.64998,-0.29073,0.18995,1.02128,0.49046,,,0.81899,0.56437,-0.08502,-0.05925,
6.63281,12.02089,13.59571,6.50029,0.20944,1.05676,0.49337,,,0.81864,0.56506,-0.08456,-0.05829,
6.64063,9.99257,12.75230,9.44073,0.20992,1.04510,0.49143,,,0.81836,0.56561,-0.08425,-0.05721,
6.64844,5.69529,11.27632,14.02641,0.20992,1.01837,0.48659,,,0.81826,0.56589,-0.08419,-0.05596,
6.65625,1.19173,10.67890,16.12673,0.20603,0.95082,0.45899,,,0.81834,0.56590,-0.08422,-0.05464,
6.66406,-0.38966,10.71404,16.44178,0.20115,0.89348,0.43817,,,0.81847,0.56583,-0.08425,-0.05331,
6.67188,-0.28653,10.99518,16.23175,0.20554,0.84537,0.41299,,,0.81861,0.56576,-0.08427,-0.05199,
6.67969,0.46979,12.19002,14.93655,0.18653,0.79192,0.40040,,,0.81871,0.56574,-0.08416,-0.05068,
6.68750,1.67303,12.85772,14.23645,0.18507,0.75644,0.38103,,,0.81877,0.56579,-0.08400,-0.04938,
6.69531,5.48902,14.12285,12.69621,0.18069,0.74089,0.35634,,,0.81868,0.56607,-0.08372,-0.04809,
6.70313,10.64576,15.10683,12.48618,0.16997,0.73603,0.34278,,,0.81840,0.56665,-0.08340,-0.04675,
6.71094,13.36164,15.35283,12.73122,0.15681,0.72923,0.34810,,,0.81801,0.56737,-0.08307,-0.04537,
6.71875,17.21200,16.09081,13.43133,0.13683,0.76227,0.35682,,,0.81747,0.56830,-0.08275,-0.04390,
6.72656,18.86216,17.18023,14.02641,0.11782,0.76859,0.33842,,,0.81688,0.56932,-0.08239,-0.04235,
6.73438,19.79037,17.49651,14.37647,0.11198,0.78268,0.35004,,,0.81625,0.57039,-0.08203,-0.04076,
6.74219,19.75599,18.55078,15.63666,0.12806,0.80844,0.33406,,,0.81563,0.57145,-0.08166,-0.03906,
6.75000,17.79643,18.72649,16.44178,0.15388,0.81378,0.33842,,,0.81508,0.57240,-0.08131,-0.03731,
6.75781,16.49006,18.86706,16.75682,0.16022,0.81378,0.33890,,,0.81458,0.57327,-0.08096,-0.03555,
6.76563,14.15234,19.28876,17.07187,0.16558,0.81621,0.32389,,,0.81418,0.57401,-0.08059,-0.03377,
6.77344,11.91775,19.28876,17.56194,0.17484,0.81621,0.32341,,,0.81385,0.57462,-0.08023,-0.03198,
6.78125,10.81765,19.67533,17.45693,0.18215,0.81330,0.32147,,,0.81357,0.57516,-0.07985,-0.03018,
6.78906,8.41117,20.30789,16.93185,0.18507,0.81087,0.31808,,,0.81339,0.57558,-0.07940,-0.02840,
6.79688,6.38285,20.41332,16.37177,0.16899,0.80552,0.29920,,,0.81328,0.57588,-0.07893,-0.02665,
6.80469,5.62653,20.27275,16.26675,0.15632,0.80309,0.29436,,,0.81320,0.57614,-0.07845,-0.02493,
6.81250,3.56383,19.42933,15.77668,0.13927,0.81573,0.30840,,,0.81318,0.57629,-0.07800,-0.02327,
6.82031,0.81357,17.39108,15.60165,0.12318,0.78608,0.27596,,,0.81327,0.57627,-0.07765,-0.02172,
6.82813,0.02287,15.63396,15.14658,0.10954,0.78317,0.27547,,,0.81337,0.57622,-0.07738,-0.02026,
6.83594,-1.00847,11.94402,13.85139,0.08420,0.78608,0.26772,,,0.81349,0.57611,-0.07726,-0.01903,
6.84375,-2.48674,9.44892,11.54104,0.02962,0.78123,0.24545,,,0.81366,0.57592,-0.07718,-0.01803,
6.85156,-2.72739,8.04323,10.07082,-0.00254,0.77296,0.24109,,,0.81382,0.57572,-0.07713,-0.01717,
6.85938,-2.86490,4.59928,6.25525,-0.02934,0.75450,0.20817,,,0.81396,0.57554,-0.07712,-0.01666,
6.86719,-1.73042,0.24163,2.01961,-0.02983,0.75207,0.19897,,,0.81403,0.57543,-0.07718,-0.01655,
6.87500,-1.14599,-2.00747,-0.11571,-0.02106,0.74575,0.19219,,,0.81407,0.57537,-0.07728,-0.01664,
6.88281,1.15736,-5.52170,-4.42135,0.00721,0.73555,0.17137,,,0.81399,0.57545,-0.07742,-0.01709,
6.89063,2.32622,-6.89225,-6.41665,0.02182,0.73798,0.15974,,,0.81385,0.57560,-0.07755,-0.01771,
6.89844,5.55777,-9.70364,-9.81216,0.06471,0.74769,0.14280,,,0.81357,0.57595,-0.07771,-0.01861,
6.90625,8.47993,-11.74189,-11.52742,0.10028,0.75596,0.13602,,,0.81316,0.57647,-0.07792,-0.01966,
6.91406,10.30197,-12.55016,-11.80746,0.10515,0.75644,0.13021,,,0.81267,0.57709,-0.07817,-0.02075,
6.92188,14.42736,-13.95586,-11.21237,0.13829,0.78657,0.13941,,,0.81201,0.57792,-0.07852,-0.02185,
6.92969,18.62151,-15.67783,-9.21707,0.17094,0.81524,0.15684,,,0.81118,0.57898,-0.07905,-0.02287,
6.93750,20.71858,-16.55639,-7.81686,0.19238,0.83662,0.16943,,,0.81026,0.58014,-0.07969,-0.02385,
6.94531,23.98452,-18.38379,-4.52637,0.20846,0.88133,0.21107,,,0.80920,0.58146,-0.08057,-0.02469,
6.95313,25.32527,-19.50834,-0.46576,0.25476,0.92652,0.25562,,,0.80808,0.58283,-0.08167,-0.02535,
6.96094,26.04721,-19.85976,1.38952,0.27669,0.96491,0.28370,,,0.80694,0.58422,-0.08286,-0.02592,
6.96875,25.46278,-18.38379,4.85504,0.33614,1.01156,0.32341,,,0.80583,0.58556,-0.08411,-0.02624,
6.97656,22.74690,-13.42872,8.11053,0.36391,1.05093,0.35053,,,0.80486,0.58674,-0.08522,-0.02620,
6.98438,21.47491,-10.12535,9.51074,0.37366,1.06453,0.36021,,,0.80395,0.58784,-0.08619,-0.02596,
6.99219,18.58713,-3.34288,12.06612,0.39120,1.07425,0.35730,,,0.80321,0.58878,-0.08689,-0.02532,
7.00000,15.59622,4.17757,14.20144,0.40144,1.07571,0.34617,,,0.80263,0.58956,-0.08726,-0.02428,
7.00781,14.04920,7.83237,15.28660,0.40192,1.08203,0.34665,1020.880,28.0,0.80214,0.59025,-0.08747,-0.02305,
7.01563,10.68013,14.36884,17.24690,0.39461,1.09320,0.33019,,,0.80182,0.59075,-0.08740,-0.02146,
7.02344,7.44858,20.20246,19.48723,0.39072,1.11556,0.29581,,,0.80167,0.59107,-0.08709,-0.01954,
7.03125,5.62653,21.85415,20.46738,0.38487,1.14131,0.31954,,,0.80160,0.59128,-0.08673,-0.01750,
7.03906,-3.55246,24.77096,22.42767,0.36294,1.16707,0.29436,,,0.80191,0.59098,-0.08628,-0.01530,
7.04688,-10.32498,28.00406,23.30281,0.30203,1.17970,0.32341,,,0.80251,0.59031,-0.08567,-0.01296,
7.05469,-12.00952,29.44489,23.54784,0.26986,1.19623,0.33600,,,0.80319,0.58954,-0.08500,-0.01055,
7.06250,-14.10659,28.46091,23.65286,0.19287,1.22392,0.32825,,,0.80393,0.58865,-0.08438,-0.00820,
7.07031,-15.72237,26.49294,24.03792,0.13049,1.23364,0.35295,,,0.80472,0.58766,-0.08389,-0.00591,
7.07813,-17.06312,24.73582,24.24795,0.10905,1.21955,0.37328,,,0.80556,0.58659,-0.08349,-0.00368,
7.08594,-17.92258,19.35905,25.29811,0.07933,1.18651,0.40088,,,0.80639,0.58547,-0.08344,-0.00162,
7.09375,-18.50701,12.43601,26.76833,0.04765,1.14957,0.39314,,,0.80720,0.58430,-0.08382,0.00024,
7.10156,-18.30074,8.14865,27.67846,0.04327,1.14034,0.41638,,,0.80797,0.58313,-0.08447,0.00198,
7.10938,-17.88820,2.38532,29.07867,0.01598,1.11313,0.40766,,,0.80869,0.58198,-0.08550,0.00358,
7.11719,-15.13794,-3.13203,29.04367,0.04132,1.09272,0.46480,,,0.80926,0.58097,-0.08683,0.00497,
7.12500,-14.14097,-5.17028,28.27355,0.04180,1.08883,0.48756,,,0.80978,0.58002,-0.08823,0.00624,
7.13281,-13.00648,-10.72276,25.19309,0.07445,1.05773,0.52775,,,0.81022,0.57916,-0.08983,0.00713,
7.14063,-13.72843,-15.95897,21.44753,0.09200,1.03781,0.52048,,,0.81065,0.57827,-0.09156,0.00760,
7.14844,-13.76281,-18.91092,20.22234,0.12221,1.04364,0.53259,,,0.81107,0.57739,-0.09341,0.00788,
7.15625,-14.96605,-22.56572,18.40207,0.17143,1.00428,0.51032,,,0.81150,0.57646,-0.09539,0.00792,
7.16406,-15.17232,-24.04170,16.61680,0.23429,0.93284,0.48320,,,0.81193,0.57552,-0.09738,0.00779,
7.17188,-14.51913,-23.79570,15.60165,0.27035,0.89056,0.44737,,,0.81233,0.57463,-0.09932,0.00763,
7.17969,-11.70011,-21.30060,12.97626,0.30787,0.81427,0.44349,,,0.81264,0.57390,-0.10101,0.00743,
7.18750,-8.19353,-17.64580,8.81063,0.32298,0.73117,0.44688,,,0.81283,0.57339,-0.10234,0.00717,
7.19531,-5.78705,-15.53726,6.18524,0.30495,0.71611,0.47303,,,0.81295,0.57303,-0.10345,0.00687,
7.20313,-1.42101,-11.88246,0.68941,0.28400,0.68744,0.49143,,,0.81292,0.57296,-0.10413,0.00643,
7.21094,3.04816,-8.36823,-3.89627,0.20895,0.68841,0.49821,,,0.81274,0.57315,-0.10444,0.00591,
7.21875,5.69529,-7.31396,-6.17162,0.18897,0.70639,0.50451,,,0.81247,0.57352,-0.10461,0.00533,
7.22656,10.06133,-6.22455,-9.14706,0.17581,0.75741,0.50644,,,0.81204,0.57414,-0.10459,0.00465,
7.23438,14.08358,-8.61423,-9.56712,0.19774,0.84974,0.51419,,,0.81143,0.57499,-0.10469,0.00388,
7.24219,14.39299,-10.05506,-8.86702,0.21041,0.90028,0.50451,,,0.81079,0.57585,-0.10489,0.00310,
7.25000,14.49612,-14.41271,-6.31164,0.20749,0.97706,0.49531,,,0.81012,0.57670,-0.10544,0.00229,
7.25781,14.18672,-17.47009,-4.70140,0.22503,1.03003,0.48949,,,0.80944,0.57752,-0.10622,0.00144,
7.26563,11.12705,-23.23343,-2.60108,0.24696,1.11799,0.48465,,,0.80883,0.57815,-0.10739,0.00047,
7.27344,5.28275,-26.78280,-2.67109,0.24745,1.13597,0.47448,,,0.80843,0.57846,-0.10877,-0.00070,
7.28125,2.49811,-27.27479,-3.61623,0.24014,1.11799,0.45899,,,0.80813,0.57862,-0.11013,-0.00195,
7.28906,-1.38663,-28.15335,-6.94173,0.25524,1.05093,0.45318,,,0.80797,0.57859,-0.11140,-0.00346,
7.29688,-4.34316,-26.74766,-12.75260,0.24501,1.01740,0.45657,,,0.80793,0.57844,-0.11237,-0.00525,
7.30469,-5.34013,-26.25566,-16.56818,0.24209,1.01254,0.45366,,,0.80793,0.57826,-0.11316,-0.00724,
7.31250,-6.81840,-23.90113,-24.96944,0.21285,1.01545,0.44398,,,0.80800,0.57806,-0.11349,-0.00961,
7.32031,-7.78099,-22.42515,-32.32054,0.18702,0.97415,0.41008,,,0.80811,0.57787,-0.11345,-0.01233,
7.32813,-6.71526,-22.42515,-35.19097,0.16655,0.94888,0.42170,,,0.80817,0.57775,-0.11329,-0.01521,
7.33594,-6.44024,-23.02257,-38.83152,0.13683,0.94256,0.40040,,,0.80820,0.57767,-0.11302,-0.01830,
7.34375,-5.40889,-24.92026,-39.53162,0.12806,0.93916,0.38151,,,0.80817,0.57764,-0.11283,-0.02150,
7.35156,-4.68695,-26.11509,-39.04155,0.12318,0.93333,0.39749,,,0.80809,0.57764,-0.11272,-0.02472,
7.35938,-4.85884,-27.76678,-36.69619,0.12367,0.87404,0.34859,,,0.80801,0.57760,-0.11280,-0.02787,
7.36719,-1.52415,-30.64845,-33.26568,0.12123,0.85363,0.35149,,,0.80776,0.57772,-0.11318,-0.03092,
7.37500,-0.49280,-32.22986,-31.41040,0.13049,0.84634,0.34036,,,0.80746,0.57786,-0.11371,-0.03393,
7.38281,1.53552,-33.60041,-28.25993,0.15194,0.82253,0.33939,,,0.80707,0.57808,-0.11445,-0.03679,
7.39063,2.49811,-34.02211,-25.98459,0.17143,0.80115,0.31808,,,0.80664,0.57833,-0.11530,-0.03954,
7.39844,3.56383,-34.12754,-25.07445,0.16704,0.79775,0.32535,,,0.80616,0.57863,-0.11620,-0.04224,
7.40625,4.11389,-34.05726,-23.81426,0.17143,0.79094,0.33309,,,0.80566,0.57895,-0.11715,-0.04486,
7.41406,4.04513,-32.51099,-23.63924,0.18995,0.79532,0.32777,,,0.80516,0.57926,-0.11801,-0.04741,
7.42188,3.83886,-31.66758,-23.60423,0.20067,0.79823,0.33406,,,0.80468,0.57955,-0.11883,-0.04992,
7.42969,2.49811,-29.06705,-23.88427,0.20262,0.80601,0.32099,,,0.80426,0.57978,-0.11949,-0.05236,
7.43750,1.43238,-26.99365,-23.98929,0.19287,0.80309,0.31954,,,0.80390,0.57996,-0.12003,-0.05473,
7.44531,0.84795,-25.69339,-23.74425,0.19189,0.79726,0.31034,,,0.80356,0.58010,-0.12050,-0.05704,
7.45313,-0.49280,-23.23343,-22.41405,0.18556,0.79337,0.28322,,,0.80330,0.58016,-0.12088,-0.05919,
7.46094,-1.86793,-21.47631,-19.85867,0.14609,0.78463,0.29339,,,0.80312,0.58014,-0.12127,-0.06114,
7.46875,-2.52112,-20.63289,-18.63349,0.14365,0.77442,0.28128,,,0.80297,0.58007,-0.12165,-0.06300,
7.47656,-2.89928,-18.73521,-16.56818,0.13293,0.76762,0.27644,,,0.80285,0.57996,-0.12201,-0.06467,
7.48438,-2.58987,-17.50523,-14.81791,0.13975,0.79192,0.27741,,,0.80274,0.57987,-0.12237,-0.06620,
7.49219,-3.10555,-16.76724,-13.83777,0.14852,0.78754,0.27111,,,0.80266,0.57974,-0.12272,-0.06764,
7.50000,-3.96500,-14.65870,-12.43756,0.15291,0.77151,0.25852,,,0.80264,0.57955,-0.12302,-0.06894,
7.50781,-4.13689,-12.72588,-11.42240,0.16363,0.77296,0.25610,,,0.80264,0.57936,-0.12324,-0.07010,
7.51563,-4.51506,-11.35533,-10.82731,0.17825,0.79046,0.24642,,,0.80267,0.57915,-0.12341,-0.07118,
7.52344,-6.13083,-7.45453,-8.69199,0.18653,0.78414,0.22027,,,0.80281,0.57885,-0.12345,-0.07200,
7.53125,-6.44024,-3.55373,-5.89157,0.18605,0.75839,0.18008,,,0.80301,0.57853,-0.12338,-0.07251,
7.53906,-6.37148,-2.00747,-4.31634,0.19628,0.74575,0.16071,,,0.80322,0.57821,-0.12329,-0.07288,
7.54688,-6.40586,0.17135,-0.85082,0.18848,0.71271,0.13650,,,0.80347,0.57787,-0.12322,-0.07298,
7.55469,-5.92456,1.50676,2.50969,0.17971,0.68015,0.12633,,,0.80373,0.57753,-0.12320,-0.07283,
7.56250,-5.20262,1.75275,3.90990,0.16168,0.66994,0.13408,,,0.80396,0.57722,-0.12324,-0.07259,
7.57031,-2.10858,1.12019,6.78033,0.16314,0.66168,0.15636,,,0.80409,0.57706,-0.12343,-0.07219,
7.57813,0.81357,-0.49635,10.14083,0.14609,0.63350,0.16701,,,0.80410,0.57701,-0.12386,-0.07165,
7.58594,3.42632,-2.07776,12.10113,0.13439,0.63252,0.19316,,,0.80401,0.57709,-0.12447,-0.07104,
7.59375,9.92381,-5.10000,16.40677,0.11929,0.65002,0.22608,,,0.80365,0.57747,-0.12544,-0.07025,
7.60156,13.29288,-6.71654,18.19204,0.12465,0.66751,0.24932,,,0.80316,0.57801,-0.12659,-0.06941,
7.60938,19.58410,-10.05506,20.88744,0.11198,0.72583,0.29726,,,0.80240,0.57885,-0.12806,-0.06849,
7.61719,25.15338,-13.56929,21.93760,0.10662,0.79580,0.33503,,,0.80139,0.57997,-0.12978,-0.06761,
7.62500,26.94105,-15.01013,22.07762,0.08079,0.83517,0.35779,,,0.80029,0.58117,-0.13160,-0.06675,
7.63281,29.48504,-18.66493,21.23750,0.09395,0.92215,0.38248,,,0.79905,0.58250,-0.13359,-0.06607,
7.64063,29.31315,-20.45718,19.38222,0.08128,1.00719,0.38151,,,0.79778,0.58383,-0.13561,-0.06556,
7.64844,28.65996,-21.61688,17.94700,0.08810,1.04704,0.36893,,,0.79652,0.58512,-0.13762,-0.06518,
7.65625,24.29392,-22.74143,13.95640,0.10954,1.14374,0.34326,,,0.79540,0.58621,-0.13952,-0.06510,
7.66406,17.62454,-24.88511,8.67061,0.13342,1.22004,0.30598,,,0.79449,0.58697,-0.14130,-0.06546,
7.67188,13.15537,-26.25566,5.87019,0.14024,1.25891,0.27208,,,0.79374,0.58751,-0.14301,-0.06606,
7.67969,2.56687,-27.45050,0.16433,0.18507,1.29099,0.22996,,,0.79336,0.58752,-0.14451,-0.06713,
7.68750,-6.68089,-26.74766,-4.17632,0.22065,1.25017,0.17088,,,0.79335,0.58708,-0.14576,-0.06849,
7.69531,-9.60304,-26.25566,-6.10161,0.23721,1.23073,0.13796,,,0.79344,0.58650,-0.14689,-0.06997,
7.70313,-13.24713,-26.85308,-10.72230,0.23868,1.19574,0.08808,,,0.79365,0.58576,-0.14786,-0.07175,
7.71094,-14.72540,-26.85308,-15.23798,0.22649,1.16658,0.07162,,,0.79389,0.58499,-0.14863,-0.07380,
7.71875,-14.51913,-26.25566,-17.23327,0.20846,1.16561,0.09244,,,0.79411,0.58424,-0.14929,-0.07593,
7.72656,-13.31589,-23.54971,-20.38375,0.17922,1.18262,0.13602,,,0.79429,0.58361,-0.14968,-0.07810,
7.73438,-12.90335,-20.07062,-22.97414,0.17922,1.20789,0.17427,,,0.79447,0.58303,-0.14979,-0.08028,
7.74219,-13.45340,-19.78948,-23.95428,0.19433,1.21955,0.19606,,,0.79467,0.58244,-0.14983,-0.08250,
7.75000,-13.48778,-19.43806,-25.59953,0.24452,1.22490,0.24739,,,0.79486,0.58186,-0.14979,-0.08479,
7.75781,-13.52216,-18.27836,-27.69985,0.28010,1.22101,0.29775,,,0.79505,0.58130,-0.14961,-0.08716,
7.76563,-13.86594,-17.78637,-29.20507,0.30105,1.22247,0.30646,,,0.79524,0.58074,-0.14933,-0.08959,
7.77344,-16.13491,-15.01013,-32.60058,0.32785,1.18796,0.31469,,,0.79553,0.58011,-0.14876,-0.09211,
7.78125,-18.43825,-12.83130,-35.75105,0.35271,1.15784,0.32002,,,0.79590,0.57939,-0.14792,-0.09474,
7.78906,-19.67587,-11.21476,-37.32629,0.36781,1.13014,0.32777,,,0.79632,0.57862,-0.14693,-0.09741,
7.79688,-19.40084,-5.76770,-39.60163,0.41362,1.07036,0.37861,,,0.79676,0.57792,-0.14555,-0.09998,
7.80469,-15.34421,2.20960,-41.21187,0.48330,1.01885,0.41977,,,0.79710,0.57751,-0.14371,-0.10228,
7.81250,-12.21578,6.91867,-42.15701,0.52862,1.00185,0.46480,,,0.79735,0.57730,-0.14159,-0.10442,
7.82031,-7.74661,17.95336,-42.75210,0.57492,0.92312,0.49966,,,0.79752,0.57742,-0.13888,-0.10611,
7.82813,0.16039,26.87950,-41.42190,0.53739,0.86481,0.47594,,,0.79747,0.57801,-0.13579,-0.10730,
7.83594,4.93896,30.07745,-40.30174,0.49061,0.86286,0.48272,,,0.79725,0.57886,-0.13260,-0.10825,
7.84375,11.29894,33.73225,-36.97624,0.33906,0.85266,0.45899,,,0.79684,0.58006,-0.12939,-0.10883,
7.85156,13.84293,32.64284,-31.41040,0.17630,0.86772,0.47400,,,0.79634,0.58132,-0.12648,-0.10912,
7.85938,13.32726,30.56944,-27.80486,0.14024,0.84197,0.48804,,,0.79587,0.58251,-0.12382,-0.10930,
7.86719,12.98348,26.87950,-18.42345,0.10223,0.83565,0.50547,,,0.79544,0.58357,-0.12172,-0.10913,
7.87500,15.76812,21.78387,-7.04675,0.14755,0.86481,0.52629,,,0.79494,0.58464,-0.12038,-0.10851,
7.88281,15.83687,20.94045,-1.86597,0.17776,0.89348,0.49482,,,0.79447,0.58567,-0.11929,-0.10765,
7.89063,14.04920,21.92444,5.31011,0.22259,0.88522,0.51371,,,0.79412,0.58654,-0.11841,-0.10637,
7.89844,13.67104,25.05210,8.04052,0.27522,0.88376,0.50160,,,0.79384,0.58740,-0.11748,-0.10482,
7.90625,14.25547,26.35237,7.86549,0.31177,0.90854,0.48465,,,0.79353,0.58829,-0.11647,-0.10322,
7.91406,15.49309,29.97203,5.52014,0.34978,0.99699,0.48223,,,0.79319,0.58929,-0.11518,-0.10160,
7.92188,14.22109,34.99737,2.43968,0.34296,1.07377,0.47690,,,0.79291,0.59028,-0.11349,-0.09995,
7.92969,12.94910,37.63305,1.59955,0.33029,1.09952,0.46093,,,0.79268,0.59122,-0.11161,-0.09824,
7.93750,10.78327,42.48269,1.77458,0.28838,1.10632,0.41832,,,0.79258,0.59207,-0.10945,-0.09635,
7.94531,10.40511,44.13437,2.85974,0.26158,1.08349,0.41541,,,0.79251,0.59290,-0.10725,-0.09434,
7.95313,11.43646,46.17263,6.67531,0.22016,1.04218,0.44156,,,0.79242,0.59376,-0.10510,-0.09202,
7.96094,12.22716,46.55919,12.38117,0.18410,0.99844,0.43187,,,0.79233,0.59462,-0.10317,-0.08938,
7.96875,12.43342,46.06720,15.60165,0.17435,0.96929,0.43381,,,0.79225,0.59546,-0.10139,-0.08658,
7.97656,12.94910,44.66151,22.25265,0.16802,0.90757,0.42752,,,0.79216,0.59626,-0.09995,-0.08348,
7.98438,14.15234,42.65840,28.62360,0.17728,0.87501,0.40960,,,0.79203,0.59707,-0.09889,-0.08010,
7.99219,14.53050,41.95555,31.52904,0.18264,0.86335,0.40573,,,0.79189,0.59787,-0.09799,-0.07659,
8.00000,14.59925,40.79586,36.14973,0.18946,0.84877,0.40427,,,0.79175,0.59862,-0.09734,-0.07288,
8.00781,12.43342,40.47957,38.91515,0.20262,0.78803,0.40476,1020.894,28.0,0.79170,0.59923,-0.09680,-0.06904,
8.01563,11.57397,40.86614,39.75527,0.19189,0.74575,0.35876,,,0.79168,0.59978,-0.09627,-0.06515,
8.02344,15.18369,40.19844,40.00031,0.18361,0.75839,0.37716,,,0.79149,0.60051,-0.09581,-0.06125,
8.03125,14.22109,40.54986,38.60010,0.17045,0.73457,0.35779,,,0.79133,0.60119,-0.09526,-0.05741,
8.03906,14.90866,41.21756,37.68996,0.16168,0.71465,0.35440,,,0.79113,0.60190,-0.09464,-0.05359,
8.04688,19.37783,40.65529,35.58965,0.14706,0.72097,0.33406,,,0.79072,0.60286,-0.09398,-0.04987,
8.05469,21.50928,40.58500,32.75422,0.14657,0.71028,0.34907,,,0.79020,0.60394,-0.09321,-0.04630,
8.06250,22.29998,41.21756,31.45903,0.14268,0.70056,0.33019,,,0.78964,0.60507,-0.09235,-0.04277,
8.07031,27.38797,40.02272,29.67376,0.14121,0.71562,0.31082,,,0.78885,0.60647,-0.09150,-0.03935,
8.07813,29.17564,38.44132,28.90365,0.12854,0.74915,0.33503,,,0.78795,0.60795,-0.09071,-0.03602,
8.08594,29.38191,37.31677,28.65861,0.12416,0.75790,0.31615,,,0.78703,0.60944,-0.08996,-0.03275,
8.09375,30.13823,34.68109,28.23855,0.12952,0.78560,0.32874,,,0.78605,0.61096,-0.08934,-0.02961,
8.10156,29.55380,32.74827,28.02851,0.12562,0.79726,0.31808,,,0.78507,0.61243,-0.08881,-0.02656,
8.10938,28.72872,31.76428,27.53844,0.12026,0.79386,0.31034,,,0.78411,0.61386,-0.08831,-0.02359,
8.11719,27.14732,29.86660,27.08337,0.11539,0.77685,0.29145,,,0.78319,0.61519,-0.08789,-0.02073,
8.12500,26.35662,27.54721,25.96321,0.11685,0.75936,0.27983,,,0.78228,0.61647,-0.08755,-0.01803,
8.13281,26.32224,26.10637,25.43813,0.11344,0.75790,0.27499,,,0.78136,0.61775,-0.08726,-0.01542,
8.14063,26.49413,24.27897,23.96791,0.12123,0.76762,0.27111,,,0.78041,0.61905,-0.08700,-0.01296,
8.14844,26.45975,23.18956,21.58755,0.12416,0.78900,0.27596,,,0.77945,0.62034,-0.08670,-0.01067,
8.15625,26.21911,23.15442,20.01231,0.12465,0.80406,0.27354,,,0.77849,0.62163,-0.08634,-0.00848,
8.16406,25.22214,22.52186,17.31691,0.12513,0.85801,0.26821,,,0.77756,0.62288,-0.08589,-0.00645,
8.17188,22.98755,21.85415,15.04157,0.13634,0.89397,0.25804,,,0.77672,0.62402,-0.08538,-0.00459,
8.17969,21.44053,21.39730,13.74637,0.14268,0.92750,0.26530,,,0.77593,0.62508,-0.08484,-0.00283,
8.18750,15.49309,20.34303,11.71607,0.13732,0.96832,0.26918,,,0.77539,0.62583,-0.08426,-0.00126,
8.19531,7.72360,19.74561,9.93080,0.13439,0.97463,0.24836,,,0.77518,0.62618,-0.08364,0.00016,
8.20313,3.63259,19.11305,9.05567,0.12854,0.97220,0.23189,,,0.77513,0.62632,-0.08302,0.00147,
8.21094,-3.51809,18.09393,6.99036,0.13293,0.94596,0.18977,,,0.77538,0.62609,-0.08236,0.00259,
8.21875,-9.94682,17.35594,4.39997,0.13780,0.90952,0.14328,,,0.77590,0.62554,-0.08164,0.00351,
8.22656,-12.21578,16.96937,3.10478,0.14901,0.89931,0.12827,,,0.77651,0.62487,-0.08087,0.00433,
8.23438,-14.93167,17.00451,1.07447,0.16997,0.87210,0.10019,,,0.77724,0.62407,-0.08002,0.00503,
8.24219,-15.65361,18.58592,-0.60578,0.19238,0.83954,0.10793,,,0.77801,0.62324,-0.07902,0.00570,
8.25000,-15.99739,19.95647,-2.11101,0.20408,0.80941,0.10309,,,0.77880,0.62239,-0.07788,0.00636,
8.25781,-14.93167,21.64330,-6.38165,0.24891,0.76130,0.11278,,,0.77954,0.62162,-0.07647,0.00686,
8.26563,-8.46856,20.90531,-10.30224,0.31567,0.79046,0.15103,,,0.78002,0.62122,-0.07492,0.00715,
8.27344,-4.92759,21.92444,-11.63243,0.34393,0.82739,0.17476,,,0.78034,0.62100,-0.07327,0.00744,
8.28125,-2.03982,29.90174,-14.95793,0.37074,0.86675,0.19122,,,0.78058,0.62095,-0.07105,0.00790,
8.28906,-1.18036,33.62682,-16.98824,0.35465,0.87210,0.22802,,,0.78080,0.62095,-0.06854,0.00841,
8.29688,1.63865,38.08990,-20.55877,0.34881,0.85509,0.31372,,,0.78092,0.62111,-0.06564,0.00894,
8.30469,4.69832,39.35502,-21.71395,0.29910,0.84537,0.34810,,,0.78091,0.62143,-0.06263,0.00947,
8.31250,6.86415,37.91419,-20.66379,0.27474,0.87404,0.36215,,,0.78079,0.62185,-0.05973,0.01001,
8.32031,9.54565,33.45111,-15.30799,0.20213,0.93867,0.39701,,,0.78053,0.62240,-0.05729,0.01065,
8.32813,9.27063,29.02318,-6.87172,0.15778,0.97706,0.34907,,,0.78025,0.62289,-0.05545,0.01156,
8.33594,9.33938,26.77408,-2.49606,0.15047,0.99358,0.32099,,,0.77996,0.62338,-0.05391,0.01260,
8.34375,9.37376,22.62728,5.76518,0.17581,1.03052,0.25465,,,0.77964,0.62383,-0.05295,0.01390,
8.35156,9.33938,20.02675,12.41617,0.20018,1.08834,0.17040,,,0.77930,0.62427,-0.05240,0.01544,
8.35938,9.33938,19.81590,14.83154,0.22065,1.11604,0.14231,,,0.77895,0.62469,-0.05197,0.01711,
8.36719,8.17052,20.51874,18.12203,0.22796,1.17144,0.11423,,,0.77866,0.62503,-0.05164,0.01898,
8.37500,6.48599,21.01074,19.69727,0.26353,1.20157,0.07404,,,0.77843,0.62528,-0.05136,0.02094,
8.38281,5.86718,22.10015,19.80228,0.27327,1.21080,0.05515,,,0.77822,0.62549,-0.05102,0.02295,
8.39063,4.62956,23.36527,18.57710,0.30397,1.21809,0.03869,,,0.77807,0.62564,-0.05057,0.02495,
8.39844,2.56687,23.68155,16.65181,0.31031,1.22635,0.07065,,,0.77801,0.62568,-0.05002,0.02686,
8.40625,0.74482,22.73271,15.56665,0.33078,1.21032,0.15490,,,0.77803,0.62562,-0.04948,0.02865,
8.41406,-2.96803,20.06189,13.25630,0.33565,1.17436,0.26143,,,0.77820,0.62538,-0.04899,0.03020,
8.42188,-2.96803,17.00451,12.38117,0.23429,1.21372,0.26337,,,0.77835,0.62514,-0.04862,0.03158,
8.42969,-3.38057,16.30167,12.80123,0.17338,1.25065,0.27644,,,0.77852,0.62489,-0.04831,0.03294,
8.43750,-9.63742,9.48406,16.65181,0.04619,1.26231,0.31760,,,0.77893,0.62430,-0.04854,0.03420,
8.44531,-14.96605,-0.14493,23.79288,-0.06297,1.23219,0.30404,,,0.77951,0.62342,-0.04959,0.03540,
8.45313,-17.68193,-3.37802,26.76833,-0.08587,1.20351,0.29775,,,0.78018,0.62240,-0.05095,0.03662,
8.46094,-22.63240,-4.99457,28.65861,-0.11219,1.08737,0.33503,,,0.78105,0.62111,-0.05248,0.03785,
8.46875,-24.90136,-8.33309,26.41827,-0.01911,0.94499,0.35634,,,0.78201,0.61970,-0.05411,0.03882,
8.47656,-23.52623,-10.72276,24.10793,0.03303,0.88619,0.39556,,,0.78290,0.61839,-0.05576,0.03956,
8.48438,-19.43522,-17.71608,18.40207,0.06276,0.80601,0.47690,,,0.78360,0.61732,-0.05753,0.03972,
8.49219,-12.97211,-25.13111,15.42662,0.03742,0.84245,0.56310,,,0.78400,0.61663,-0.05956,0.03944,
8.50000,-11.18444,-28.53991,16.23175,0.01403,0.85946,0.58924,,,0.78431,0.61604,-0.06180,0.03906,
8.50781,-10.18747,-33.84640,20.46738,-0.03032,0.84148,0.59312,,,0.78454,0.61550,-0.06449,0.03869,
8.51563,-7.23094,-43.44025,24.77303,-0.06638,0.85315,0.62653,,,0.78459,0.61511,-0.06787,0.03816,
8.52344,-6.09646,-47.90332,26.66331,-0.08538,0.86967,0.62992,,,0.78455,0.61478,-0.07156,0.03754,
8.53125,-7.29969,-54.61550,29.39372,-0.06102,0.86675,0.61006,,,0.78451,0.61437,-0.07573,0.03679,
8.53906,-9.91244,-57.32146,29.53374,-0.03129,0.79726,0.56648,,,0.78455,0.61383,-0.08006,0.03592,
8.54688,-9.67179,-58.48116,28.97366,-0.00888,0.76908,0.52533,,,0.78456,0.61329,-0.08442,0.03497,
8.55469,-4.79008,-60.87083,26.73332,0.08469,0.72097,0.48514,,,0.78434,0.61301,-0.08881,0.03382,
8.56250,2.91065,-64.63106,25.40312,0.13488,0.65488,0.45463,,,0.78376,0.61315,-0.09331,0.03250,
8.57031,7.75798,-67.23159,25.64816,0.15096,0.72437,0.44543,,,0.78294,0.61354,-0.09796,0.03111,
8.57813,13.05223,-72.57322,21.76258,0.27084,1.04169,0.49288,,,0.78186,0.61424,-0.10272,0.02932,
8.58594,9.37376,-70.99182,9.65076,0.40728,1.39789,0.51952,,,0.78094,0.61480,-0.10689,0.02693,
8.59375,2.87627,-66.80988,2.01961,0.39315,1.39352,0.47787,,,0.78032,0.61506,-0.11052,0.02426,
8.60156,-6.30272,-60.27342,-9.91718,0.37902,1.32306,0.45512,,,0.78014,0.61489,-0.11332,0.02115,
8.60938,-13.62529,-55.24807,-18.31844,0.33126,1.28418,0.43284,,,0.78031,0.61438,-0.11551,0.01776,
8.61719,-17.13188,-52.71782,-22.23903,0.28448,1.19720,0.42752,,,0.78063,0.61370,-0.11740,0.01423,
8.62500,-18.36949,-48.60617,-29.55512,0.23429,1.10535,0.40911,,,0.78103,0.61300,-0.11877,0.01048,
8.63281,-16.30680,-46.63820,-36.41615,0.17386,1.04072,0.37813,,,0.78136,0.61246,-0.11974,0.00646,
8.64063,-14.34724,-45.97050,-39.56663,0.16704,1.02614,0.38733,,,0.78159,0.61203,-0.12054,0.00231,
8.64844,-11.73449,-44.77566,-45.13246,0.15535,0.99213,0.34665,,,0.78171,0.61177,-0.12105,-0.00206,
8.65625,-10.46249,-44.45938,-47.54782,0.15291,0.98144,0.34617,,,0.78177,0.61160,-0.12143,-0.00653,
8.66406,-8.94985,-43.54568,-50.55827,0.15924,0.95714,0.32777,,,0.78175,0.61151,-0.12164,-0.01112,
8.67188,-6.13083,-43.54568,-50.69830,0.17289,0.96880,0.30598,,,0.78160,0.61156,-0.12184,-0.01569,
8.67969,-5.78705,-43.47539,-49.64814,0.18264,0.94548,0.29484,,,0.78142,0.61162,-0.12208,-0.02019,
8.68750,-2.76176,-44.17824,-45.41250,0.20651,0.90709,0.25756,,,0.78110,0.61178,-0.12253,-0.02448,
8.69531,0.36666,-44.91623,-40.44176,0.25378,0.88668,0.25998,,,0.78063,0.61206,-0.12324,-0.02850,
8.70313,1.39800,-45.02165,-38.06140,0.27717,0.88230,0.25610,,,0.78012,0.61236,-0.12405,-0.03239,
8.71094,2.08557,-44.14310,-33.89577,0.28789,0.84343,0.24932,,,0.77958,0.61265,-0.12499,-0.03602,
8.71875,3.46070,-42.38598,-30.99034,0.30641,0.81476,0.23238,,,0.77899,0.61299,-0.12595,-0.03940,
8.72656,4.35453,-41.54257,-30.29023,0.32883,0.82399,0.24545,,,0.77837,0.61337,-0.12691,-0.04271,
8.73438,3.94200,-38.73118,-29.73015,0.35417,0.83857,0.26337,,,0.77777,0.61372,-0.12773,-0.04587,
8.74219,0.26352,-35.07638,-29.20507,0.34198,0.79532,0.24642,,,0.77736,0.61387,-0.12837,-0.04888,
8.75000,-0.56156,-33.17870,-28.57498,0.32493,0.77442,0.23770,,,0.77700,0.61398,-0.12893,-0.05179,
8.75781,-0.80220,-29.94561,-26.82471,0.30641,0.76908,0.23770,,,0.77667,0.61406,-0.12939,-0.05447,
8.76563,-1.76480,-27.02879,-24.30434,0.28838,0.77442,0.23819,,,0.77641,0.61408,-0.12980,-0.05690,
8.77344,-2.31485,-25.20139,-22.79911,0.27815,0.76810,0.21446,,,0.77620,0.61406,-0.13017,-0.05918,
8.78125,-1.55853,-20.80861,-19.29858,0.26304,0.77588,0.20575,,,0.77600,0.61406,-0.13046,-0.06109,
8.78906,-0.42404,-16.55639,-16.04310,0.24988,0.77831,0.19461,,,0.77580,0.61411,-0.13066,-0.06263,
8.79688,0.40104,-14.37756,-14.39785,0.25232,0.79289,0.19509,,,0.77560,0.61420,-0.13083,-0.06399,
8.80469,1.12298,-10.05506,-11.38740,0.25378,0.79580,0.19122,,,0.77541,0.61432,-0.13089,-0.06500,
8.81250,2.15433,-5.90827,-7.85187,0.25768,0.80018,0.17185,,,0.77523,0.61447,-0.13088,-0.06565,
8.82031,2.53249,-4.15115,-5.78656,0.25963,0.80406,0.16894,,,0.77506,0.61464,-0.13087,-0.06610,
8.82813,2.67000,-0.74235,-1.69094,0.29082,0.81864,0.16556,,,0.77494,0.61479,-0.13085,-0.06620,
8.83594,2.25746,3.43958,3.06977,0.33711,0.84148,0.16313,,,0.77489,0.61490,-0.13081,-0.06587,
8.84375,1.67303,5.54812,5.83519,0.36440,0.85217,0.16846,,,0.77489,0.61496,-0.13077,-0.06531,
8.85156,-0.69907,10.22205,11.22599,0.40144,0.85995,0.14619,,,0.77506,0.61487,-0.13070,-0.06430,
8.85938,-3.86187,15.42311,16.61680,0.40680,0.83225,0.13505,,,0.77543,0.61458,-0.13057,-0.06280,
8.86719,-4.79008,17.49651,19.06717,0.39218,0.80990,0.13069,,,0.77587,0.61423,-0.13042,-0.06110,
8.87500,-6.16521,20.51874,23.40782,0.37463,0.77296,0.11423,,,0.77641,0.61378,-0.13029,-0.05906,
8.88281,-6.74964,22.62728,26.34826,0.33468,0.74867,0.11810,,,0.77699,0.61328,-0.13017,-0.05678,
8.89063,-6.92153,23.82212,27.50344,0.31323,0.72583,0.12391,,,0.77760,0.61276,-0.13004,-0.05438,
8.89844,-3.96500,25.47381,28.58860,0.27961,0.69570,0.14328,,,0.77809,0.61239,-0.12987,-0.05184,
8.90625,-0.08026,26.77408,29.04367,0.20310,0.67820,0.15781,,,0.77843,0.61222,-0.12966,-0.04918,
8.91406,2.22308,27.40664,29.28870,0.17630,0.68647,0.18105,,,0.77868,0.61217,-0.12943,-0.04646,
8.92188,8.85809,28.53119,29.21869,0.10856,0.71028,0.24158,,,0.77865,0.61247,-0.12917,-0.04364,
8.92969,15.83687,26.84436,28.20354,0.07007,0.77151,0.32244,,,0.77831,0.61314,-0.12897,-0.04088,
8.93750,18.10584,24.80611,27.18839,0.04180,0.80747,0.31857,,,0.77784,0.61392,-0.12883,-0.03824,
8.94531,21.44053,16.26653,25.05307,0.01939,0.88182,0.36941,,,0.77715,0.61488,-0.12907,-0.03605,
8.95313,21.50928,6.67268,23.23280,-0.03617,0.95617,0.37474,,,0.77636,0.61583,-0.12975,-0.03435,
8.96094,20.64983,1.61218,22.28765,-0.05614,0.97998,0.36699,,,0.77556,0.61673,-0.13064,-0.03292,
8.96875,17.65892,-6.82197,19.24220,-0.09708,1.01788,0.34714,,,0.77480,0.61747,-0.13185,-0.03203,
8.97656,14.46174,-13.92071,13.50134,-0.12632,1.05919,0.32341,,,0.77410,0.61808,-0.13318,-0.03178,
8.98438,13.05223,-16.48610,9.86079,-0.13509,1.07765,0.31469,,,0.77342,0.61865,-0.13449,-0.03184,
8.99219,10.02695,-20.49233,1.77458,-0.09610,1.10390,0.27644,,,0.77281,0.61911,-0.13567,-0.03252,
9.00000,8.47993,-22.60086,-2.14601,-0.04932,1.11264,0.25659,,,0.77224,0.61953,-0.13678,-0.03351,
9.00781,5.48902,-25.90424,-8.30694,0.03596,1.10875,0.23480,1020.909,28.0,0.77174,0.61984,-0.13781,-0.03499,
9.01563,3.97637,-28.89134,-12.33254,0.12757,1.09077,0.19993,,,0.77127,0.62009,-0.13882,-0.03682,
9.02344,3.32319,-30.15646,-13.87277,0.15388,1.08154,0.18396,,,0.77081,0.62032,-0.13982,-0.03879,
9.03125,1.91368,-33.84640,-16.70820,0.20798,1.08397,0.16410,,,0.77036,0.62049,-0.14090,-0.04108,
9.03906,-0.56156,-37.78234,-18.84352,0.21772,1.08883,0.15490,,,0.76996,0.62053,-0.14208,-0.04368,
9.04688,-2.31485,-39.64488,-19.68364,0.20359,1.09369,0.15200,,,0.76962,0.62048,-0.14333,-0.04641,
9.05469,-5.92456,-43.01854,-21.01384,0.16363,1.12188,0.13553,,,0.76937,0.62024,-0.14467,-0.04939,
9.06250,-10.18747,-45.93535,-21.43391,0.12562,1.14520,0.11859,,,0.76927,0.61976,-0.14614,-0.05256,
9.07031,-12.49081,-47.44647,-21.36389,0.09443,1.14957,0.10600,,,0.76925,0.61914,-0.14768,-0.05581,
9.07813,-16.75371,-51.48784,-20.87382,0.07250,1.15200,0.11374,,,0.76935,0.61827,-0.14944,-0.05924,
9.08594,-19.84776,-55.07235,-20.97884,0.08859,1.14083,0.13263,,,0.76953,0.61722,-0.15136,-0.06287,
9.09375,-21.42916,-56.09148,-21.39890,0.11587,1.12722,0.13166,,,0.76976,0.61607,-0.15331,-0.06657,
9.10156,-23.69812,-55.81034,-22.76410,0.19677,1.12528,0.16362,,,0.77006,0.61480,-0.15517,-0.07036,
9.10938,-27.65162,-50.71471,-25.77456,0.33662,1.10244,0.15539,,,0.77055,0.61338,-0.15662,-0.07413,
9.11719,-28.99237,-47.44647,-27.66484,0.41752,1.10632,0.15054,,,0.77111,0.61190,-0.15781,-0.07787,
9.12500,-31.39885,-38.34462,-31.44541,0.56663,1.13159,0.13553,,,0.77183,0.61038,-0.15835,-0.08146,
9.13281,-34.01160,-26.64223,-34.98094,0.65337,1.14374,0.14764,,,0.77276,0.60882,-0.15811,-0.08477,
9.14063,-34.90543,-19.71919,-36.55617,0.66945,1.13354,0.16168,,,0.77378,0.60726,-0.15743,-0.08789,
9.14844,-34.59603,-6.96254,-37.15126,0.68066,1.08834,0.17524,,,0.77491,0.60578,-0.15606,-0.09050,
9.15625,-30.36750,2.73674,-33.79076,0.62414,1.01934,0.19703,,,0.77598,0.60455,-0.15433,-0.09249,
9.16406,-26.89530,7.34038,-31.44541,0.58905,0.99261,0.20478,,,0.77696,0.60350,-0.15248,-0.09413,
9.17188,-17.20063,18.23450,-27.06975,0.51108,0.96783,0.21882,,,0.77768,0.60299,-0.15030,-0.09499,
9.17969,-7.40283,28.42576,-23.88427,0.47599,0.93721,0.25320,,,0.77812,0.60302,-0.14776,-0.09517,
9.18750,-3.24306,32.95912,-22.37905,0.46868,0.92652,0.27305,,,0.77844,0.60329,-0.14507,-0.09503,
9.19531,5.59215,42.48269,-20.73380,0.42385,0.94305,0.32196,,,0.77849,0.60406,-0.14201,-0.09432,
9.20313,10.06133,46.94576,-20.83882,0.31908,0.99553,0.35391,,,0.77840,0.60509,-0.13872,-0.09340,
9.21094,9.82068,47.47289,-20.20872,0.25086,0.98921,0.36311,,,0.77831,0.60610,-0.13543,-0.09242,
9.21875,10.19884,47.64860,-18.07340,0.13780,0.97901,0.41541,,,0.77821,0.60710,-0.13222,-0.09131,
9.22656,10.78327,45.43464,-15.58803,0.08371,1.00914,0.45560,,,0.77807,0.60809,-0.12923,-0.09016,
9.23438,8.23928,42.20155,-14.46786,0.06130,0.98678,0.45657,,,0.77801,0.60891,-0.12644,-0.08910,
9.24219,2.53249,35.10280,-12.75260,0.04424,0.93867,0.46286,,,0.77813,0.60937,-0.12406,-0.08830,
9.25000,-0.66469,29.05833,-12.05250,0.04375,0.89397,0.44834,,,0.77833,0.60960,-0.12202,-0.08774,
9.25781,-1.38663,26.00094,-12.29753,0.06958,0.88376,0.43429,,,0.77853,0.60978,-0.12012,-0.08732,
9.26563,-1.24912,21.85415,-13.83777,0.11636,0.86627,0.39168,,,0.77868,0.60996,-0.11837,-0.08716,
9.27344,1.98243,19.18334,-16.00809,0.17435,0.90757,0.40718,,,0.77866,0.61030,-0.11670,-0.08720,
9.28125,3.25443,18.76163,-16.56818,0.20115,0.93284,0.38829,,,0.77857,0.61072,-0.11504,-0.08727,
9.28906,7.55171,19.35905,-16.11311,0.23868,0.97560,0.35973,,,0.77831,0.61136,-0.11338,-0.08726,
9.29688,12.53656,20.51874,-13.34769,0.28302,1.04850,0.35149,,,0.77787,0.61225,-0.11181,-0.08701,
9.30469,13.77418,21.71358,-11.28238,0.28984,1.06939,0.34278,,,0.77739,0.61319,-0.11027,-0.08660,
9.31250,14.66801,22.90842,-6.69669,0.30446,1.09223,0.34326,,,0.77691,0.61415,-0.10887,-0.08588,
9.32031,14.83990,23.22470,-1.34089,0.29423,1.09563,0.36989,,,0.77645,0.61508,-0.10767,-0.08487,
9.32813,13.63666,22.69757,1.91460,0.29325,1.08008,0.36408,,,0.77606,0.61592,-0.10663,-0.08371,
9.33594,10.68013,21.22159,8.46058,0.29520,1.05093,0.37861,,,0.77581,0.61654,-0.10593,-0.08230,
9.34375,7.82674,20.58903,14.93655,0.32639,1.02031,0.36069,,,0.77572,0.61696,-0.10551,-0.08058,
9.35156,5.72966,21.15131,18.08702,0.33321,1.00185,0.37377,,,0.77573,0.61724,-0.10519,-0.07869,
9.35938,0.88233,23.36527,23.89790,0.32542,0.95131,0.34133,,,0.77599,0.61724,-0.10496,-0.07644,
9.36719,-0.52718,24.45468,26.31326,0.32152,0.90757,0.31954,,,0.77632,0.61715,-0.10477,-0.07402,
9.37500,-0.45842,26.56322,29.39372,0.31031,0.84974,0.31905,,,0.77667,0.61705,-0.10460,-0.07135,
9.38281,0.26352,29.58546,30.96896,0.30008,0.79872,0.30017,,,0.77702,0.61698,-0.10434,-0.06846,
9.39063,1.08860,31.16686,31.14398,0.28205,0.77539,0.29145,,,0.77734,0.61696,-0.10401,-0.06549,
9.39844,3.87324,33.66197,30.47888,0.27230,0.76762,0.27983,,,0.77755,0.61709,-0.10353,-0.06243,
9.40625,6.48599,36.64906,29.63876,0.24257,0.78317,0.27935,,,0.77766,0.61738,-0.10286,-0.05927,
9.41406,6.96728,38.01961,29.42873,0.23819,0.75741,0.27015,,,0.77775,0.61769,-0.10211,-0.05605,
9.42188,10.19884,40.54986,28.58860,0.21870,0.77539,0.27499,,,0.77771,0.61818,-0.10120,-0.05276,
9.42969,11.12705,42.93954,27.53844,0.20164,0.80358,0.27741,,,0.77763,0.61873,-0.10013,-0.04941,
9.43750,11.05829,44.02895,27.32841,0.19189,0.82399,0.28758,,,0.77755,0.61927,-0.09898,-0.04603,
9.44531,10.26759,45.39950,26.97836,0.19872,0.84488,0.29871,,,0.77750,0.61977,-0.09775,-0.04261,
9.45313,7.75798,46.91062,27.46843,0.18800,0.85946,0.29968,,,0.77756,0.62013,-0.09645,-0.03912,
9.46094,6.00469,47.05119,27.88849,0.18166,0.86189,0.29678,,,0.77769,0.62039,-0.09515,-0.03561,
9.46875,3.01378,46.31320,28.44858,0.17922,0.83468,0.27983,,,0.77793,0.62047,-0.09390,-0.03212,
9.47656,1.60427,44.52094,28.27355,0.18117,0.79921,0.26869,,,0.77820,0.62047,-0.09274,-0.02873,
9.48438,1.39800,43.88838,27.95850,0.17776,0.78706,0.26482,,,0.77847,0.62045,-0.09160,-0.02538,
9.49219,1.12298,42.27183,26.38327,0.16461,0.77345,0.25610,,,0.77873,0.62041,-0.09047,-0.02219,
9.50000,1.01984,41.25271,24.21294,0.15632,0.76082,0.25756,,,0.77897,0.62037,-0.08931,-0.01915,
9.50781,0.95109,40.79586,23.05777,0.15047,0.76713,0.24690,,,0.77921,0.62033,-0.08812,-0.01619,
9.51563,0.88233,39.03874,21.16749,0.14170,0.78317,0.24497,,,0.77942,0.62029,-0.08694,-0.01341,
9.52344,0.40104,36.50849,19.48723,0.12123,0.79337,0.23286,,,0.77964,0.62023,-0.08582,-0.01083,
9.53125,0.29790,35.13794,18.47208,0.11539,0.79678,0.22269,,,0.77984,0.62016,-0.08474,-0.00836,
9.53906,0.02287,32.57256,16.82683,0.11393,0.81573,0.22753,,,0.78004,0.62008,-0.08372,-0.00609,
9.54688,-0.80220,29.97203,14.83154,0.11734,0.83517,0.22221,,,0.78025,0.61996,-0.08275,-0.00404,
9.55469,-1.59290,28.46091,13.81638,0.12026,0.84586,0.21882,,,0.78048,0.61980,-0.08182,-0.00211,
9.56250,-3.79311,25.61438,11.50604,0.11685,0.86627,0.20865,,,0.78078,0.61954,-0.08094,-0.00043,
9.57031,-6.95591,23.50584,8.77563,0.12611,0.86384,0.19509,,,0.78120,0.61912,-0.08006,0.00099,
9.57813,-9.15612,22.87328,6.99036,0.12123,0.86627,0.19364,,,0.78171,0.61859,-0.07914,0.00228,
9.58594,-13.35027,21.64330,3.45483,0.14804,0.84440,0.16701,,,0.78239,0.61786,-0.07813,0.00330,
9.59375,-15.72237,21.15131,-0.32574,0.16217,0.82010,0.14716,,,0.78316,0.61702,-0.07699,0.00409,
9.60156,-16.23804,21.18645,-2.14601,0.16753,0.80941,0.14134,,,0.78396,0.61616,-0.07578,0.00478,
9.60938,-15.75675,21.46759,-6.27663,0.17874,0.77053,0.13118,,,0.78473,0.61534,-0.07437,0.00527,
9.61719,-13.72843,20.76474,-9.77716,0.20359,0.75158,0.15054,,,0.78541,0.61464,-0.07286,0.00555,
9.62500,-11.90638,20.62417,-11.24738,0.22503,0.75693,0.16362,,,0.78602,0.61405,-0.07129,0.00575,
9.63281,-8.29666,21.78387,-12.57758,0.25329,0.76567,0.18735,,,0.78647,0.61366,-0.06960,0.00595,
9.64063,-3.27744,24.80611,-13.45271,0.26938,0.79192,0.21737,,,0.78673,0.61354,-0.06771,0.00625,
9.64844,-0.45842,26.56322,-13.97779,0.26938,0.80990,0.24545,,,0.78688,0.61356,-0.06570,0.00661,
9.65625,4.45767,28.14463,-14.29283,0.27425,0.83662,0.29920,,,0.78682,0.61385,-0.06359,0.00705,
9.66406,7.27669,28.53119,-14.36284,0.24550,0.89348,0.35973,,,0.78665,0.61429,-0.06146,0.00750,
9.67188,7.41420,27.33635,-13.90778,0.24696,0.90368,0.36796,,,0.78646,0.61473,-0.05941,0.00793,
9.67969,8.47993,24.84125,-10.51227,0.22503,0.95714,0.38975,,,0.78621,0.61521,-0.05763,0.00845,
9.68750,8.61744,22.10015,-4.63138,0.21236,0.98484,0.37231,,,0.78594,0.61567,-0.05625,0.00916,
9.69531,8.75495,21.01074,-1.48091,0.22065,1.00671,0.35634,,,0.78565,0.61613,-0.05505,0.01000,
9.70313,8.58306,18.79677,4.61000,0.25037,1.04121,0.29484,,,0.78536,0.61656,-0.05424,0.01107,
9.71094,7.82674,18.12907,7.27040,0.26743,1.06065,0.26482,,,0.78509,0.61694,-0.05357,0.01225,
9.71875,6.00469,18.65620,11.82108,0.30154,1.10098,0.17814,,,0.78489,0.61720,-0.05306,0.01369,
9.72656,6.58912,20.20246,15.91670,0.32493,1.15298,0.13069,,,0.78467,0.61748,-0.05265,0.01542,
9.73438,6.00469,21.67844,17.73697,0.36196,1.16998,0.09922,,,0.78448,0.61771,-0.05223,0.01730,
9.74219,5.48902,24.77096,20.67741,0.38243,1.20400,0.08760,,,0.78430,0.61790,-0.05177,0.01947,
9.75000,2.84189,25.40353,22.46268,0.42239,1.19380,0.15297,,,0.78424,0.61794,-0.05136,0.02175,
9.75781,1.32925,24.73582,22.98776,0.42970,1.18991,0.17572,,,0.78424,0.61790,-0.05101,0.02403,
9.76563,-0.08026,22.17043,23.47783,0.39364,1.22004,0.19412,,,0.78427,0.61777,-0.05081,0.02622,
9.77344,-4.20565,21.32702,23.75787,0.33224,1.26815,0.22269,,,0.78448,0.61743,-0.05068,0.02838,
