Gait Up - Physilog data export
Created on: YYYY-MM-DD hh:mm:ss
Total data points: 19655

Time [128 hz],Gyro [128 hz],,,Accel [128 hz],,,Baro [1 hz],,Event [128 hz],Quaternion [128 hz],,,,
Time,Gyro X,Gyro Y,Gyro Z,Accel X,Accel Y,Accel Z,Pressure,Temperature,Quat W,Quat X,Quat Y,Quat Z,
[s],[deg/s],[deg/s],[deg/s],[g],[g],[g],[mBar],[degree C],[],[],[],[],
0.00781,0.16724,-0.21552,0.13314,-0.15346,0.53399,0.81424,1023.130,25.7,0.00000,0.00000,0.00000,0.00000,
0.01563,0.02973,-0.00225,0.13314,-0.15831,0.53302,0.81328,,,0.00000,0.00000,0.00000,0.00000,
0.02344,0.13286,-0.07334,0.02798,-0.15783,0.53253,0.81182,,,0.00000,0.00000,0.00000,0.00000,
0.03125,0.16724,0.17546,0.16820,-0.15977,0.52716,0.81909,,,0.00000,0.00000,0.00000,0.00000,
0.03906,0.06411,0.17546,0.02798,-0.16026,0.52863,0.80891,,,0.00000,0.00000,0.00000,0.00000,
0.04688,0.16724,0.13992,0.09809,-0.16511,0.52912,0.81424,,,0.00000,0.00000,0.00000,0.00000,
0.05469,0.20162,0.03329,0.06303,-0.16414,0.52863,0.81424,,,0.95563,0.28178,0.08581,0.00000,
0.06250,0.06411,-0.03780,0.09809,-0.16171,0.52960,0.81231,,,0.95563,0.28179,0.08580,0.00001,
0.07031,0.09848,-0.07334,0.09809,-0.16414,0.52326,0.81134,,,0.95563,0.28180,0.08580,0.00001,
0.07813,0.13286,0.10438,0.20325,-0.15297,0.52570,0.80940,,,0.95563,0.28181,0.08580,0.00002,
0.08594,0.13286,-0.07334,0.23830,-0.15200,0.53302,0.81909,,,0.95563,0.28182,0.08579,0.00004,
0.09375,0.16724,0.06883,0.23830,-0.15589,0.53204,0.81618,,,0.95562,0.28183,0.08579,0.00005,
0.10156,0.06411,0.03329,0.23830,-0.16074,0.52424,0.82054,,,0.95562,0.28183,0.08579,0.00007,
0.10938,0.02973,0.06883,0.02798,-0.16657,0.52912,0.82103,,,0.95562,0.28184,0.08579,0.00007,
0.11719,0.02973,0.21101,0.16820,-0.15929,0.53058,0.81957,,,0.95562,0.28184,0.08580,0.00009,
0.12500,0.13286,-0.03780,0.09809,-0.16220,0.53107,0.81279,,,0.95562,0.28185,0.08580,0.00009,
0.13281,-0.00465,0.13992,-0.00707,-0.16171,0.52912,0.81473,,,0.95561,0.28185,0.08581,0.00009,
0.14063,0.09848,0.03329,-0.00707,-0.15637,0.53448,0.81134,,,0.95561,0.28185,0.08581,0.00009,
0.14844,0.16724,-0.00225,0.09809,-0.15783,0.53156,0.81521,,,0.95561,0.28186,0.08581,0.00010,
0.15625,0.06411,0.17546,0.13314,-0.16414,0.53156,0.81521,,,0.95561,0.28187,0.08582,0.00011,
0.16406,-0.00465,0.03329,0.09809,-0.16171,0.53302,0.81376,,,0.95561,0.28187,0.08582,0.00012,
0.17188,0.09848,0.10438,-0.00707,-0.15977,0.52912,0.81424,,,0.95560,0.28188,0.08582,0.00012,
0.17969,0.20162,-0.10889,0.13314,-0.16123,0.53302,0.81667,,,0.95560,0.28189,0.08581,0.00012,
0.18750,-0.00465,0.03329,0.16820,-0.15492,0.53204,0.80940,,,0.95560,0.28189,0.08581,0.00014,
0.19531,0.02973,-0.07334,0.13314,-0.15589,0.52912,0.81715,,,0.95560,0.28189,0.08581,0.00014,
0.20313,0.13286,-0.00225,0.13314,-0.15929,0.53595,0.81328,,,0.95560,0.28190,0.08580,0.00015,
0.21094,0.02973,0.24655,0.06303,-0.16074,0.53156,0.81376,,,0.95560,0.28191,0.08582,0.00016,
0.21875,-0.00465,-0.03780,0.16820,-0.16268,0.52960,0.81085,,,0.95560,0.28191,0.08581,0.00017,
0.22656,0.06411,-0.03780,0.16820,-0.15734,0.52863,0.81521,,,0.95560,0.28191,0.08581,0.00018,
0.23438,0.02973,0.17546,0.16820,-0.16317,0.52424,0.81376,,,0.95559,0.28191,0.08581,0.00019,
0.24219,0.09848,0.13992,0.06303,-0.16608,0.53107,0.81667,,,0.95559,0.28192,0.08582,0.00020,
0.25000,0.09848,0.03329,0.23830,-0.15443,0.53009,0.82151,,,0.95559,0.28193,0.08582,0.00022,
0.25781,0.02973,-0.00225,0.27336,-0.16317,0.53009,0.81957,,,0.95559,0.28193,0.08581,0.00023,
0.26563,0.09848,0.17546,0.16820,-0.16366,0.52619,0.81037,,,0.95559,0.28194,0.08582,0.00025,
0.27344,0.23600,-0.10889,0.16820,-0.16074,0.53399,0.81715,,,0.95558,0.28196,0.08581,0.00025,
0.28125,0.16724,-0.03780,0.27336,-0.16511,0.52765,0.81424,,,0.95558,0.28197,0.08581,0.00027,
0.28906,0.06411,-0.10889,0.16820,-0.16123,0.52668,0.80795,,,0.95558,0.28197,0.08579,0.00028,
0.29688,0.13286,-0.03780,0.23830,-0.16171,0.52960,0.80746,,,0.95558,0.28198,0.08579,0.00029,
0.30469,0.09848,-0.25106,0.34346,-0.15054,0.52228,0.81134,,,0.95558,0.28199,0.08576,0.00031,
0.31250,0.16724,-0.21552,0.23830,-0.15443,0.52960,0.81861,,,0.95557,0.28200,0.08575,0.00032,
0.32031,0.06411,0.03329,0.13314,-0.15831,0.53253,0.81376,,,0.95557,0.28201,0.08575,0.00033,
0.32813,0.30475,0.06883,0.20325,-0.15589,0.52912,0.81715,,,0.95557,0.28203,0.08575,0.00034,
0.33594,0.09848,-0.14443,0.16820,-0.16657,0.52912,0.81521,,,0.95556,0.28204,0.08573,0.00035,
0.34375,0.06411,-0.25106,0.27336,-0.16074,0.53546,0.82103,,,0.95557,0.28204,0.08571,0.00036,
0.35156,0.06411,-0.07334,0.23830,-0.16268,0.52814,0.81715,,,0.95556,0.28205,0.08570,0.00038,
0.35938,0.13286,-0.03780,-0.00707,-0.15686,0.52912,0.81764,,,0.95556,0.28206,0.08570,0.00037,
0.36719,0.13286,0.10438,-0.00707,-0.16366,0.52472,0.80940,,,0.95556,0.28207,0.08571,0.00037,
0.37500,0.13286,0.03329,0.09809,-0.16220,0.52863,0.81424,,,0.95556,0.28208,0.08571,0.00038,
0.38281,0.20162,-0.10889,0.13314,-0.15589,0.53009,0.81861,,,0.95555,0.28209,0.08570,0.00039,
0.39063,0.20162,0.06883,0.09809,-0.15977,0.52668,0.81521,,,0.95555,0.28210,0.08570,0.00039,
0.39844,0.20162,-0.07334,0.13314,-0.16317,0.53058,0.81909,,,0.95555,0.28212,0.08569,0.00040,
0.40625,0.16724,-0.07334,0.13314,-0.16463,0.52619,0.81570,,,0.95554,0.28213,0.08569,0.00041,
0.41406,0.20162,-0.07334,0.34346,-0.16123,0.53107,0.82248,,,0.95554,0.28214,0.08567,0.00043,
0.42188,0.20162,-0.00225,0.16820,-0.15977,0.53399,0.81182,,,0.95553,0.28216,0.08567,0.00043,
0.42969,0.20162,-0.17997,0.27336,-0.16317,0.53546,0.82200,,,0.95553,0.28217,0.08565,0.00045,
0.43750,0.16724,0.03329,0.13314,-0.15297,0.52765,0.81715,,,0.95553,0.28218,0.08565,0.00046,
0.44531,0.13286,-0.03780,0.20325,-0.15346,0.52912,0.81861,,,0.95553,0.28219,0.08565,0.00047,
0.45313,0.06411,0.21101,0.06303,-0.15443,0.52570,0.80988,,,0.95552,0.28220,0.08566,0.00048,
0.46094,0.20162,0.21101,0.06303,-0.16317,0.52716,0.81328,,,0.95552,0.28221,0.08567,0.00048,
0.46875,0.09848,0.03329,0.13314,-0.15540,0.52765,0.81861,,,0.95552,0.28222,0.08567,0.00049,
0.47656,0.02973,0.24655,0.02798,-0.15783,0.52765,0.81764,,,0.95551,0.28222,0.08569,0.00050,
0.48438,0.13286,0.28209,-0.04213,-0.16026,0.52765,0.81667,,,0.95551,0.28223,0.08571,0.00050,
0.49219,0.23600,0.17546,-0.00707,-0.16074,0.53302,0.81618,,,0.95550,0.28225,0.08572,0.00050,
0.50000,0.20162,0.31764,-0.04213,-0.15783,0.53595,0.81376,,,0.95550,0.28226,0.08574,0.00050,
0.50781,0.23600,0.13992,0.09809,-0.16463,0.53351,0.82151,,,0.95549,0.28227,0.08575,0.00051,
0.51563,0.09848,0.21101,0.13314,-0.15831,0.52716,0.81279,,,0.95549,0.28228,0.08576,0.00052,
0.52344,0.20162,-0.00225,0.20325,-0.16026,0.53302,0.81521,,,0.95549,0.28230,0.08575,0.00054,
0.53125,0.09848,0.06883,0.23830,-0.16026,0.53448,0.81134,,,0.95548,0.28230,0.08575,0.00055,
0.53906,0.16724,0.03329,0.13314,-0.15540,0.52960,0.81764,,,0.95548,0.28232,0.08575,0.00056,
0.54688,0.13286,0.03329,0.13314,-0.16171,0.52619,0.81909,,,0.95548,0.28232,0.08575,0.00057,
0.55469,0.13286,0.13992,0.13314,-0.15734,0.52863,0.81812,,,0.95547,0.28233,0.08576,0.00058,
0.56250,0.13286,0.13992,0.13314,-0.16171,0.52912,0.81715,,,0.95547,0.28234,0.08577,0.00059,
0.57031,0.13286,-0.03780,0.13314,-0.15783,0.52912,0.81231,,,0.95547,0.28235,0.08576,0.00060,
0.57813,0.16724,-0.03780,0.02798,-0.15249,0.53302,0.81618,,,0.95547,0.28236,0.08576,0.00060,
0.58594,0.13286,0.21101,-0.00707,-0.16317,0.52472,0.81279,,,0.95546,0.28237,0.08577,0.00060,
0.59375,0.20162,0.06883,0.13314,-0.16463,0.52375,0.81424,,,0.95546,0.28239,0.08577,0.00061,
0.60156,0.13286,0.13992,0.20325,-0.15929,0.53399,0.81279,,,0.95545,0.28240,0.08578,0.00062,
0.60938,0.30475,0.06883,0.13314,-0.15686,0.52912,0.81570,,,0.95545,0.28242,0.08578,0.00063,
0.61719,0.13286,0.10438,0.16820,-0.16366,0.52521,0.81182,,,0.95545,0.28243,0.08579,0.00064,
0.62500,0.23600,0.06883,0.13314,-0.16123,0.53009,0.81715,,,0.95544,0.28244,0.08579,0.00065,
0.63281,0.20162,0.03329,0.20325,-0.16754,0.53107,0.81328,,,0.95544,0.28246,0.08579,0.00067,
0.64063,0.02973,-0.14443,0.13314,-0.16463,0.52912,0.82103,,,0.95544,0.28246,0.08577,0.00067,
0.64844,0.30475,-0.21552,0.27336,-0.16414,0.53448,0.81570,,,0.95543,0.28248,0.08575,0.00068,
0.65625,0.13286,-0.25106,0.13314,-0.16317,0.53595,0.81618,,,0.95543,0.28249,0.08574,0.00069,
0.66406,0.16724,-0.17997,0.37852,-0.16366,0.53253,0.81861,,,0.95543,0.28250,0.08572,0.00071,
0.67188,0.20162,-0.32215,0.30841,-0.15443,0.52570,0.81473,,,0.95543,0.28252,0.08569,0.00072,
0.67969,0.23600,-0.28660,0.41357,-0.16511,0.53253,0.82200,,,0.95542,0.28254,0.08566,0.00074,
0.68750,0.16724,-0.17997,0.30841,-0.15929,0.53253,0.81231,,,0.95542,0.28255,0.08564,0.00075,
0.69531,0.20162,-0.32215,0.30841,-0.16171,0.53595,0.81957,,,0.95542,0.28256,0.08562,0.00077,
0.70313,0.13286,-0.25106,0.20325,-0.15783,0.52814,0.82200,,,0.95542,0.28257,0.08560,0.00078,
0.71094,0.16724,-0.32215,0.30841,-0.15492,0.52912,0.82006,,,0.95542,0.28259,0.08557,0.00079,
0.71875,0.16724,-0.25106,0.27336,-0.15734,0.52912,0.82054,,,0.95542,0.28260,0.08555,0.00080,
0.72656,0.16724,-0.00225,0.48368,-0.16123,0.53936,0.81909,,,0.95541,0.28261,0.08554,0.00083,
0.73438,0.20162,-0.10889,0.37852,-0.15492,0.53253,0.80891,,,0.95541,0.28263,0.08553,0.00085,
0.74219,0.20162,-0.10889,0.34346,-0.17045,0.53058,0.81231,,,0.95541,0.28264,0.08551,0.00087,
0.75000,0.20162,-0.14443,0.23830,-0.15880,0.53009,0.81812,,,0.95540,0.28266,0.08550,0.00088,
0.75781,0.23600,-0.03780,0.27336,-0.16851,0.53156,0.83072,,,0.95540,0.28268,0.08549,0.00090,
0.76563,0.09848,-0.39323,0.27336,-0.15249,0.53107,0.81861,,,0.95540,0.28268,0.08546,0.00091,
0.77344,0.30475,-0.28660,0.37852,-0.15977,0.53058,0.82103,,,0.95539,0.28271,0.08543,0.00093,
0.78125,0.16724,-0.28660,0.23830,-0.15297,0.52912,0.81667,,,0.95539,0.28272,0.08541,0.00093,
0.78906,0.13286,-0.00225,0.20325,-0.15443,0.53399,0.81812,,,0.95539,0.28273,0.08541,0.00095,
0.79688,0.13286,-0.03780,0.13314,-0.15783,0.53058,0.81667,,,0.95539,0.28274,0.08540,0.00095,
0.80469,0.13286,0.06883,0.23830,-0.16803,0.53497,0.82200,,,0.95538,0.28275,0.08540,0.00097,
0.81250,0.13286,-0.03780,0.23830,-0.15589,0.53058,0.81812,,,0.95538,0.28276,0.08539,0.00098,
0.82031,0.02973,-0.00225,0.13314,-0.16074,0.52912,0.81715,,,0.95538,0.28276,0.08539,0.00099,
0.82813,0.06411,-0.00225,0.16820,-0.15977,0.52912,0.81667,,,0.95538,0.28276,0.08539,0.00100,
0.83594,0.13286,0.10438,0.16820,-0.15929,0.53009,0.81667,,,0.95538,0.28277,0.08539,0.00102,
0.84375,0.09848,-0.00225,0.13314,-0.15831,0.52570,0.81861,,,0.95538,0.28278,0.08539,0.00102,
0.85156,0.16724,0.06883,0.09809,-0.16074,0.52424,0.82248,,,0.95537,0.28279,0.08539,0.00103,
0.85938,0.13286,0.17546,0.09809,-0.15686,0.53253,0.81667,,,0.95537,0.28280,0.08540,0.00104,
0.86719,0.09848,0.10438,0.16820,-0.16123,0.53107,0.81473,,,0.95537,0.28281,0.08540,0.00105,
0.87500,0.27038,0.03329,0.09809,-0.16366,0.52619,0.80843,,,0.95536,0.28283,0.08540,0.00106,
0.88281,0.16724,0.10438,0.13314,-0.15686,0.52180,0.81715,,,0.95536,0.28284,0.08541,0.00107,
0.89063,0.30475,0.13992,0.09809,-0.15977,0.53351,0.81715,,,0.95535,0.28286,0.08542,0.00107,
0.89844,0.23600,0.03329,0.13314,-0.15929,0.53156,0.81570,,,0.95535,0.28288,0.08542,0.00108,
0.90625,0.20162,0.10438,0.06303,-0.15929,0.53399,0.82248,,,0.95534,0.28289,0.08542,0.00109,
0.91406,0.27038,0.24655,-0.00707,-0.15734,0.52375,0.81861,,,0.95533,0.28291,0.08544,0.00109,
0.92188,0.30475,0.24655,0.02798,-0.16074,0.52912,0.81764,,,0.95533,0.28293,0.08545,0.00109,
0.92969,0.16724,0.28209,-0.00707,-0.15880,0.52716,0.81861,,,0.95532,0.28294,0.08547,0.00110,
0.93750,0.23600,0.24655,0.06303,-0.16026,0.53204,0.81667,,,0.95532,0.28295,0.08549,0.00111,
0.94531,0.20162,0.13992,0.02798,-0.15540,0.52668,0.81764,,,0.95531,0.28297,0.08549,0.00111,
0.95313,0.09848,0.24655,-0.00707,-0.16123,0.52960,0.81424,,,0.95531,0.28297,0.08551,0.00111,
0.96094,0.13286,0.24655,0.02798,-0.15977,0.52863,0.81424,,,0.95530,0.28298,0.08553,0.00112,
0.96875,0.20162,0.21101,0.09809,-0.15783,0.53156,0.81764,,,0.95530,0.28300,0.08554,0.00113,
0.97656,0.16724,0.06883,0.09809,-0.16074,0.53156,0.81279,,,0.95529,0.28301,0.08554,0.00113,
0.98438,0.20162,0.06883,0.09809,-0.16317,0.53448,0.82006,,,0.95529,0.28302,0.08554,0.00114,
0.99219,0.09848,0.06883,0.09809,-0.16317,0.52619,0.81521,,,0.95529,0.28303,0.08555,0.00115,
1.00000,0.09848,0.03329,0.16820,-0.16220,0.53009,0.82006,,,0.95529,0.28304,0.08555,0.00116,
1.00781,0.02973,-0.00225,0.06303,-0.15929,0.53009,0.82006,1023.143,25.7,0.95529,0.28304,0.08554,0.00116,
1.01563,0.16724,-0.03780,0.13314,-0.16123,0.53204,0.81861,,,0.95528,0.28305,0.08554,0.00117,
1.02344,0.27038,-0.14443,0.27336,-0.16511,0.53399,0.81812,,,0.95528,0.28307,0.08552,0.00118,
1.03125,0.20162,-0.14443,0.23830,-0.16026,0.53741,0.81570,,,0.95528,0.28308,0.08551,0.00120,
1.03906,0.33913,-0.25106,0.44862,-0.16608,0.53399,0.81764,,,0.95527,0.28311,0.08549,0.00122,
1.04688,0.16724,-0.39323,0.44862,-0.15492,0.53351,0.81764,,,0.95527,0.28312,0.08545,0.00124,
1.05469,0.13286,-0.25106,0.51873,-0.15734,0.53156,0.81618,,,0.95527,0.28313,0.08542,0.00127,
1.06250,0.13286,-0.42878,0.58884,-0.15831,0.53058,0.81764,,,0.95527,0.28314,0.08539,0.00130,
1.07031,0.09848,-0.46432,0.58884,-0.15783,0.53448,0.81521,,,0.95527,0.28315,0.08534,0.00132,
1.07813,0.16724,-0.46432,0.58884,-0.15589,0.53156,0.82006,,,0.95527,0.28317,0.08530,0.00135,
1.08594,0.16724,-0.35769,0.48368,-0.15880,0.53253,0.81618,,,0.95527,0.28318,0.08527,0.00138,
1.09375,0.06411,-0.42878,0.55378,-0.15394,0.53156,0.81570,,,0.95527,0.28319,0.08523,0.00140,
1.10156,0.16724,-0.28660,0.58884,-0.16123,0.52912,0.81909,,,0.95527,0.28320,0.08520,0.00144,
1.10938,0.13286,-0.35769,0.51873,-0.16511,0.52668,0.81667,,,0.95527,0.28322,0.08517,0.00146,
1.11719,1.19859,0.88633,-0.25245,-0.15637,0.52814,0.83605,,,0.95524,0.28329,0.08523,0.00146,
1.12500,0.78605,-0.35769,-0.21739,-0.11607,0.56034,0.83023,,,0.95522,0.28334,0.08521,0.00143,
1.13281,-0.17654,0.17546,0.16820,-0.18794,0.51643,0.79583,,,0.95523,0.28333,0.08522,0.00145,
1.14063,0.33913,-0.39323,0.09809,-0.15492,0.52814,0.82103,,,0.95522,0.28335,0.08519,0.00144,
1.14844,0.06411,-0.35769,0.51873,-0.15103,0.52180,0.81521,,,0.95522,0.28336,0.08516,0.00147,
1.15625,0.23600,-0.10889,0.37852,-0.16560,0.53302,0.82248,,,0.95522,0.28338,0.08514,0.00149,
1.16406,0.06411,-0.14443,0.16820,-0.15443,0.52619,0.81570,,,0.95522,0.28338,0.08513,0.00150,
1.17188,0.06411,-0.21552,0.30841,-0.15540,0.53009,0.82006,,,0.95522,0.28339,0.08511,0.00151,
1.17969,0.13286,-0.14443,0.16820,-0.15589,0.52814,0.82054,,,0.95522,0.28340,0.08510,0.00152,
1.18750,0.23600,0.03329,0.09809,-0.15152,0.53009,0.82054,,,0.95521,0.28342,0.08510,0.00153,
1.19531,0.20162,-0.03780,0.16820,-0.15200,0.53058,0.81667,,,0.95521,0.28343,0.08509,0.00154,
1.20313,0.16724,0.10438,0.16820,-0.15880,0.53302,0.81909,,,0.95520,0.28344,0.08510,0.00155,
1.21094,0.02973,0.17546,0.06303,-0.15734,0.52912,0.82103,,,0.95520,0.28344,0.08511,0.00155,
1.21875,0.16724,0.28209,-0.11223,-0.16026,0.52912,0.81909,,,0.95520,0.28345,0.08513,0.00155,
1.22656,0.09848,0.13992,-0.07718,-0.15880,0.52912,0.81279,,,0.95520,0.28346,0.08514,0.00155,
1.23438,0.23600,0.17546,0.02798,-0.16414,0.53253,0.82442,,,0.95519,0.28348,0.08515,0.00155,
1.24219,0.09848,0.42427,-0.14729,-0.15540,0.52619,0.81861,,,0.95519,0.28348,0.08518,0.00155,
1.25000,0.23600,0.63753,-0.14729,-0.16026,0.53741,0.81521,,,0.95518,0.28350,0.08522,0.00155,
1.25781,0.20162,0.56644,-0.18234,-0.15929,0.53058,0.82151,,,0.95517,0.28351,0.08526,0.00155,
1.26563,0.16724,0.38872,-0.25245,-0.15103,0.53156,0.82054,,,0.95516,0.28352,0.08529,0.00154,
1.27344,0.16724,0.67307,-0.25245,-0.16268,0.53497,0.81861,,,0.95516,0.28353,0.08534,0.00154,
1.28125,0.16724,0.67307,-0.32255,-0.16220,0.53204,0.82151,,,0.95515,0.28354,0.08539,0.00153,
1.28906,0.20162,0.45981,-0.14729,-0.16268,0.53448,0.81909,,,0.95514,0.28355,0.08543,0.00153,
1.29688,0.13286,0.49535,-0.14729,-0.16026,0.52960,0.81861,,,0.95514,0.28356,0.08546,0.00152,
1.30469,0.20162,0.24655,-0.11223,-0.16803,0.53107,0.82200,,,0.95513,0.28357,0.08548,0.00152,
1.31250,0.27038,0.38872,-0.04213,-0.16268,0.52960,0.82103,,,0.95513,0.28359,0.08551,0.00152,
1.32031,0.27038,0.38872,-0.04213,-0.15637,0.53107,0.81182,,,0.95512,0.28360,0.08553,0.00153,
1.32813,0.23600,0.24655,-0.11223,-0.15540,0.53546,0.81279,,,0.95511,0.28362,0.08555,0.00152,
1.33594,0.16724,0.49535,-0.11223,-0.15977,0.52765,0.81715,,,0.95511,0.28363,0.08558,0.00152,
1.34375,0.20162,0.45981,-0.21739,-0.15880,0.53204,0.81812,,,0.95510,0.28364,0.08562,0.00152,
1.35156,0.33913,0.38872,-0.18234,-0.16803,0.53058,0.82490,,,0.95509,0.28366,0.08565,0.00151,
1.35938,0.13286,0.42427,-0.14729,-0.16220,0.52863,0.81957,,,0.95509,0.28367,0.08568,0.00151,
1.36719,0.30475,0.35318,-0.07718,-0.16220,0.52863,0.81570,,,0.95508,0.28369,0.08570,0.00151,
1.37500,0.30475,0.31764,-0.07718,-0.16317,0.53009,0.81424,,,0.95507,0.28371,0.08573,0.00151,
1.38281,0.20162,0.31764,0.02798,-0.15977,0.53156,0.81570,,,0.95506,0.28372,0.08575,0.00152,
1.39063,0.16724,0.38872,-0.07718,-0.16997,0.52716,0.81909,,,0.95506,0.28373,0.08577,0.00152,
1.39844,0.16724,0.28209,0.06303,-0.16171,0.53253,0.81618,,,0.95505,0.28374,0.08579,0.00153,
1.40625,0.20162,0.10438,0.09809,-0.16171,0.53107,0.81328,,,0.95505,0.28376,0.08579,0.00153,
1.41406,0.20162,0.13992,0.16820,-0.15929,0.52716,0.80988,,,0.95504,0.28377,0.08580,0.00155,
1.42188,0.27038,0.03329,0.09809,-0.16074,0.53107,0.81521,,,0.95504,0.28379,0.08580,0.00155,
1.42969,0.23600,0.10438,0.09809,-0.16171,0.52814,0.81812,,,0.95503,0.28380,0.08581,0.00156,
1.43750,0.30475,0.13992,0.09809,-0.16608,0.52960,0.82345,,,0.95503,0.28382,0.08581,0.00157,
1.44531,0.20162,-0.03780,0.23830,-0.15929,0.53302,0.81764,,,0.95502,0.28384,0.08581,0.00158,
1.45313,0.23600,-0.03780,0.20325,-0.16220,0.52814,0.80940,,,0.95502,0.28386,0.08580,0.00159,
1.46094,0.27038,-0.17997,0.23830,-0.15831,0.53497,0.82103,,,0.95502,0.28387,0.08578,0.00160,
1.46875,0.16724,0.03329,0.09809,-0.15929,0.53009,0.81957,,,0.95501,0.28389,0.08578,0.00161,
1.47656,0.16724,-0.14443,0.16820,-0.15589,0.52619,0.81812,,,0.95501,0.28390,0.08577,0.00161,
1.48438,0.27038,-0.17997,0.09809,-0.15929,0.53302,0.81328,,,0.95501,0.28392,0.08576,0.00161,
1.49219,0.23600,0.03329,0.13314,-0.16511,0.52716,0.81134,,,0.95500,0.28393,0.08576,0.00162,
1.50000,0.16724,-0.14443,0.23830,-0.15686,0.53204,0.81328,,,0.95500,0.28394,0.08574,0.00163,
1.50781,0.02973,0.06883,0.13314,-0.15929,0.53204,0.81764,,,0.95500,0.28395,0.08574,0.00164,
1.51563,0.20162,-0.00225,0.13314,-0.16268,0.53448,0.81279,,,0.95499,0.28396,0.08574,0.00165,
1.52344,0.27038,-0.03780,0.16820,-0.15734,0.53009,0.82054,,,0.95499,0.28398,0.08574,0.00166,
1.53125,0.13286,-0.00225,0.06303,-0.16366,0.52960,0.81424,,,0.95499,0.28399,0.08573,0.00166,
1.53906,0.13286,0.06883,0.09809,-0.16851,0.53399,0.82248,,,0.95498,0.28400,0.08574,0.00167,
1.54688,0.09848,0.06883,0.09809,-0.15200,0.52375,0.81279,,,0.95498,0.28401,0.08574,0.00168,
1.55469,-0.00465,-0.14443,-0.04213,-0.15734,0.52716,0.81861,,,0.95498,0.28400,0.08573,0.00167,
1.56250,-0.03903,0.24655,-0.00707,-0.15977,0.52619,0.81618,,,0.95498,0.28400,0.08575,0.00168,
1.57031,-0.03903,0.13992,-0.04213,-0.16074,0.53741,0.81231,,,0.95498,0.28400,0.08576,0.00168,
1.57813,0.16724,0.06883,-0.00707,-0.15152,0.53399,0.81909,,,0.95498,0.28401,0.08576,0.00168,
1.58594,0.13286,0.24655,0.02798,-0.16171,0.53351,0.81376,,,0.95497,0.28402,0.08578,0.00168,
1.59375,0.20162,0.10438,0.02798,-0.16026,0.52863,0.81957,,,0.95497,0.28403,0.08578,0.00169,
1.60156,0.30475,0.21101,-0.00707,-0.15637,0.53253,0.81521,,,0.95496,0.28405,0.08580,0.00169,
1.60938,0.23600,0.35318,-0.04213,-0.16803,0.53692,0.81618,,,0.95495,0.28407,0.08582,0.00169,
1.61719,0.23600,0.24655,-0.11223,-0.15346,0.53643,0.82733,,,0.95495,0.28408,0.08584,0.00169,
1.62500,-0.07341,0.56644,-0.14729,-0.16608,0.51984,0.81037,,,0.95495,0.28408,0.08588,0.00169,
1.63281,0.30475,0.35318,-0.04213,-0.16074,0.53448,0.81909,,,0.95494,0.28410,0.08590,0.00169,
1.64063,0.30475,0.49535,-0.11223,-0.16220,0.53156,0.81570,,,0.95493,0.28411,0.08594,0.00169,
1.64844,0.20162,0.63753,-0.11223,-0.16463,0.53107,0.81328,,,0.95492,0.28413,0.08598,0.00169,
1.65625,0.30475,0.45981,-0.07718,-0.16220,0.52668,0.81085,,,0.95491,0.28415,0.08601,0.00170,
1.66406,0.33913,0.21101,-0.04213,-0.16026,0.52814,0.81909,,,0.95491,0.28417,0.08603,0.00170,
1.67188,0.23600,0.28209,-0.14729,-0.15492,0.52960,0.81957,,,0.95490,0.28418,0.08605,0.00169,
1.67969,0.20162,0.53090,-0.18234,-0.16123,0.53058,0.81764,,,0.95489,0.28419,0.08609,0.00169,
1.68750,0.13286,0.38872,-0.07718,-0.15297,0.53204,0.81957,,,0.95489,0.28420,0.08611,0.00169,
1.69531,0.16724,0.49535,-0.11223,-0.16803,0.53009,0.81715,,,0.95488,0.28421,0.08615,0.00169,
1.70313,0.23600,0.49535,-0.14729,-0.16414,0.53204,0.82248,,,0.95487,0.28423,0.08618,0.00169,
1.71094,0.33913,0.53090,-0.14729,-0.15929,0.53302,0.81957,,,0.95486,0.28425,0.08622,0.00169,
1.71875,0.23600,0.49535,-0.14729,-0.16317,0.53741,0.81909,,,0.95486,0.28426,0.08626,0.00169,
1.72656,0.23600,0.60198,-0.07718,-0.16511,0.52668,0.81037,,,0.95485,0.28428,0.08630,0.00169,
1.73438,0.27038,0.49535,-0.32255,-0.16317,0.53448,0.81909,,,0.95484,0.28429,0.08634,0.00168,
1.74219,0.33913,0.35318,-0.21739,-0.16317,0.52619,0.81328,,,0.95483,0.28431,0.08636,0.00167,
1.75000,0.54540,0.56644,-0.28750,-0.16657,0.53009,0.82054,,,0.95482,0.28435,0.08640,0.00166,
1.75781,0.33913,0.42427,-0.14729,-0.16560,0.53351,0.81618,,,0.95481,0.28437,0.08644,0.00166,
1.76563,0.30475,0.21101,-0.11223,-0.16366,0.53351,0.82006,,,0.95480,0.28439,0.08645,0.00165,
1.77344,0.27038,0.24655,-0.00707,-0.16657,0.52716,0.81134,,,0.95480,0.28441,0.08647,0.00165,
1.78125,0.20162,0.03329,0.02798,-0.15929,0.53107,0.81861,,,0.95479,0.28442,0.08647,0.00165,
1.78906,0.09848,0.28209,-0.00707,-0.16851,0.53448,0.82345,,,0.95479,0.28443,0.08649,0.00166,
1.79688,0.20162,0.31764,0.02798,-0.16220,0.53058,0.81521,,,0.95478,0.28444,0.08651,0.00167,
1.80469,0.23600,-0.00225,0.02798,-0.15443,0.53351,0.81618,,,0.95478,0.28445,0.08651,0.00167,
1.81250,0.06411,0.42427,-0.04213,-0.16123,0.52912,0.81279,,,0.95477,0.28446,0.08654,0.00167,
1.82031,0.16724,-0.07334,-0.04213,-0.14957,0.53009,0.82006,,,0.95477,0.28447,0.08653,0.00167,
1.82813,0.16724,0.28209,-0.11223,-0.15880,0.53741,0.82345,,,0.95477,0.28448,0.08655,0.00166,
1.83594,0.20162,0.42427,-0.25245,-0.16414,0.52863,0.81279,,,0.95476,0.28449,0.08658,0.00165,
1.84375,0.09848,0.45981,-0.11223,-0.16803,0.52863,0.81473,,,0.95475,0.28450,0.08662,0.00165,
1.85156,0.23600,0.13992,-0.32255,-0.15297,0.53009,0.81764,,,0.95475,0.28451,0.08663,0.00164,
1.85938,0.16724,0.31764,0.02798,-0.16560,0.53156,0.82103,,,0.95474,0.28452,0.08665,0.00164,
1.86719,0.16724,0.45981,-0.07718,-0.16511,0.53009,0.81715,,,0.95474,0.28453,0.08668,0.00164,
1.87500,0.09848,0.31764,-0.04213,-0.16851,0.53302,0.81667,,,0.95473,0.28454,0.08671,0.00165,
1.88281,0.13286,-0.00225,-0.07718,-0.14715,0.53936,0.82636,,,0.95473,0.28455,0.08671,0.00164,
1.89063,-0.17654,0.24655,0.02798,-0.16171,0.53448,0.82006,,,0.95473,0.28453,0.08672,0.00165,
1.89844,-0.10778,0.21101,-0.00707,-0.15977,0.53546,0.81424,,,0.95473,0.28453,0.08674,0.00165,
1.90625,-0.10778,0.24655,-0.04213,-0.16026,0.53156,0.81279,,,0.95474,0.28452,0.08675,0.00166,
1.91406,0.09848,0.35318,-0.07718,-0.16026,0.53399,0.81279,,,0.95473,0.28453,0.08678,0.00166,
1.92188,-0.00465,0.60198,-0.25245,-0.16657,0.53546,0.81715,,,0.95473,0.28452,0.08682,0.00165,
1.92969,-0.21092,0.10438,-0.28750,-0.15929,0.52960,0.81231,,,0.95473,0.28451,0.08683,0.00164,
1.93750,-0.00465,0.31764,-0.21739,-0.16754,0.53497,0.82200,,,0.95473,0.28451,0.08686,0.00163,
1.94531,-0.03903,0.31764,-0.21739,-0.16074,0.52863,0.81182,,,0.95473,0.28450,0.08688,0.00162,
1.95313,0.09848,0.35318,-0.25245,-0.16560,0.53009,0.82248,,,0.95472,0.28451,0.08691,0.00161,
1.96094,0.09848,0.42427,-0.18234,-0.16171,0.52228,0.81715,,,0.95472,0.28451,0.08694,0.00161,
1.96875,0.20162,0.42427,-0.14729,-0.16997,0.52960,0.82103,,,0.95471,0.28453,0.08697,0.00160,
1.97656,-0.07341,0.31764,-0.21739,-0.15977,0.52863,0.81909,,,0.95471,0.28452,0.08700,0.00160,
1.98438,0.09848,0.17546,-0.07718,-0.15394,0.52960,0.82539,,,0.95471,0.28453,0.08701,0.00160,
1.99219,0.09848,0.56644,-0.14729,-0.17725,0.52668,0.82345,,,0.95471,0.28453,0.08705,0.00160,
2.00000,-0.03903,0.21101,-0.25245,-0.16220,0.53839,0.81618,,,0.95470,0.28453,0.08707,0.00158,
2.00781,-0.00465,0.21101,-0.07718,-0.16268,0.53058,0.81473,1023.147,25.8,0.95470,0.28453,0.08708,0.00158,
2.01563,0.13286,-0.00225,0.02798,-0.15783,0.53448,0.81667,,,0.95470,0.28453,0.08708,0.00158,
2.02344,0.09848,0.10438,-0.00707,-0.16997,0.53107,0.82490,,,0.95470,0.28454,0.08709,0.00158,
2.03125,0.02973,0.03329,-0.00707,-0.16560,0.53058,0.82297,,,0.95470,0.28454,0.08709,0.00158,
2.03906,0.13286,-0.14443,-0.00707,-0.16268,0.53253,0.81861,,,0.95470,0.28455,0.08708,0.00158,
2.04688,0.16724,0.06883,0.06303,-0.16706,0.53156,0.81715,,,0.95469,0.28456,0.08709,0.00159,
2.05469,0.06411,-0.00225,0.06303,-0.16608,0.53351,0.81957,,,0.95469,0.28457,0.08709,0.00159,
2.06250,0.06411,-0.00225,-0.00707,-0.16511,0.52716,0.81134,,,0.95469,0.28457,0.08709,0.00159,
2.07031,0.09848,-0.03780,0.06303,-0.16997,0.53497,0.81037,,,0.95469,0.28458,0.08708,0.00159,
2.07813,0.20162,-0.00225,0.13314,-0.16851,0.52912,0.81473,,,0.95468,0.28459,0.08708,0.00160,
2.08594,-0.00465,-0.10889,0.20325,-0.16123,0.53058,0.80940,,,0.95468,0.28459,0.08707,0.00161,
2.09375,0.09848,-0.39323,0.23830,-0.16900,0.53790,0.82006,,,0.95469,0.28460,0.08704,0.00162,
2.10156,0.06411,-0.07334,0.16820,-0.16220,0.52960,0.81473,,,0.95468,0.28461,0.08703,0.00163,
2.10938,0.06411,-0.25106,0.27336,-0.16317,0.53204,0.81521,,,0.95468,0.28461,0.08701,0.00164,
2.11719,-0.03903,-0.25106,0.16820,-0.15880,0.52668,0.82200,,,0.95469,0.28461,0.08699,0.00164,
2.12500,-0.00465,-0.14443,0.06303,-0.16706,0.52912,0.82490,,,0.95469,0.28461,0.08698,0.00165,
2.13281,0.06411,0.06883,0.02798,-0.16608,0.53009,0.82733,,,0.95469,0.28462,0.08698,0.00165,
2.14063,-0.07341,0.06883,-0.00707,-0.15977,0.53302,0.81473,,,0.95469,0.28461,0.08699,0.00165,
2.14844,-0.07341,0.13992,-0.00707,-0.16171,0.53302,0.81667,,,0.95469,0.28461,0.08700,0.00165,
2.15625,0.02973,0.31764,-0.14729,-0.16317,0.53448,0.81667,,,0.95469,0.28461,0.08702,0.00165,
2.16406,-0.00465,0.49535,-0.18234,-0.16560,0.53058,0.81957,,,0.95468,0.28461,0.08706,0.00165,
2.17188,-0.14216,0.24655,-0.14729,-0.16366,0.52716,0.81182,,,0.95468,0.28459,0.08707,0.00164,
2.17969,-0.10778,0.42427,-0.04213,-0.16657,0.53009,0.81570,,,0.95468,0.28459,0.08710,0.00165,
2.18750,-0.14216,0.28209,-0.04213,-0.16317,0.52619,0.81424,,,0.95468,0.28458,0.08712,0.00165,
2.19531,-0.10778,0.17546,0.09809,-0.16366,0.52668,0.81279,,,0.95469,0.28457,0.08713,0.00166,
2.20313,-0.10778,0.06883,-0.07718,-0.16220,0.53253,0.81957,,,0.95469,0.28456,0.08714,0.00166,
2.21094,-0.14216,0.31764,0.02798,-0.16511,0.53839,0.82103,,,0.95469,0.28456,0.08716,0.00167,
2.21875,-0.14216,0.53090,-0.04213,-0.16900,0.53058,0.81909,,,0.95469,0.28455,0.08719,0.00168,
2.22656,-0.00465,0.45981,-0.00707,-0.16463,0.52570,0.81279,,,0.95469,0.28455,0.08722,0.00169,
2.23438,0.23600,0.35318,-0.07718,-0.16608,0.53253,0.83702,,,0.95468,0.28456,0.08725,0.00169,
2.24219,0.02973,0.24655,-0.14729,-0.16171,0.52960,0.81521,,,0.95468,0.28456,0.08727,0.00168,
2.25000,-0.10778,0.63753,-0.21739,-0.17725,0.52424,0.82442,,,0.95467,0.28455,0.08731,0.00168,
2.25781,-0.07341,0.53090,-0.18234,-0.16463,0.52814,0.80601,,,0.95467,0.28455,0.08735,0.00168,
2.26563,0.27038,0.24655,-0.07718,-0.16074,0.53448,0.82975,,,0.95467,0.28456,0.08737,0.00168,
2.27344,-0.17654,0.56644,-0.00707,-0.16900,0.52619,0.81570,,,0.95467,0.28455,0.08740,0.00169,
2.28125,0.47665,0.24655,-0.07718,-0.16414,0.53107,0.82442,,,0.95466,0.28458,0.08742,0.00169,
2.28906,0.30475,0.10438,0.20325,-0.17677,0.52814,0.81570,,,0.95465,0.28460,0.08743,0.00170,
2.29688,0.37351,0.06883,0.23830,-0.17045,0.52082,0.80358,,,0.95464,0.28463,0.08743,0.00171,
2.30469,-0.03903,-0.35769,0.62389,-0.15880,0.52619,0.80795,,,0.95464,0.28463,0.08739,0.00175,
2.31250,0.23600,-0.07334,0.27336,-0.16171,0.53058,0.82103,,,0.95464,0.28465,0.08738,0.00176,
2.32031,-0.03903,-0.14443,0.41357,-0.17483,0.52912,0.81715,,,0.95464,0.28465,0.08736,0.00179,
2.32813,0.30475,-0.42878,0.55378,-0.16268,0.53204,0.81861,,,0.95464,0.28467,0.08732,0.00181,
2.33594,-0.10778,-0.60649,0.62389,-0.15006,0.52424,0.81085,,,0.95464,0.28467,0.08727,0.00184,
2.34375,-0.07341,-0.46432,0.58884,-0.17483,0.52619,0.82103,,,0.95465,0.28467,0.08723,0.00187,
2.35156,0.06411,-0.32215,0.62389,-0.17143,0.52375,0.81909,,,0.95465,0.28467,0.08720,0.00191,
2.35938,0.13286,-0.46432,0.65894,-0.16608,0.53595,0.81812,,,0.95465,0.28469,0.08715,0.00194,
2.36719,0.16724,-0.67758,0.55378,-0.16657,0.53448,0.81861,,,0.95465,0.28470,0.08710,0.00196,
2.37500,0.20162,-0.42878,0.41357,-0.16608,0.53058,0.82103,,,0.95465,0.28472,0.08706,0.00198,
2.38281,0.06411,-0.49986,0.44862,-0.16754,0.52716,0.81521,,,0.95465,0.28472,0.08702,0.00200,
2.39063,0.09848,-0.35769,0.44862,-0.16997,0.53009,0.82442,,,0.95465,0.28473,0.08699,0.00202,
2.39844,0.09848,-0.60649,0.37852,-0.16511,0.52765,0.81521,,,0.95465,0.28474,0.08694,0.00203,
2.40625,-0.00465,-0.35769,0.41357,-0.16657,0.53156,0.81667,,,0.95465,0.28474,0.08691,0.00205,
2.41406,0.06411,-0.46432,0.44862,-0.16317,0.52912,0.81861,,,0.95465,0.28475,0.08687,0.00207,
2.42188,0.02973,-0.25106,0.34346,-0.17191,0.53790,0.82200,,,0.95466,0.28476,0.08685,0.00209,
2.42969,-0.00465,-0.28660,0.27336,-0.16608,0.52668,0.81715,,,0.95466,0.28476,0.08683,0.00210,
2.43750,0.20162,-0.39323,0.23830,-0.15297,0.53643,0.81182,,,0.95466,0.28477,0.08680,0.00211,
2.44531,0.09848,-0.14443,0.37852,-0.16511,0.53253,0.81861,,,0.95465,0.28478,0.08678,0.00213,
2.45313,0.13286,-0.25106,0.30841,-0.17045,0.53107,0.80843,,,0.95465,0.28479,0.08676,0.00214,
2.46094,0.23600,-0.49986,0.23830,-0.15783,0.54131,0.82878,,,0.95465,0.28481,0.08672,0.00215,
2.46875,-0.07341,-0.10889,0.37852,-0.17045,0.52912,0.81715,,,0.95465,0.28480,0.08671,0.00217,
2.47656,0.23600,-0.42878,0.37852,-0.16706,0.52814,0.81473,,,0.95465,0.28482,0.08667,0.00219,
2.48438,0.09848,-0.35769,0.30841,-0.15540,0.53058,0.82006,,,0.95465,0.28483,0.08664,0.00220,
2.49219,0.09848,-0.03780,0.16820,-0.16366,0.52863,0.81764,,,0.95465,0.28484,0.08664,0.00221,
2.50000,0.02973,0.10438,0.09809,-0.15929,0.52424,0.81861,,,0.95465,0.28484,0.08664,0.00222,
2.50781,0.09848,0.13992,0.13314,-0.16366,0.53497,0.81909,,,0.95465,0.28485,0.08665,0.00223,
2.51563,0.20162,-0.00225,0.02798,-0.16366,0.53156,0.82054,,,0.95464,0.28486,0.08665,0.00223,
2.52344,-0.00465,-0.07334,0.02798,-0.15103,0.52765,0.81861,,,0.95464,0.28486,0.08664,0.00223,
2.53125,0.06411,0.06883,-0.14729,-0.15977,0.53058,0.81376,,,0.95464,0.28486,0.08665,0.00222,
2.53906,0.09848,0.21101,-0.11223,-0.16220,0.53204,0.81764,,,0.95464,0.28487,0.08666,0.00222,
2.54688,0.06411,0.31764,-0.11223,-0.15686,0.53204,0.81909,,,0.95463,0.28487,0.08669,0.00221,
2.55469,0.20162,0.24655,-0.14729,-0.16560,0.53497,0.82200,,,0.95463,0.28489,0.08671,0.00221,
2.56250,0.06411,0.21101,-0.14729,-0.16317,0.52912,0.81812,,,0.95463,0.28489,0.08672,0.00220,
2.57031,0.02973,0.17546,-0.11223,-0.16220,0.52863,0.82539,,,0.95463,0.28489,0.08674,0.00220,
2.57813,0.02973,0.24655,-0.21739,-0.16608,0.53058,0.82297,,,0.95462,0.28489,0.08676,0.00219,
2.58594,0.06411,0.21101,-0.18234,-0.17045,0.53156,0.82151,,,0.95462,0.28489,0.08677,0.00218,
2.59375,0.13286,0.28209,-0.04213,-0.16511,0.53253,0.81861,,,0.95462,0.28490,0.08679,0.00218,
2.60156,0.09848,0.17546,-0.14729,-0.16414,0.52863,0.81861,,,0.95461,0.28491,0.08681,0.00218,
2.60938,0.16724,0.03329,0.02798,-0.16074,0.53497,0.81521,,,0.95461,0.28492,0.08681,0.00218,
2.61719,0.16724,0.03329,0.02798,-0.16900,0.52765,0.81861,,,0.95461,0.28493,0.08681,0.00218,
2.62500,0.27038,0.10438,0.02798,-0.16414,0.52521,0.81134,,,0.95460,0.28495,0.08682,0.00218,
2.63281,0.30475,-0.03780,0.13314,-0.16997,0.53107,0.82151,,,0.95460,0.28497,0.08681,0.00219,
2.64063,0.09848,-0.25106,0.20325,-0.16511,0.52814,0.81328,,,0.95459,0.28498,0.08679,0.00219,
2.64844,0.16724,-0.10889,0.20325,-0.16220,0.53302,0.82054,,,0.95459,0.28499,0.08678,0.00220,
2.65625,0.02973,-0.14443,0.27336,-0.16560,0.52814,0.81134,,,0.95459,0.28499,0.08677,0.00222,
2.66406,0.20162,-0.32215,0.34346,-0.16511,0.52570,0.81328,,,0.95459,0.28501,0.08674,0.00223,
2.67188,0.13286,-0.21552,0.27336,-0.16608,0.53107,0.82200,,,0.95459,0.28502,0.08672,0.00225,
2.67969,0.16724,-0.10889,0.27336,-0.16268,0.52716,0.81328,,,0.95459,0.28503,0.08671,0.00226,
2.68750,0.09848,-0.17997,0.30841,-0.16123,0.53595,0.81473,,,0.95459,0.28504,0.08669,0.00228,
2.69531,0.02973,-0.32215,0.13314,-0.15880,0.52912,0.82200,,,0.95459,0.28504,0.08667,0.00228,
2.70313,-0.00465,-0.10889,0.16820,-0.16414,0.52277,0.82200,,,0.95459,0.28504,0.08665,0.00229,
2.71094,0.09848,-0.03780,0.13314,-0.16948,0.53156,0.82490,,,0.95459,0.28505,0.08665,0.00230,
2.71875,-0.00465,-0.07334,0.16820,-0.16754,0.52912,0.81667,,,0.95459,0.28505,0.08664,0.00231,
2.72656,0.09848,-0.00225,0.13314,-0.16851,0.53839,0.82248,,,0.95458,0.28506,0.08664,0.00231,
2.73438,-0.07341,0.03329,0.09809,-0.16366,0.52863,0.81521,,,0.95459,0.28505,0.08664,0.00232,
2.74219,0.02973,-0.00225,0.20325,-0.16754,0.53643,0.81764,,,0.95459,0.28505,0.08664,0.00233,
2.75000,-0.00465,0.06883,0.16820,-0.16706,0.52912,0.81715,,,0.95458,0.28506,0.08664,0.00235,
2.75781,0.02973,-0.17997,0.16820,-0.16851,0.53156,0.81861,,,0.95459,0.28506,0.08662,0.00235,
2.76563,-0.07341,-0.17997,0.23830,-0.15686,0.52814,0.81812,,,0.95459,0.28506,0.08661,0.00237,
2.77344,0.09848,-0.10889,0.20325,-0.16220,0.52765,0.81279,,,0.95459,0.28506,0.08659,0.00238,
2.78125,-0.03903,-0.00225,0.16820,-0.17143,0.53107,0.82103,,,0.95459,0.28506,0.08659,0.00239,
2.78906,-0.03903,-0.00225,0.13314,-0.15783,0.53204,0.81570,,,0.95459,0.28506,0.08659,0.00240,
2.79688,0.02973,0.06883,0.09809,-0.16026,0.53107,0.81909,,,0.95459,0.28506,0.08659,0.00240,
2.80469,0.02973,0.06883,0.09809,-0.15831,0.53448,0.81812,,,0.95459,0.28506,0.08659,0.00241,
2.81250,0.02973,0.10438,0.13314,-0.16463,0.52716,0.81667,,,0.95458,0.28507,0.08660,0.00242,
2.82031,0.09848,0.06883,0.06303,-0.16220,0.52912,0.82151,,,0.95458,0.28507,0.08660,0.00243,
2.82813,0.09848,0.10438,0.06303,-0.16851,0.53448,0.82006,,,0.95458,0.28508,0.08661,0.00243,
2.83594,0.02973,0.17546,0.09809,-0.16706,0.52619,0.81134,,,0.95458,0.28508,0.08662,0.00244,
2.84375,0.09848,0.21101,0.13314,-0.16171,0.52960,0.82103,,,0.95457,0.28509,0.08663,0.00245,
2.85156,0.02973,0.13992,0.02798,-0.16463,0.52424,0.81618,,,0.95457,0.28509,0.08664,0.00246,
2.85938,0.20162,0.13992,0.13314,-0.16608,0.52619,0.81328,,,0.95457,0.28511,0.08664,0.00247,
2.86719,0.16724,-0.03780,0.27336,-0.16851,0.53351,0.82248,,,0.95457,0.28512,0.08663,0.00249,
2.87500,0.16724,-0.10889,0.13314,-0.15880,0.53253,0.81957,,,0.95456,0.28513,0.08662,0.00249,
2.88281,0.06411,0.17546,0.13314,-0.16463,0.53107,0.81667,,,0.95456,0.28514,0.08663,0.00250,
2.89063,0.13286,0.10438,0.13314,-0.16171,0.52765,0.81134,,,0.95456,0.28514,0.08664,0.00251,
2.89844,0.02973,0.17546,0.20325,-0.16317,0.53448,0.82103,,,0.95456,0.28515,0.08665,0.00253,
2.90625,0.02973,0.03329,0.02798,-0.16074,0.52863,0.81618,,,0.95456,0.28515,0.08665,0.00253,
2.91406,0.02973,0.31764,0.06303,-0.16754,0.53595,0.81957,,,0.95455,0.28515,0.08667,0.00254,
2.92188,-0.00465,0.17546,-0.07718,-0.16220,0.52765,0.81521,,,0.95455,0.28515,0.08668,0.00254,
2.92969,0.09848,0.21101,-0.04213,-0.16317,0.52912,0.81812,,,0.95455,0.28516,0.08669,0.00254,
2.93750,0.02973,0.24655,-0.00707,-0.16511,0.53253,0.82006,,,0.95455,0.28516,0.08671,0.00254,
2.94531,-0.00465,0.42427,0.02798,-0.16026,0.52716,0.81521,,,0.95454,0.28516,0.08674,0.00255,
2.95313,0.06411,0.21101,0.02798,-0.16463,0.53595,0.82006,,,0.95454,0.28516,0.08675,0.00256,
2.96094,0.02973,0.17546,-0.04213,-0.16414,0.53302,0.81424,,,0.95454,0.28517,0.08676,0.00256,
2.96875,0.09848,0.24655,-0.00707,-0.16366,0.53351,0.81861,,,0.95454,0.28517,0.08678,0.00256,
2.97656,0.16724,0.35318,0.06303,-0.17191,0.52521,0.82151,,,0.95453,0.28518,0.08680,0.00257,
2.98438,0.09848,0.10438,-0.04213,-0.15831,0.52570,0.82200,,,0.95453,0.28519,0.08681,0.00257,
2.99219,0.09848,0.13992,0.02798,-0.16948,0.53204,0.82248,,,0.95453,0.28520,0.08682,0.00258,
3.00000,0.20162,0.10438,-0.00707,-0.16366,0.53058,0.81909,,,0.95452,0.28521,0.08682,0.00258,
3.00781,0.02973,0.03329,-0.07718,-0.15492,0.52765,0.81909,1023.146,25.8,0.95452,0.28521,0.08683,0.00257,
3.01563,-0.03903,-0.00225,0.02798,-0.16268,0.53107,0.82248,,,0.95452,0.28521,0.08683,0.00257,
3.02344,-0.00465,0.06883,-0.00707,-0.16074,0.53204,0.81861,,,0.95452,0.28521,0.08683,0.00258,
3.03125,0.16724,0.06883,-0.18234,-0.16560,0.53204,0.82733,,,0.95452,0.28522,0.08684,0.00256,
3.03906,-0.00465,0.17546,-0.07718,-0.16900,0.52521,0.81521,,,0.95452,0.28522,0.08685,0.00256,
3.04688,0.02973,0.13992,-0.00707,-0.16657,0.53107,0.82442,,,0.95452,0.28522,0.08686,0.00256,
3.05469,-0.00465,0.13992,-0.11223,-0.16560,0.52960,0.81764,,,0.95451,0.28522,0.08687,0.00256,
3.06250,-0.00465,0.06883,-0.00707,-0.17677,0.53107,0.82490,,,0.95451,0.28522,0.08688,0.00256,
3.07031,0.20162,-0.03780,0.02798,-0.16706,0.52570,0.81376,,,0.95451,0.28523,0.08687,0.00256,
3.07813,0.09848,0.10438,-0.04213,-0.16706,0.53107,0.81861,,,0.95451,0.28524,0.08688,0.00256,
3.08594,0.09848,-0.00225,0.09809,-0.17045,0.53058,0.81618,,,0.95451,0.28524,0.08688,0.00257,
3.09375,0.16724,-0.14443,0.23830,-0.16123,0.53156,0.81279,,,0.95450,0.28526,0.08687,0.00258,
3.10156,0.13286,-0.03780,0.16820,-0.17094,0.53204,0.81085,,,0.95450,0.28527,0.08686,0.00259,
3.10938,0.23600,-0.25106,0.34346,-0.16657,0.53448,0.82878,,,0.95450,0.28528,0.08684,0.00260,
3.11719,0.09848,-0.07334,0.27336,-0.16026,0.52570,0.82103,,,0.95450,0.28529,0.08683,0.00262,
3.12500,0.02973,-0.14443,0.34346,-0.15831,0.53448,0.81764,,,0.95450,0.28529,0.08681,0.00264,
3.13281,0.02973,0.03329,0.20325,-0.16560,0.53009,0.81812,,,0.95450,0.28530,0.08681,0.00265,
3.14063,0.20162,-0.21552,0.20325,-0.16220,0.52814,0.82054,,,0.95449,0.28531,0.08679,0.00266,
3.14844,0.16724,-0.10889,0.27336,-0.16754,0.53107,0.82345,,,0.95449,0.28532,0.08678,0.00267,
3.15625,0.16724,0.03329,0.16820,-0.16171,0.53253,0.82103,,,0.95449,0.28534,0.08678,0.00268,
3.16406,0.13286,-0.03780,0.06303,-0.16268,0.53302,0.82103,,,0.95448,0.28535,0.08677,0.00269,
3.17188,0.02973,0.13992,0.09809,-0.17240,0.52716,0.81764,,,0.95448,0.28535,0.08678,0.00270,
3.17969,0.09848,-0.07334,0.23830,-0.16171,0.53058,0.81570,,,0.95448,0.28536,0.08677,0.00271,
3.18750,0.09848,-0.00225,0.27336,-0.16463,0.52960,0.81279,,,0.95448,0.28536,0.08677,0.00273,
3.19531,0.20162,-0.07334,0.30841,-0.16706,0.53009,0.81570,,,0.95448,0.28538,0.08676,0.00274,
3.20313,0.16724,-0.00225,0.23830,-0.15734,0.53302,0.81085,,,0.95447,0.28539,0.08675,0.00276,
3.21094,0.09848,-0.00225,0.16820,-0.16851,0.52277,0.81473,,,0.95447,0.28540,0.08675,0.00277,
3.21875,0.02973,-0.07334,0.20325,-0.16608,0.52668,0.81521,,,0.95447,0.28540,0.08674,0.00278,
3.22656,0.13286,0.03329,0.16820,-0.15880,0.53204,0.82054,,,0.95447,0.28541,0.08674,0.00279,
3.23438,0.13286,0.10438,0.27336,-0.16851,0.53204,0.82200,,,0.95446,0.28542,0.08674,0.00281,
3.24219,0.20162,0.10438,0.27336,-0.16706,0.53302,0.82151,,,0.95446,0.28544,0.08674,0.00283,
3.25000,0.09848,0.21101,0.09809,-0.16657,0.53058,0.81764,,,0.95446,0.28544,0.08675,0.00284,
3.25781,0.16724,-0.14443,0.20325,-0.16074,0.53009,0.81521,,,0.95445,0.28546,0.08674,0.00285,
3.26563,0.09848,0.03329,0.20325,-0.16657,0.52619,0.80988,,,0.95445,0.28546,0.08674,0.00286,
3.27344,0.13286,0.03329,0.16820,-0.16317,0.53302,0.82054,,,0.95445,0.28547,0.08674,0.00287,
3.28125,0.13286,0.06883,0.16820,-0.16220,0.52668,0.82345,,,0.95445,0.28548,0.08674,0.00288,
3.28906,-0.00465,0.13992,0.06303,-0.16463,0.52716,0.81134,,,0.95445,0.28548,0.08675,0.00289,
3.29688,0.09848,0.10438,0.16820,-0.16851,0.53058,0.82345,,,0.95444,0.28549,0.08675,0.00290,
3.30469,-0.00465,0.03329,0.09809,-0.16657,0.53107,0.82248,,,0.95444,0.28549,0.08675,0.00291,
3.31250,0.02973,0.06883,0.16820,-0.16511,0.52960,0.82442,,,0.95444,0.28549,0.08675,0.00292,
3.32031,0.02973,0.10438,0.16820,-0.16220,0.53351,0.81957,,,0.95444,0.28550,0.08675,0.00294,
3.32813,0.16724,0.10438,0.20325,-0.16900,0.53156,0.81861,,,0.95444,0.28551,0.08676,0.00295,
3.33594,0.20162,-0.10889,0.23830,-0.16560,0.53058,0.81861,,,0.95443,0.28552,0.08675,0.00296,
3.34375,0.13286,-0.07334,0.16820,-0.17434,0.53448,0.82442,,,0.95443,0.28553,0.08674,0.00297,
3.35156,0.06411,-0.03780,0.20325,-0.16754,0.52814,0.81861,,,0.95443,0.28554,0.08673,0.00298,
3.35938,0.16724,-0.21552,-0.00707,-0.17191,0.53448,0.82297,,,0.95443,0.28555,0.08672,0.00298,
3.36719,0.20162,-0.14443,0.16820,-0.16754,0.52570,0.81473,,,0.95443,0.28556,0.08670,0.00298,
3.37500,0.23600,-0.17997,0.37852,-0.16754,0.53595,0.82103,,,0.95442,0.28558,0.08669,0.00300,
3.38281,0.13286,-0.14443,0.30841,-0.16608,0.53204,0.82297,,,0.95442,0.28559,0.08667,0.00302,
3.39063,0.20162,-0.28660,0.37852,-0.16268,0.53204,0.82006,,,0.95442,0.28561,0.08664,0.00304,
3.39844,0.09848,-0.17997,0.30841,-0.16268,0.53009,0.81764,,,0.95442,0.28561,0.08663,0.00305,
3.40625,0.06411,-0.07334,0.30841,-0.16948,0.53497,0.82248,,,0.95442,0.28562,0.08662,0.00307,
3.41406,-0.00465,-0.03780,0.37852,-0.16463,0.52814,0.81667,,,0.95442,0.28562,0.08661,0.00310,
3.42188,0.09848,-0.00225,0.30841,-0.16560,0.52765,0.81376,,,0.95441,0.28563,0.08660,0.00312,
3.42969,0.20162,-0.21552,0.30841,-0.16803,0.53448,0.81909,,,0.95441,0.28565,0.08658,0.00313,
3.43750,0.09848,-0.17997,0.16820,-0.16608,0.52668,0.81667,,,0.95441,0.28565,0.08656,0.00314,
3.44531,-0.00465,-0.25106,0.37852,-0.16900,0.52619,0.81424,,,0.95441,0.28565,0.08654,0.00316,
3.45313,-0.00465,-0.14443,0.30841,-0.16220,0.53058,0.81618,,,0.95441,0.28566,0.08653,0.00317,
3.46094,0.06411,-0.17997,0.41357,-0.16414,0.53253,0.81957,,,0.95441,0.28566,0.08651,0.00320,
3.46875,0.20162,-0.35769,0.48368,-0.16123,0.52521,0.81957,,,0.95441,0.28568,0.08647,0.00322,
3.47656,0.16724,-0.25106,0.58884,-0.16948,0.53448,0.81764,,,0.95441,0.28569,0.08645,0.00325,
3.48438,0.20162,-0.07334,0.58884,-0.17094,0.53204,0.82200,,,0.95441,0.28571,0.08643,0.00329,
3.49219,-0.00465,-0.21552,0.58884,-0.16366,0.53009,0.81957,,,0.95441,0.28571,0.08640,0.00332,
3.50000,0.13286,-0.42878,0.55378,-0.15880,0.53107,0.81861,,,0.95441,0.28572,0.08637,0.00335,
3.50781,-0.07341,-0.60649,0.41357,-0.17531,0.53156,0.81618,,,0.95441,0.28572,0.08632,0.00337,
3.51563,0.51102,-0.32215,0.41357,-0.14763,0.54717,0.83653,,,0.95440,0.28576,0.08629,0.00338,
3.52344,-0.10778,0.13992,0.44862,-0.16171,0.53399,0.82151,,,0.95440,0.28575,0.08629,0.00342,
3.53125,0.20162,0.10438,0.06303,-0.16948,0.53692,0.82394,,,0.95440,0.28577,0.08629,0.00342,
3.53906,0.13286,0.31764,0.16820,-0.16026,0.53107,0.81667,,,0.95440,0.28578,0.08631,0.00344,
3.54688,0.20162,0.21101,0.16820,-0.16414,0.52619,0.81376,,,0.95439,0.28579,0.08632,0.00345,
3.55469,0.16724,0.24655,0.02798,-0.15929,0.53448,0.81667,,,0.95439,0.28580,0.08634,0.00346,
3.56250,0.20162,0.21101,0.02798,-0.16268,0.53253,0.81618,,,0.95438,0.28582,0.08635,0.00346,
3.57031,0.16724,0.28209,0.06303,-0.16948,0.52814,0.82151,,,0.95438,0.28583,0.08637,0.00347,
3.57813,0.09848,0.28209,-0.04213,-0.15783,0.53497,0.81424,,,0.95437,0.28583,0.08639,0.00347,
3.58594,0.13286,0.28209,0.09809,-0.17677,0.53546,0.82345,,,0.95437,0.28584,0.08640,0.00348,
3.59375,-0.03903,0.31764,0.09809,-0.16220,0.51204,0.80843,,,0.95437,0.28584,0.08642,0.00350,
3.60156,0.61416,0.31764,0.30841,-0.18551,0.54863,0.84332,,,0.95435,0.28588,0.08644,0.00352,
3.60938,0.33913,-0.03780,0.23830,-0.15783,0.54131,0.81521,,,0.95435,0.28590,0.08643,0.00353,
3.61719,0.16724,0.28209,0.16820,-0.16997,0.52277,0.81764,,,0.95434,0.28592,0.08645,0.00355,
3.62500,-0.00465,0.21101,0.13314,-0.16463,0.52521,0.80843,,,0.95434,0.28592,0.08646,0.00356,
3.63281,-0.00465,0.13992,0.13314,-0.15929,0.52716,0.81521,,,0.95434,0.28592,0.08646,0.00357,
3.64063,0.20162,-0.00225,0.23830,-0.16754,0.53497,0.82781,,,0.95433,0.28593,0.08646,0.00358,
3.64844,0.02973,0.17546,0.13314,-0.16754,0.52619,0.81231,,,0.95433,0.28593,0.08647,0.00360,
3.65625,0.06411,-0.07334,0.09809,-0.16463,0.52716,0.81618,,,0.95433,0.28594,0.08646,0.00360,
3.66406,-0.00465,-0.00225,0.23830,-0.16560,0.51984,0.82248,,,0.95433,0.28594,0.08646,0.00362,
3.67188,0.27038,-0.00225,0.06303,-0.16463,0.53399,0.82733,,,0.95433,0.28596,0.08646,0.00362,
3.67969,0.06411,0.13992,0.16820,-0.15929,0.53595,0.81328,,,0.95432,0.28596,0.08646,0.00363,
3.68750,0.02973,0.35318,-0.07718,-0.16220,0.53302,0.81521,,,0.95432,0.28597,0.08649,0.00363,
3.69531,0.02973,0.06883,-0.04213,-0.16803,0.52668,0.81037,,,0.95432,0.28597,0.08649,0.00363,
3.70313,-0.00465,0.24655,0.02798,-0.17531,0.52863,0.81812,,,0.95432,0.28597,0.08651,0.00364,
3.71094,-0.00465,-0.00225,0.02798,-0.15734,0.52765,0.81812,,,0.95432,0.28597,0.08651,0.00364,
3.71875,0.02973,0.06883,-0.04213,-0.16317,0.52960,0.82297,,,0.95432,0.28597,0.08651,0.00364,
3.72656,-0.10778,0.31764,-0.00707,-0.17628,0.52228,0.82006,,,0.95432,0.28596,0.08653,0.00365,
3.73438,0.13286,-0.10889,0.16820,-0.16171,0.53009,0.82103,,,0.95432,0.28597,0.08652,0.00365,
3.74219,0.13286,-0.07334,0.16820,-0.16123,0.52619,0.82394,,,0.95432,0.28598,0.08651,0.00366,
3.75000,-0.00465,0.13992,0.02798,-0.17191,0.53399,0.82103,,,0.95431,0.28598,0.08652,0.00367,
3.75781,0.13286,-0.03780,0.13314,-0.16803,0.53204,0.82103,,,0.95431,0.28599,0.08652,0.00367,
3.76563,0.06411,-0.14443,0.20325,-0.16948,0.52863,0.81764,,,0.95431,0.28599,0.08650,0.00368,
3.77344,0.13286,-0.32215,0.16820,-0.16608,0.53302,0.81909,,,0.95431,0.28600,0.08648,0.00369,
3.78125,0.02973,-0.25106,0.27336,-0.17288,0.53204,0.81812,,,0.95431,0.28601,0.08646,0.00370,
3.78906,0.06411,-0.25106,0.34346,-0.16706,0.52960,0.81376,,,0.95431,0.28601,0.08643,0.00372,
3.79688,0.23600,-0.49986,0.27336,-0.15346,0.53009,0.81812,,,0.95431,0.28603,0.08640,0.00372,
3.80469,0.13286,-0.42878,0.34346,-0.16803,0.52570,0.81473,,,0.95431,0.28604,0.08636,0.00374,
3.81250,0.13286,-0.35769,0.41357,-0.16463,0.53302,0.82054,,,0.95431,0.28605,0.08633,0.00376,
3.82031,0.09848,-0.39323,0.37852,-0.16123,0.52912,0.81764,,,0.95431,0.28606,0.08630,0.00377,
3.82813,0.09848,-0.28660,0.41357,-0.16268,0.53497,0.81715,,,0.95431,0.28607,0.08627,0.00379,
3.83594,0.06411,-0.39323,0.37852,-0.17191,0.53887,0.82394,,,0.95431,0.28608,0.08624,0.00381,
3.84375,0.06411,-0.39323,0.37852,-0.16560,0.53009,0.81812,,,0.95431,0.28608,0.08621,0.00383,
3.85156,0.13286,-0.53541,0.30841,-0.15977,0.52668,0.82297,,,0.95431,0.28609,0.08616,0.00384,
3.85938,-0.07341,-0.28660,0.27336,-0.16026,0.52668,0.81715,,,0.95431,0.28609,0.08614,0.00385,
3.86719,0.13286,-0.25106,0.23830,-0.16123,0.53399,0.82103,,,0.95431,0.28610,0.08612,0.00386,
3.87500,0.09848,-0.25106,0.27336,-0.16608,0.53595,0.81861,,,0.95431,0.28611,0.08610,0.00387,
3.88281,0.13286,-0.03780,0.13314,-0.16803,0.52619,0.81909,,,0.95431,0.28612,0.08609,0.00388,
3.89063,0.02973,-0.25106,0.23830,-0.16268,0.53204,0.82103,,,0.95431,0.28612,0.08607,0.00389,
3.89844,0.13286,-0.28660,0.13314,-0.16268,0.53399,0.81618,,,0.95431,0.28613,0.08605,0.00389,
3.90625,0.09848,-0.28660,0.20325,-0.16026,0.53253,0.81618,,,0.95431,0.28614,0.08603,0.00390,
3.91406,0.16724,-0.00225,0.20325,-0.16463,0.53107,0.81812,,,0.95431,0.28615,0.08602,0.00391,
3.92188,0.09848,-0.07334,0.16820,-0.16754,0.53741,0.82345,,,0.95431,0.28616,0.08602,0.00392,
3.92969,0.06411,-0.14443,0.16820,-0.16171,0.53399,0.81667,,,0.95430,0.28616,0.08600,0.00393,
3.93750,-0.07341,0.03329,0.13314,-0.16317,0.53058,0.81134,,,0.95431,0.28616,0.08600,0.00394,
3.94531,-0.07341,0.06883,0.09809,-0.16463,0.52960,0.81328,,,0.95431,0.28616,0.08601,0.00394,
3.95313,0.02973,0.03329,0.13314,-0.16074,0.53351,0.81667,,,0.95431,0.28616,0.08601,0.00395,
3.96094,0.13286,-0.00225,0.20325,-0.16366,0.52619,0.81667,,,0.95430,0.28617,0.08600,0.00397,
3.96875,0.06411,0.17546,0.20325,-0.17143,0.52912,0.82394,,,0.95430,0.28617,0.08601,0.00398,
3.97656,0.13286,-0.00225,0.13314,-0.16754,0.52814,0.82297,,,0.95430,0.28618,0.08601,0.00399,
3.98438,0.09848,-0.03780,0.23830,-0.16074,0.53156,0.81715,,,0.95430,0.28619,0.08600,0.00400,
3.99219,0.09848,-0.07334,0.23830,-0.16220,0.53351,0.81570,,,0.95430,0.28620,0.08599,0.00402,
4.00000,0.13286,-0.10889,0.23830,-0.16608,0.52375,0.81473,,,0.95429,0.28621,0.08598,0.00403,
4.00781,0.16724,-0.00225,0.16820,-0.17045,0.53009,0.82394,1023.134,25.8,0.95429,0.28622,0.08597,0.00404,
4.01563,0.20162,-0.03780,0.16820,-0.16268,0.52472,0.82054,,,0.95429,0.28623,0.08597,0.00405,
4.02344,0.13286,-0.03780,0.13314,-0.15880,0.52960,0.82054,,,0.95428,0.28624,0.08596,0.00406,
4.03125,0.13286,-0.00225,0.20325,-0.16026,0.52863,0.81957,,,0.95428,0.28625,0.08596,0.00407,
4.03906,0.30475,-0.14443,0.13314,-0.16026,0.53253,0.81909,,,0.95428,0.28627,0.08595,0.00407,
4.04688,0.06411,-0.07334,0.16820,-0.15831,0.52863,0.82006,,,0.95428,0.28628,0.08594,0.00408,
4.05469,0.02973,0.17546,0.06303,-0.16463,0.52912,0.81424,,,0.95427,0.28628,0.08595,0.00409,
4.06250,-0.07341,0.13992,-0.00707,-0.16317,0.53302,0.81376,,,0.95427,0.28628,0.08596,0.00409,
4.07031,0.02973,0.06883,0.02798,-0.15637,0.53253,0.81618,,,0.95427,0.28628,0.08596,0.00410,
4.07813,0.02973,0.13992,0.02798,-0.16171,0.53399,0.81909,,,0.95427,0.28628,0.08597,0.00410,
4.08594,0.06411,0.38872,0.06303,-0.17385,0.53107,0.82394,,,0.95427,0.28629,0.08600,0.00411,
4.09375,0.06411,0.49535,0.06303,-0.16900,0.52863,0.81715,,,0.95426,0.28629,0.08603,0.00412,
4.10156,0.09848,0.17546,-0.07718,-0.16414,0.53107,0.81715,,,0.95426,0.28630,0.08604,0.00412,
4.10938,0.09848,-0.03780,0.06303,-0.16414,0.52228,0.82151,,,0.95426,0.28630,0.08604,0.00413,
4.11719,0.06411,0.31764,-0.00707,-0.16851,0.52716,0.81957,,,0.95426,0.28631,0.08606,0.00413,
4.12500,0.13286,0.21101,0.06303,-0.16608,0.52668,0.81667,,,0.95425,0.28632,0.08607,0.00414,
4.13281,0.13286,0.24655,-0.00707,-0.16997,0.53448,0.81667,,,0.95425,0.28632,0.08609,0.00414,
4.14063,0.09848,0.06883,0.02798,-0.17045,0.53448,0.81861,,,0.95425,0.28633,0.08609,0.00414,
4.14844,0.16724,0.10438,0.02798,-0.16900,0.53009,0.81376,,,0.95424,0.28634,0.08610,0.00415,
4.15625,0.13286,0.10438,0.09809,-0.16414,0.52668,0.81473,,,0.95424,0.28635,0.08610,0.00415,
4.16406,0.06411,0.24655,-0.00707,-0.15589,0.52570,0.81667,,,0.95424,0.28636,0.08612,0.00416,
4.17188,-0.03903,0.17546,0.02798,-0.16560,0.52814,0.81473,,,0.95424,0.28635,0.08613,0.00416,
4.17969,0.06411,0.10438,-0.00707,-0.15880,0.53058,0.81812,,,0.95423,0.28636,0.08613,0.00417,
4.18750,0.13286,0.28209,-0.00707,-0.16220,0.53351,0.81861,,,0.95423,0.28637,0.08615,0.00417,
4.19531,0.13286,0.13992,0.02798,-0.16463,0.53351,0.81764,,,0.95423,0.28637,0.08616,0.00417,
4.20313,0.06411,0.21101,0.09809,-0.17094,0.52619,0.81667,,,0.95422,0.28638,0.08617,0.00418,
4.21094,-0.03903,0.10438,0.02798,-0.16463,0.53009,0.81570,,,0.95422,0.28638,0.08618,0.00419,
4.21875,0.06411,0.10438,0.09809,-0.16803,0.52863,0.81279,,,0.95422,0.28638,0.08618,0.00420,
4.22656,0.06411,0.03329,0.13314,-0.16317,0.53448,0.81473,,,0.95422,0.28639,0.08618,0.00420,
4.23438,-0.00465,-0.07334,0.27336,-0.16511,0.53741,0.81861,,,0.95422,0.28639,0.08617,0.00422,
4.24219,-0.00465,0.10438,0.13314,-0.16463,0.52912,0.81715,,,0.95422,0.28639,0.08618,0.00423,
4.25000,-0.00465,-0.03780,0.23830,-0.16657,0.52863,0.81715,,,0.95422,0.28639,0.08617,0.00425,
4.25781,-0.00465,0.06883,0.27336,-0.16414,0.53204,0.81764,,,0.95422,0.28639,0.08617,0.00427,
4.26563,-0.03903,0.06883,0.23830,-0.16560,0.53497,0.81667,,,0.95422,0.28639,0.08617,0.00428,
4.27344,0.02973,-0.10889,0.23830,-0.16754,0.53107,0.81909,,,0.95422,0.28639,0.08616,0.00430,
4.28125,0.02973,-0.03780,0.23830,-0.16463,0.53009,0.82103,,,0.95422,0.28640,0.08615,0.00431,
4.28906,0.06411,-0.07334,0.13314,-0.16754,0.52814,0.81231,,,0.95422,0.28640,0.08614,0.00432,
4.29688,0.02973,0.10438,0.16820,-0.17483,0.52716,0.81764,,,0.95422,0.28640,0.08615,0.00433,
4.30469,0.09848,-0.07334,0.20325,-0.15880,0.52912,0.81715,,,0.95422,0.28641,0.08614,0.00434,
4.31250,0.09848,-0.07334,0.20325,-0.16317,0.53156,0.81957,,,0.95422,0.28642,0.08613,0.00435,
4.32031,0.23600,-0.14443,0.34346,-0.16997,0.53253,0.82297,,,0.95421,0.28644,0.08611,0.00437,
4.32813,0.23600,-0.03780,0.51873,-0.17191,0.52765,0.82103,,,0.95421,0.28645,0.08610,0.00440,
4.33594,0.20162,-0.17997,0.41357,-0.16706,0.52716,0.82200,,,0.95420,0.28647,0.08608,0.00442,
4.34375,0.20162,-0.25106,0.48368,-0.16851,0.53546,0.82054,,,0.95420,0.28649,0.08606,0.00445,
4.35156,0.13286,-0.35769,0.55378,-0.16414,0.53009,0.81861,,,0.95420,0.28650,0.08602,0.00448,
4.35938,0.09848,-0.21552,0.44862,-0.16171,0.53302,0.82006,,,0.95420,0.28651,0.08600,0.00450,
4.36719,0.09848,-0.28660,0.34346,-0.15297,0.53156,0.81861,,,0.95420,0.28652,0.08597,0.00452,
4.37500,0.20162,-0.25106,0.30841,-0.16948,0.53595,0.81715,,,0.95420,0.28653,0.08595,0.00453,
4.38281,0.23600,-0.14443,0.23830,-0.16657,0.52228,0.82006,,,0.95419,0.28655,0.08594,0.00454,
4.39063,0.16724,-0.10889,0.20325,-0.16123,0.53107,0.82151,,,0.95419,0.28656,0.08593,0.00455,
4.39844,0.09848,-0.10889,0.20325,-0.16268,0.52668,0.81618,,,0.95419,0.28657,0.08592,0.00456,
4.40625,0.20162,-0.07334,0.16820,-0.17143,0.53302,0.82297,,,0.95419,0.28658,0.08591,0.00457,
4.41406,0.09848,0.03329,0.13314,-0.16268,0.52375,0.81618,,,0.95418,0.28659,0.08591,0.00458,
4.42188,0.16724,-0.21552,0.23830,-0.15929,0.52863,0.82297,,,0.95418,0.28660,0.08589,0.00459,
4.42969,0.16724,-0.03780,0.23830,-0.16026,0.52814,0.82006,,,0.95418,0.28661,0.08588,0.00461,
4.43750,0.09848,-0.07334,0.09809,-0.16851,0.52912,0.81376,,,0.95418,0.28662,0.08588,0.00461,
4.44531,0.13286,-0.21552,0.27336,-0.16317,0.53399,0.81764,,,0.95418,0.28663,0.08586,0.00462,
4.45313,0.16724,-0.14443,0.27336,-0.16463,0.53156,0.81473,,,0.95417,0.28664,0.08584,0.00464,
4.46094,0.13286,-0.32215,0.34346,-0.15977,0.53204,0.81861,,,0.95417,0.28665,0.08581,0.00465,
4.46875,0.13286,-0.21552,0.20325,-0.15929,0.53351,0.81861,,,0.95417,0.28666,0.08580,0.00466,
4.47656,0.13286,-0.07334,0.16820,-0.16220,0.52863,0.82248,,,0.95417,0.28667,0.08579,0.00467,
4.48438,0.09848,-0.10889,0.06303,-0.16803,0.53253,0.82394,,,0.95417,0.28668,0.08578,0.00467,
4.49219,0.09848,0.21101,0.13314,-0.16851,0.52912,0.82345,,,0.95416,0.28669,0.08579,0.00468,
4.50000,0.02973,-0.03780,0.06303,-0.15783,0.52668,0.82006,,,0.95416,0.28669,0.08579,0.00469,
4.50781,0.02973,0.03329,-0.00707,-0.16414,0.52716,0.81328,,,0.95416,0.28669,0.08579,0.00469,
4.51563,0.06411,0.10438,0.06303,-0.16754,0.52912,0.81812,,,0.95416,0.28670,0.08579,0.00469,
4.52344,0.06411,0.03329,0.06303,-0.16123,0.53399,0.81570,,,0.95416,0.28670,0.08580,0.00470,
4.53125,0.06411,-0.00225,0.13314,-0.16268,0.52912,0.81328,,,0.95416,0.28670,0.08579,0.00470,
4.53906,0.20162,-0.03780,0.23830,-0.16220,0.53009,0.81667,,,0.95415,0.28672,0.08579,0.00472,
4.54688,0.20162,-0.07334,0.16820,-0.16608,0.53156,0.81618,,,0.95415,0.28673,0.08578,0.00473,
4.55469,0.09848,-0.17997,0.23830,-0.16511,0.52619,0.81715,,,0.95415,0.28674,0.08576,0.00474,
4.56250,0.13286,0.06883,0.23830,-0.17045,0.53009,0.82345,,,0.95415,0.28675,0.08576,0.00475,
4.57031,0.06411,-0.07334,0.27336,-0.16317,0.53009,0.82006,,,0.95415,0.28676,0.08575,0.00477,
4.57813,0.23600,-0.14443,0.23830,-0.16171,0.53253,0.82200,,,0.95414,0.28677,0.08574,0.00478,
4.58594,0.06411,0.06883,0.20325,-0.17094,0.53643,0.81957,,,0.95414,0.28678,0.08574,0.00479,
4.59375,-0.00465,0.06883,0.20325,-0.17094,0.53790,0.82297,,,0.95414,0.28678,0.08574,0.00481,
4.60156,0.06411,-0.00225,0.16820,-0.16851,0.53253,0.82200,,,0.95414,0.28678,0.08573,0.00482,
4.60938,0.06411,-0.03780,0.20325,-0.16074,0.53643,0.81667,,,0.95414,0.28679,0.08573,0.00483,
4.61719,0.16724,-0.21552,0.16820,-0.16803,0.53351,0.82248,,,0.95414,0.28680,0.08571,0.00484,
4.62500,0.13286,-0.00225,0.06303,-0.16171,0.52375,0.81909,,,0.95413,0.28681,0.08571,0.00484,
4.63281,0.16724,-0.07334,0.20325,-0.16463,0.52863,0.81812,,,0.95413,0.28682,0.08570,0.00485,
4.64063,0.16724,-0.07334,0.06303,-0.16317,0.52863,0.82103,,,0.95413,0.28683,0.08570,0.00485,
4.64844,0.06411,-0.00225,0.09809,-0.16463,0.52472,0.81134,,,0.95413,0.28684,0.08569,0.00486,
4.65625,0.02973,-0.00225,0.23830,-0.16851,0.52863,0.81376,,,0.95413,0.28684,0.08569,0.00487,
4.66406,0.09848,-0.07334,0.23830,-0.16511,0.52814,0.81376,,,0.95412,0.28685,0.08568,0.00489,
4.67188,0.09848,-0.07334,0.34346,-0.15880,0.53448,0.81812,,,0.95412,0.28686,0.08567,0.00491,
4.67969,0.20162,-0.00225,0.37852,-0.16754,0.53058,0.82878,,,0.95412,0.28687,0.08566,0.00493,
4.68750,0.20162,-0.10889,0.20325,-0.16511,0.52521,0.81667,,,0.95411,0.28689,0.08565,0.00494,
4.69531,0.13286,-0.07334,0.23830,-0.16317,0.53546,0.81957,,,0.95411,0.28690,0.08564,0.00496,
4.70313,0.13286,-0.07334,0.34346,-0.16706,0.53351,0.82394,,,0.95411,0.28691,0.08563,0.00498,
4.71094,0.23600,-0.07334,0.37852,-0.16608,0.53009,0.82539,,,0.95411,0.28693,0.08562,0.00500,
4.71875,0.09848,-0.14443,0.30841,-0.16414,0.52375,0.81667,,,0.95410,0.28693,0.08560,0.00501,
4.72656,0.23600,0.03329,0.34346,-0.16657,0.53253,0.81957,,,0.95410,0.28695,0.08560,0.00504,
4.73438,0.20162,-0.07334,0.20325,-0.16803,0.53497,0.82151,,,0.95410,0.28697,0.08559,0.00505,
4.74219,0.06411,-0.10889,0.23830,-0.15589,0.53009,0.81764,,,0.95410,0.28697,0.08558,0.00506,
4.75000,0.09848,-0.07334,0.16820,-0.15929,0.53107,0.81667,,,0.95409,0.28698,0.08557,0.00507,
4.75781,0.13286,-0.00225,0.20325,-0.16414,0.53058,0.82151,,,0.95409,0.28699,0.08556,0.00508,
4.76563,0.16724,-0.03780,0.16820,-0.16414,0.53058,0.81667,,,0.95409,0.28700,0.08556,0.00509,
4.77344,0.16724,0.13992,0.20325,-0.16414,0.53058,0.81812,,,0.95408,0.28701,0.08556,0.00510,
4.78125,0.13286,-0.10889,0.27336,-0.16754,0.52668,0.81473,,,0.95408,0.28702,0.08555,0.00512,
4.78906,0.20162,-0.17997,0.23830,-0.16414,0.52960,0.81473,,,0.95408,0.28704,0.08553,0.00513,
4.79688,0.13286,-0.21552,0.34346,-0.16171,0.52863,0.81521,,,0.95408,0.28705,0.08551,0.00515,
4.80469,0.20162,-0.21552,0.37852,-0.16511,0.52716,0.81231,,,0.95407,0.28706,0.08549,0.00517,
4.81250,0.09848,-0.25106,0.23830,-0.15977,0.52960,0.81812,,,0.95407,0.28707,0.08547,0.00518,
4.82031,0.02973,-0.00225,0.16820,-0.16900,0.52716,0.81376,,,0.95407,0.28707,0.08547,0.00519,
4.82813,0.20162,-0.17997,0.20325,-0.16463,0.52960,0.82054,,,0.95407,0.28709,0.08545,0.00520,
4.83594,0.16724,-0.03780,0.23830,-0.16414,0.52912,0.81667,,,0.95407,0.28710,0.08545,0.00521,
4.84375,0.16724,-0.10889,0.16820,-0.16074,0.52863,0.81715,,,0.95406,0.28711,0.08544,0.00522,
4.85156,0.27038,0.03329,0.20325,-0.17143,0.52960,0.81715,,,0.95406,0.28713,0.08543,0.00523,
4.85938,0.30475,-0.14443,0.23830,-0.16754,0.52912,0.82103,,,0.95405,0.28715,0.08542,0.00524,
4.86719,0.27038,-0.25106,0.27336,-0.16608,0.53595,0.82151,,,0.95405,0.28717,0.08540,0.00525,
4.87500,0.27038,-0.28660,0.30841,-0.15929,0.53107,0.81667,,,0.95405,0.28719,0.08537,0.00527,
4.88281,0.09848,-0.07334,0.23830,-0.16123,0.53302,0.81764,,,0.95404,0.28720,0.08536,0.00528,
4.89063,0.20162,-0.28660,0.37852,-0.16123,0.53156,0.81764,,,0.95404,0.28721,0.08534,0.00530,
4.89844,0.23600,-0.10889,0.34346,-0.16706,0.53448,0.81957,,,0.95404,0.28723,0.08532,0.00532,
4.90625,0.23600,-0.32215,0.30841,-0.16463,0.52765,0.81764,,,0.95404,0.28725,0.08530,0.00533,
4.91406,0.23600,-0.28660,0.27336,-0.16220,0.52912,0.82054,,,0.95403,0.28727,0.08527,0.00534,
4.92188,0.27038,-0.25106,0.41357,-0.16268,0.52912,0.81909,,,0.95403,0.28729,0.08525,0.00536,
4.92969,0.20162,-0.28660,0.27336,-0.16026,0.53058,0.81909,,,0.95403,0.28730,0.08523,0.00537,
4.93750,0.20162,-0.14443,0.20325,-0.16123,0.53351,0.81861,,,0.95402,0.28732,0.08521,0.00538,
4.94531,0.09848,-0.00225,0.13314,-0.16706,0.53351,0.82490,,,0.95402,0.28732,0.08521,0.00539,
4.95313,-0.31405,-0.07334,-0.11223,-0.16074,0.51009,0.81424,,,0.95403,0.28730,0.08521,0.00538,
4.96094,0.16724,-0.25106,0.16820,-0.15831,0.53156,0.81667,,,0.95403,0.28731,0.08519,0.00539,
4.96875,0.13286,-0.10889,0.13314,-0.16074,0.52716,0.80988,,,0.95402,0.28732,0.08518,0.00539,
4.97656,0.23600,-0.25106,0.20325,-0.16657,0.53692,0.82248,,,0.95402,0.28734,0.08516,0.00540,
4.98438,-0.10778,-0.25106,0.06303,-0.16268,0.51448,0.81328,,,0.95402,0.28733,0.08514,0.00540,
4.99219,-0.00465,-0.10889,0.06303,-0.16803,0.52131,0.81473,,,0.95402,0.28733,0.08513,0.00540,
5.00000,0.16724,-0.49986,0.30841,-0.15831,0.53058,0.81618,,,0.95402,0.28735,0.08509,0.00541,
5.00781,0.13286,-0.28660,0.34346,-0.16268,0.52765,0.82151,1023.116,25.8,0.95402,0.28736,0.08507,0.00542,
5.01563,0.16724,-0.17997,0.23830,-0.16414,0.53204,0.81715,,,0.95402,0.28737,0.08505,0.00544,
5.02344,0.16724,-0.32215,0.37852,-0.16754,0.53595,0.82733,,,0.95402,0.28738,0.08502,0.00545,
5.03125,0.06411,-0.35769,0.37852,-0.16268,0.53351,0.81861,,,0.95402,0.28739,0.08499,0.00547,
5.03906,0.09848,-0.25106,0.27336,-0.16511,0.53497,0.82103,,,0.95402,0.28740,0.08497,0.00548,
5.04688,0.02973,-0.35769,0.27336,-0.15686,0.54278,0.83217,,,0.95402,0.28740,0.08494,0.00549,
5.05469,-0.96724,-1.17519,0.69400,-0.14520,0.51253,0.79341,,,0.95405,0.28734,0.08485,0.00552,
5.06250,0.40789,-1.45953,0.16820,-0.11898,0.52619,0.80601,,,0.95405,0.28737,0.08475,0.00550,
5.07031,-0.00465,-0.25106,0.51873,-0.15831,0.54375,0.82781,,,0.95405,0.28737,0.08473,0.00553,
5.07813,-0.45157,0.24655,0.23830,-0.16706,0.53058,0.82054,,,0.95406,0.28734,0.08474,0.00555,
5.08594,0.16724,-0.00225,0.27336,-0.17968,0.53595,0.83847,,,0.95405,0.28736,0.08473,0.00557,
5.09375,0.16724,-0.07334,0.34346,-0.15103,0.53985,0.82442,,,0.95405,0.28737,0.08472,0.00559,
5.10156,-0.14216,0.03329,0.20325,-0.16657,0.52375,0.80988,,,0.95405,0.28736,0.08472,0.00560,
5.10938,-0.00465,-0.07334,0.13314,-0.16220,0.53107,0.82151,,,0.95405,0.28736,0.08471,0.00561,
5.11719,-0.07341,-0.07334,0.30841,-0.16414,0.53156,0.82442,,,0.95405,0.28736,0.08470,0.00563,
5.12500,-0.00465,-0.03780,0.27336,-0.16560,0.52570,0.81085,,,0.95405,0.28736,0.08469,0.00565,
5.13281,0.06411,-0.14443,0.23830,-0.15929,0.53156,0.81667,,,0.95405,0.28737,0.08468,0.00566,
5.14063,0.02973,-0.28660,0.27336,-0.15831,0.52570,0.82103,,,0.95405,0.28737,0.08466,0.00567,
5.14844,-0.00465,-0.10889,0.23830,-0.16123,0.52326,0.82297,,,0.95406,0.28737,0.08464,0.00569,
5.15625,-0.03903,-0.14443,0.30841,-0.15443,0.52863,0.82054,,,0.95406,0.28737,0.08463,0.00570,
5.16406,0.02973,0.10438,0.34346,-0.16268,0.52863,0.82006,,,0.95406,0.28737,0.08463,0.00573,
5.17188,0.02973,-0.00225,0.13314,-0.16657,0.53009,0.82636,,,0.95405,0.28738,0.08463,0.00574,
5.17969,-0.00465,0.06883,0.13314,-0.16074,0.53253,0.81521,,,0.95405,0.28738,0.08463,0.00575,
5.18750,0.09848,-0.10889,0.13314,-0.16268,0.53497,0.82490,,,0.95405,0.28738,0.08462,0.00575,
5.19531,0.20162,0.03329,0.06303,-0.16560,0.53302,0.82006,,,0.95405,0.28740,0.08462,0.00575,
5.20313,-0.00465,0.21101,0.09809,-0.16074,0.53107,0.81764,,,0.95405,0.28740,0.08463,0.00577,
5.21094,0.13286,0.13992,0.02798,-0.16074,0.53058,0.82297,,,0.95404,0.28741,0.08464,0.00577,
5.21875,0.09848,0.03329,0.06303,-0.15880,0.52912,0.82103,,,0.95404,0.28741,0.08464,0.00577,
5.22656,0.13286,0.35318,-0.14729,-0.16608,0.52619,0.81715,,,0.95404,0.28742,0.08467,0.00577,
5.23438,0.06411,0.49535,-0.04213,-0.16706,0.52912,0.81957,,,0.95403,0.28742,0.08470,0.00578,
5.24219,0.02973,0.31764,-0.14729,-0.16657,0.52863,0.81715,,,0.95403,0.28743,0.08472,0.00577,
5.25000,0.13286,0.28209,0.02798,-0.16657,0.53643,0.82442,,,0.95403,0.28743,0.08474,0.00578,
5.25781,0.09848,0.21101,-0.11223,-0.15977,0.52472,0.82006,,,0.95402,0.28744,0.08476,0.00578,
5.26563,0.02973,0.24655,-0.11223,-0.16220,0.53302,0.81861,,,0.95402,0.28744,0.08477,0.00577,
5.27344,0.16724,0.28209,-0.11223,-0.16560,0.53009,0.81764,,,0.95402,0.28745,0.08480,0.00577,
5.28125,0.13286,0.31764,-0.07718,-0.16608,0.53302,0.82490,,,0.95401,0.28746,0.08482,0.00577,
5.28906,0.06411,0.31764,-0.07718,-0.16268,0.53058,0.82103,,,0.95401,0.28746,0.08484,0.00577,
5.29688,0.06411,0.24655,-0.21739,-0.16366,0.53399,0.82054,,,0.95401,0.28747,0.08486,0.00576,
5.30469,0.16724,0.31764,-0.14729,-0.16074,0.53351,0.81957,,,0.95400,0.28748,0.08488,0.00576,
5.31250,0.09848,0.31764,-0.11223,-0.16074,0.53302,0.82200,,,0.95400,0.28748,0.08491,0.00576,
5.32031,0.09848,0.28209,-0.18234,-0.15977,0.52960,0.82006,,,0.95399,0.28749,0.08493,0.00575,
5.32813,0.06411,0.56644,-0.04213,-0.17045,0.52472,0.81618,,,0.95399,0.28749,0.08497,0.00576,
5.33594,0.16724,0.45981,-0.14729,-0.15977,0.53107,0.81521,,,0.95398,0.28750,0.08500,0.00576,
5.34375,0.16724,0.28209,-0.21739,-0.16414,0.53156,0.81861,,,0.95398,0.28751,0.08502,0.00575,
5.35156,0.13286,0.31764,-0.04213,-0.16997,0.53156,0.81521,,,0.95397,0.28752,0.08504,0.00575,
5.35938,0.09848,0.24655,-0.04213,-0.17191,0.53009,0.82103,,,0.95397,0.28752,0.08506,0.00575,
5.36719,0.09848,0.17546,-0.07718,-0.16366,0.52716,0.81182,,,0.95397,0.28753,0.08507,0.00575,
5.37500,0.09848,0.10438,0.06303,-0.16803,0.53448,0.82248,,,0.95397,0.28754,0.08508,0.00575,
5.38281,0.02973,0.10438,-0.04213,-0.16511,0.53107,0.82103,,,0.95396,0.28754,0.08509,0.00575,
5.39063,0.06411,0.17546,-0.07718,-0.16366,0.53253,0.81957,,,0.95396,0.28754,0.08510,0.00575,
5.39844,-0.03903,0.13992,0.06303,-0.16706,0.52521,0.81085,,,0.95396,0.28754,0.08511,0.00576,
5.40625,0.16724,-0.03780,0.13314,-0.16657,0.53546,0.82054,,,0.95396,0.28755,0.08510,0.00576,
5.41406,-0.00465,0.10438,0.13314,-0.15394,0.52716,0.81085,,,0.95396,0.28755,0.08511,0.00578,
5.42188,0.23600,0.03329,0.09809,-0.16317,0.52472,0.82103,,,0.95395,0.28757,0.08511,0.00578,
5.42969,0.09848,0.10438,0.13314,-0.16803,0.52131,0.81279,,,0.95395,0.28757,0.08511,0.00579,
5.43750,0.23600,-0.03780,0.20325,-0.16560,0.53107,0.82103,,,0.95395,0.28759,0.08510,0.00580,
5.44531,0.20162,0.06883,0.16820,-0.16511,0.52863,0.81861,,,0.95394,0.28760,0.08511,0.00581,
5.45313,0.23600,-0.14443,0.20325,-0.16997,0.53009,0.82200,,,0.95394,0.28762,0.08509,0.00582,
5.46094,0.23600,-0.14443,0.16820,-0.17045,0.53253,0.82636,,,0.95393,0.28764,0.08508,0.00583,
5.46875,0.09848,-0.10889,0.44862,-0.16900,0.53546,0.82103,,,0.95393,0.28765,0.08506,0.00586,
5.47656,0.13286,-0.39323,0.34346,-0.15734,0.53399,0.81618,,,0.95393,0.28766,0.08503,0.00587,
5.48438,0.06411,-0.14443,0.37852,-0.16657,0.53497,0.81861,,,0.95393,0.28766,0.08502,0.00589,
5.49219,0.13286,-0.10889,0.13314,-0.15443,0.52765,0.81764,,,0.95393,0.28767,0.08501,0.00590,
5.50000,0.09848,-0.14443,0.16820,-0.16268,0.52814,0.82054,,,0.95393,0.28768,0.08499,0.00590,
5.50781,-0.00465,-0.07334,0.30841,-0.16414,0.52180,0.81764,,,0.95393,0.28768,0.08498,0.00592,
5.51563,0.02973,-0.07334,0.27336,-0.16608,0.53399,0.82248,,,0.95393,0.28769,0.08497,0.00594,
5.52344,0.06411,-0.10889,0.16820,-0.16268,0.52765,0.81231,,,0.95393,0.28769,0.08496,0.00595,
5.53125,0.13286,-0.10889,0.20325,-0.16026,0.53204,0.81570,,,0.95393,0.28770,0.08495,0.00596,
5.53906,0.06411,-0.17997,0.20325,-0.15394,0.52668,0.81764,,,0.95393,0.28771,0.08494,0.00597,
5.54688,0.06411,0.03329,0.20325,-0.16608,0.53058,0.82200,,,0.95392,0.28771,0.08493,0.00598,
5.55469,0.16724,-0.00225,0.34346,-0.16317,0.52960,0.81957,,,0.95392,0.28772,0.08493,0.00600,
5.56250,0.09848,-0.03780,0.20325,-0.16511,0.52716,0.81521,,,0.95392,0.28773,0.08492,0.00601,
5.57031,0.13286,-0.28660,0.30841,-0.16511,0.52765,0.81957,,,0.95392,0.28774,0.08490,0.00603,
5.57813,0.09848,-0.07334,0.16820,-0.16366,0.52912,0.82103,,,0.95392,0.28775,0.08489,0.00604,
5.58594,0.06411,-0.00225,0.23830,-0.16366,0.53156,0.81618,,,0.95392,0.28776,0.08488,0.00605,
5.59375,0.06411,-0.14443,0.30841,-0.16851,0.53546,0.82103,,,0.95392,0.28776,0.08487,0.00607,
5.60156,-0.03903,-0.07334,0.20325,-0.16608,0.52424,0.82006,,,0.95392,0.28776,0.08486,0.00608,
5.60938,-0.00465,-0.00225,0.16820,-0.16511,0.53107,0.82345,,,0.95392,0.28776,0.08486,0.00609,
5.61719,0.13286,0.03329,0.13314,-0.16657,0.53302,0.82200,,,0.95391,0.28777,0.08485,0.00610,
5.62500,0.06411,0.10438,0.02798,-0.15831,0.53107,0.81764,,,0.95391,0.28777,0.08486,0.00610,
5.63281,-0.00465,0.06883,0.09809,-0.16608,0.53009,0.82587,,,0.95391,0.28777,0.08486,0.00611,
5.64063,0.13286,0.31764,0.06303,-0.16560,0.52765,0.81279,,,0.95391,0.28778,0.08488,0.00612,
5.64844,0.09848,0.13992,0.06303,-0.16463,0.53448,0.81909,,,0.95390,0.28779,0.08489,0.00613,
5.65625,-0.00465,-0.00225,-0.00707,-0.15540,0.53204,0.81328,,,0.95390,0.28779,0.08489,0.00613,
5.66406,-0.03903,-0.00225,-0.00707,-0.15783,0.53351,0.82151,,,0.95390,0.28779,0.08489,0.00613,
5.67188,0.02973,0.17546,-0.14729,-0.16171,0.52863,0.82103,,,0.95390,0.28779,0.08491,0.00612,
5.67969,-0.03903,0.38872,-0.07718,-0.17191,0.53156,0.82200,,,0.95390,0.28778,0.08493,0.00612,
5.68750,0.02973,0.21101,0.02798,-0.16366,0.53399,0.81715,,,0.95390,0.28779,0.08495,0.00613,
5.69531,0.06411,0.24655,-0.04213,-0.15929,0.53302,0.81424,,,0.95390,0.28779,0.08496,0.00613,
5.70313,0.02973,0.31764,0.06303,-0.17677,0.52033,0.82200,,,0.95390,0.28779,0.08498,0.00614,
5.71094,0.13286,0.24655,0.09809,-0.17094,0.52814,0.82103,,,0.95389,0.28780,0.08500,0.00615,
5.71875,0.06411,0.13992,0.09809,-0.16171,0.53058,0.81521,,,0.95389,0.28781,0.08500,0.00616,
5.72656,0.23600,-0.03780,0.37852,-0.16074,0.53204,0.82151,,,0.95388,0.28782,0.08499,0.00618,
5.73438,0.13286,0.10438,0.16820,-0.16268,0.53302,0.82200,,,0.95388,0.28783,0.08500,0.00619,
5.74219,0.20162,0.03329,0.23830,-0.16220,0.53058,0.81957,,,0.95388,0.28785,0.08499,0.00621,
5.75000,0.09848,0.13992,0.16820,-0.16706,0.52960,0.82151,,,0.95387,0.28786,0.08500,0.00622,
5.75781,0.13286,0.10438,0.23830,-0.16657,0.52619,0.81376,,,0.95387,0.28787,0.08500,0.00624,
5.76563,0.09848,0.24655,0.23830,-0.16171,0.53497,0.81473,,,0.95387,0.28787,0.08501,0.00626,
5.77344,0.23600,-0.10889,0.13314,-0.16511,0.52863,0.81909,,,0.95386,0.28789,0.08500,0.00626,
5.78125,0.13286,-0.10889,0.30841,-0.15977,0.53058,0.81667,,,0.95386,0.28790,0.08499,0.00628,
5.78906,0.02973,0.03329,0.16820,-0.16220,0.53253,0.82054,,,0.95386,0.28790,0.08499,0.00629,
5.79688,0.16724,0.13992,0.16820,-0.15831,0.52716,0.81715,,,0.95386,0.28791,0.08500,0.00631,
5.80469,0.33913,-0.10889,0.37852,-0.16608,0.52619,0.81376,,,0.95385,0.28794,0.08498,0.00633,
5.81250,0.37351,0.06883,0.30841,-0.15929,0.50716,0.79729,,,0.95384,0.28796,0.08498,0.00635,
5.82031,0.75167,-0.39323,-0.28750,-0.10295,0.53595,0.81279,,,0.95383,0.28801,0.08496,0.00631,
5.82813,-0.10778,0.45981,0.27336,-0.20396,0.50569,0.80165,,,0.95383,0.28801,0.08499,0.00634,
5.83594,0.40789,-0.35769,0.30841,-0.17094,0.52570,0.81764,,,0.95382,0.28803,0.08496,0.00635,
5.84375,0.20162,-0.67758,0.83421,-0.16463,0.52716,0.81861,,,0.95382,0.28805,0.08490,0.00639,
5.85156,0.16724,-0.85530,1.04453,-0.18794,0.52960,0.81715,,,0.95382,0.28807,0.08482,0.00644,
5.85938,0.23600,-1.35290,1.32496,-0.17337,0.52912,0.81037,,,0.95383,0.28809,0.08471,0.00650,
5.86719,0.30475,-1.92160,1.78066,-0.17240,0.53058,0.82103,,,0.95383,0.28812,0.08455,0.00658,
5.87500,0.23600,-2.02823,2.09614,-0.16608,0.52716,0.81570,,,0.95384,0.28815,0.08437,0.00667,
5.88281,0.23600,-2.24149,1.95592,-0.14860,0.53741,0.82200,,,0.95384,0.28818,0.08419,0.00675,
5.89063,-0.07341,-2.02823,2.51678,-0.20348,0.52326,0.80746,,,0.95386,0.28819,0.08401,0.00688,
5.89844,0.06411,-2.73910,2.83226,-0.20056,0.52375,0.80698,,,0.95387,0.28821,0.08377,0.00701,
5.90625,0.40789,-4.37410,3.56838,-0.15589,0.55449,0.83799,,,0.95388,0.28826,0.08342,0.00715,
5.91406,-0.38281,-3.44997,3.95397,-0.16171,0.53253,0.81861,,,0.95391,0.28826,0.08312,0.00734,
5.92188,-0.27968,-3.91203,3.77871,-0.16900,0.52326,0.81279,,,0.95394,0.28827,0.08279,0.00751,
5.92969,-0.34843,-4.12529,3.81376,-0.15297,0.52570,0.82490,,,0.95396,0.28827,0.08245,0.00768,
5.93750,-0.62346,-4.08975,3.77871,-0.15346,0.53253,0.82248,,,0.95400,0.28825,0.08210,0.00785,
5.94531,-0.27968,-3.44997,3.28796,-0.14229,0.54424,0.82490,,,0.95402,0.28825,0.08182,0.00800,
5.95313,-0.24530,-2.59692,2.23635,-0.13840,0.54229,0.82684,,,0.95404,0.28825,0.08160,0.00809,
5.96094,-0.65784,-1.85051,1.36001,-0.15686,0.53985,0.82733,,,0.95406,0.28822,0.08145,0.00815,
5.96875,-0.76097,-1.77943,1.21980,-0.16511,0.53936,0.83072,,,0.95408,0.28817,0.08131,0.00820,
5.97656,-1.10475,-1.99269,0.79916,-0.16414,0.52960,0.82297,,,0.95412,0.28811,0.08117,0.00822,
5.98438,-1.75794,-2.24149,0.65894,-0.16074,0.51692,0.80358,,,0.95416,0.28800,0.08101,0.00823,
5.99219,-1.68918,-2.77464,0.69400,-0.16560,0.53156,0.82490,,,0.95421,0.28789,0.08081,0.00823,
6.00000,-2.65178,-2.56138,0.23830,-0.13452,0.53058,0.82442,,,0.95428,0.28772,0.08064,0.00821,
6.00781,-2.72053,-2.41921,-0.04213,-0.11849,0.52863,0.82054,1023.113,25.8,0.95434,0.28755,0.08048,0.00817,
6.01563,-3.30496,-0.89084,-0.74320,-0.13063,0.52960,0.81667,,,0.95441,0.28733,0.08044,0.00812,
6.02344,-3.40810,-0.25106,-1.82985,-0.12141,0.52180,0.80891,,,0.95448,0.28710,0.08046,0.00802,
6.03125,-2.78929,0.35318,-2.42576,-0.11218,0.53790,0.84865,,,0.95454,0.28690,0.08052,0.00788,
6.03906,-3.44248,2.34361,-3.58253,-0.13209,0.53595,0.82733,,,0.95459,0.28666,0.08074,0.00771,
6.04688,-3.51123,3.01894,-4.59908,-0.13161,0.52228,0.83605,,,0.95465,0.28640,0.08103,0.00749,
6.05469,-3.78626,3.65872,-5.01972,-0.15152,0.52277,0.80746,,,0.95470,0.28613,0.08136,0.00726,
6.06250,-3.61437,4.08524,-5.65069,-0.19376,0.51838,0.82200,,,0.95475,0.28586,0.08174,0.00699,
6.07031,-3.57999,2.23698,-4.63413,-0.20056,0.51350,0.80358,,,0.95481,0.28560,0.08197,0.00675,
6.07813,-3.51123,1.24176,-4.17844,-0.19862,0.52668,0.82636,,,0.95488,0.28534,0.08213,0.00652,
6.08594,-3.20183,-0.28660,-2.63608,-0.19231,0.51497,0.82006,,,0.95494,0.28512,0.08216,0.00637,
6.09375,-2.54864,-1.95714,-1.30405,-0.17774,0.52668,0.83411,,,0.95500,0.28495,0.08206,0.00626,
6.10156,-2.61740,-2.13486,-0.67309,-0.17968,0.51692,0.81957,,,0.95507,0.28478,0.08193,0.00619,
6.10938,-2.41113,-3.23671,0.83421,-0.17580,0.51594,0.81328,,,0.95513,0.28462,0.08171,0.00619,
6.11719,-1.62043,-3.94757,2.20130,-0.20153,0.52424,0.82878,,,0.95518,0.28453,0.08141,0.00627,
6.12500,-1.27665,-5.26268,2.97248,-0.17822,0.51887,0.81812,,,0.95524,0.28447,0.08100,0.00637,
6.13281,-0.72659,-6.04464,3.98903,-0.15880,0.52521,0.83944,,,0.95528,0.28445,0.08053,0.00651,
6.14063,-0.58908,-5.83138,4.12924,-0.15492,0.52570,0.83266,,,0.95532,0.28443,0.08007,0.00667,
6.14844,-0.27968,-5.51148,4.09419,-0.15443,0.52863,0.83605,,,0.95536,0.28444,0.07963,0.00683,
6.15625,0.06411,-5.12051,4.12924,-0.15152,0.51155,0.82394,,,0.95538,0.28447,0.07922,0.00700,
6.16406,0.33913,-5.51148,4.30451,-0.15734,0.51204,0.82684,,,0.95540,0.28452,0.07878,0.00717,
6.17188,0.51102,-5.58257,4.47978,-0.14035,0.50911,0.81861,,,0.95542,0.28458,0.07833,0.00735,
6.17969,0.85481,-5.15605,4.12924,-0.12529,0.51106,0.82636,,,0.95543,0.28466,0.07791,0.00752,
6.18750,0.88918,-5.15605,3.98903,-0.12578,0.52082,0.82830,,,0.95544,0.28474,0.07750,0.00767,
6.19531,0.95794,-4.65844,3.53333,-0.11655,0.51545,0.82927,,,0.95544,0.28482,0.07713,0.00781,
6.20313,0.82043,-3.62768,2.69205,-0.11607,0.51448,0.82587,,,0.95544,0.28489,0.07684,0.00791,
6.21094,0.57978,-3.34334,2.58689,-0.13015,0.50960,0.82054,,,0.95545,0.28494,0.07657,0.00801,
6.21875,0.64854,-3.37888,2.30646,-0.13840,0.51984,0.81861,,,0.95545,0.28500,0.07631,0.00809,
6.22656,0.64854,-2.95236,1.88582,-0.11461,0.53643,0.83023,,,0.95545,0.28505,0.07608,0.00815,
6.23438,0.20162,-2.09932,1.36001,-0.12384,0.53741,0.83411,,,0.95546,0.28508,0.07592,0.00820,
6.24219,-0.79535,-0.81975,0.44862,-0.13986,0.53936,0.82200,,,0.95548,0.28503,0.07585,0.00822,
6.25000,-1.55167,-1.24627,0.16820,-0.16171,0.52668,0.82442,,,0.95551,0.28493,0.07577,0.00821,
6.25781,-1.99859,-1.88606,0.58884,-0.17434,0.52131,0.82394,,,0.95556,0.28480,0.07563,0.00822,
6.26563,-2.44551,-4.12529,1.92087,-0.18017,0.52375,0.82394,,,0.95563,0.28465,0.07533,0.00828,
6.27344,-3.27058,-6.32898,3.46322,-0.17580,0.51887,0.81473,,,0.95572,0.28446,0.07484,0.00840,
6.28125,-3.51123,-7.18203,4.09419,-0.18114,0.51936,0.82394,,,0.95583,0.28426,0.07430,0.00855,
6.28906,-4.19880,-9.06583,5.14579,-0.14520,0.52521,0.82539,,,0.95595,0.28402,0.07360,0.00873,
6.29688,-4.43944,-9.20800,5.49633,-0.13695,0.54619,0.84235,,,0.95608,0.28376,0.07289,0.00893,
6.30469,-5.47079,-8.49713,5.00558,-0.11995,0.53204,0.83702,,,0.95622,0.28343,0.07224,0.00912,
6.31250,-5.95209,-7.28866,3.81376,-0.11121,0.53204,0.83799,,,0.95637,0.28307,0.07169,0.00926,
6.32031,-5.95209,-6.64887,3.39312,-0.10295,0.53546,0.84138,,,0.95652,0.28270,0.07118,0.00938,
6.32813,-5.91771,-4.80062,2.13119,-0.13015,0.52912,0.83750,,,0.95665,0.28233,0.07083,0.00945,
6.33594,-5.23014,-3.84094,1.50023,-0.14083,0.51789,0.83605,,,0.95677,0.28200,0.07054,0.00950,
6.34375,-4.68009,-3.41442,1.36001,-0.13501,0.51887,0.83508,,,0.95688,0.28170,0.07029,0.00955,
6.35156,-3.85501,-2.66801,1.21980,-0.14763,0.51448,0.83460,,,0.95696,0.28146,0.07009,0.00959,
6.35938,-3.16745,-2.24149,1.46517,-0.16171,0.51594,0.82103,,,0.95703,0.28126,0.06991,0.00966,
6.36719,-2.89242,-2.34812,1.71055,-0.15637,0.50862,0.82442,,,0.95710,0.28108,0.06973,0.00974,
6.37500,-2.89242,-2.98790,2.58689,-0.14326,0.50521,0.83266,,,0.95717,0.28090,0.06948,0.00987,
6.38281,-2.47988,-3.30779,2.90237,-0.14715,0.51057,0.83944,,,0.95723,0.28076,0.06921,0.01001,
6.39063,-2.37675,-3.41442,2.86731,-0.13646,0.50569,0.83266,,,0.95729,0.28062,0.06893,0.01014,
6.39844,-2.10172,-3.59214,3.11269,-0.15686,0.50765,0.82442,,,0.95734,0.28050,0.06863,0.01028,
6.40625,-1.72356,-4.69399,3.32301,-0.16657,0.51009,0.82394,,,0.95739,0.28040,0.06826,0.01042,
6.41406,-1.41416,-5.47594,3.39312,-0.17094,0.52082,0.83169,,,0.95744,0.28033,0.06784,0.01054,
6.42188,-1.99859,-6.54224,3.98903,-0.17871,0.49594,0.80940,,,0.95751,0.28022,0.06733,0.01069,
6.42969,-1.99859,-7.03985,4.37462,-0.18502,0.51155,0.83363,,,0.95758,0.28012,0.06679,0.01085,
6.43750,-2.41113,-8.92365,5.32106,-0.16900,0.51204,0.83556,,,0.95766,0.27999,0.06610,0.01103,
6.44531,-2.82367,-10.13213,6.19740,-0.14472,0.51009,0.83120,,,0.95775,0.27984,0.06532,0.01126,
6.45313,-2.58302,-10.55865,6.40772,-0.12481,0.51692,0.83993,,,0.95785,0.27971,0.06451,0.01149,
6.46094,-2.37675,-10.16767,6.30256,-0.09713,0.51301,0.83023,,,0.95793,0.27959,0.06372,0.01171,
6.46875,-1.68918,-8.88811,5.63654,-0.08304,0.50521,0.82394,,,0.95800,0.27951,0.06303,0.01192,
6.47656,-0.93286,-7.71518,5.25095,-0.08693,0.52180,0.84622,,,0.95804,0.27948,0.06243,0.01212,
6.48438,-0.14216,-5.33377,3.95397,-0.08304,0.52619,0.84574,,,0.95807,0.27949,0.06200,0.01228,
6.49219,1.23297,-2.20595,3.04258,-0.10733,0.51545,0.82684,,,0.95805,0.27959,0.06180,0.01243,
6.50000,2.84875,-0.64204,2.65699,-0.13112,0.50862,0.82878,,,0.95799,0.27979,0.06171,0.01258,
6.50781,6.08030,-0.35769,3.67355,-0.18259,0.49057,0.81618,,,0.95788,0.28020,0.06162,0.01279,
6.51563,11.54644,-1.42399,6.58299,-0.29234,0.48910,0.85059,,,0.95766,0.28098,0.06142,0.01314,
6.52344,14.19357,-3.27225,9.24705,-0.38607,0.48179,0.85543,,,0.95739,0.28195,0.06104,0.01362,
6.53125,21.51614,-12.47799,18.88676,-0.57642,0.50667,0.90098,,,0.95701,0.28344,0.05988,0.01452,
6.53906,24.88521,-36.75415,33.78450,-0.61673,0.54083,0.93732,,,0.95664,0.28524,0.05686,0.01592,
6.54688,26.87915,-48.55456,42.47777,-0.73959,0.53058,1.01824,,,0.95624,0.28721,0.05289,0.01764,
6.55469,32.62032,-92.48623,63.12428,-0.47930,0.73795,1.02405,,,0.95583,0.28966,0.04567,0.01982,
6.56250,31.31394,-116.97564,89.87010,-0.41229,0.71063,1.04198,,,0.95541,0.29213,0.03631,0.02327,
6.57031,31.38270,-126.14584,96.42511,-0.61867,0.75064,1.11806,,,0.95488,0.29459,0.02622,0.02696,
6.57813,33.34226,-153.05221,101.36765,-0.26272,0.58181,1.17378,,,0.95422,0.29720,0.01428,0.03042,
6.58594,35.85187,-156.07340,98.94896,0.32050,0.69843,1.10691,,,0.95337,0.29993,0.00220,0.03366,
6.59375,37.36451,-104.21555,97.54682,0.03350,0.52277,1.01388,,,0.95235,0.30259,-0.00649,0.03786,
6.60156,50.56577,-87.36797,107.64223,-0.13501,0.55790,1.07590,,,0.95094,0.30604,-0.01425,0.04307,
6.60938,53.69419,-76.27843,108.58867,-0.32925,0.59450,1.18008,,,0.94938,0.30962,-0.02130,0.04857,
6.61719,42.34936,-33.69741,85.66368,-0.69783,0.89556,1.30316,,,0.94813,0.31234,-0.02515,0.05346,
6.62500,16.11875,16.24109,48.08633,-1.17227,0.42860,1.05264,,,0.94763,0.31324,-0.02506,0.05694,
6.63281,14.50297,15.77902,36.34341,-1.30775,0.35687,0.97366,,,0.94721,0.31405,-0.02476,0.05965,
6.64063,13.23098,3.69426,19.48267,-1.13245,0.22611,0.76046,,,0.94685,0.31486,-0.02488,0.06101,
6.64844,19.65971,2.23698,7.73975,-0.80515,0.12657,0.63060,,,0.94640,0.31610,-0.02482,0.06159,
6.65625,23.54446,11.54936,0.51873,-0.71142,0.13291,0.64756,,,0.94591,0.31757,-0.02398,0.06191,
6.66406,28.11676,36.89181,-15.99147,-0.68326,0.11778,0.66500,,,0.94542,0.31925,-0.02114,0.06172,
6.67188,30.45449,56.86721,-33.30790,-0.76581,0.16267,0.76240,,,0.94497,0.32102,-0.01662,0.06086,
6.67969,29.35438,61.91438,-41.72074,-0.77795,0.18073,0.79438,,,0.94456,0.32270,-0.01159,0.05956,
6.68750,25.05710,64.04698,-56.19783,-0.69589,0.19195,0.84332,,,0.94427,0.32409,-0.00613,0.05736,
6.69531,17.87204,66.14404,-69.20268,-0.52009,0.17341,0.86221,,,0.94415,0.32500,-0.00027,0.05438,
6.70313,13.78103,68.95197,-75.26694,-0.44822,0.13291,0.84380,,,0.94410,0.32563,0.00589,0.05106,
6.71094,8.07424,75.34979,-86.51911,-0.40452,0.12169,0.84429,,,0.94416,0.32584,0.01269,0.04716,
6.71875,5.59901,76.66490,-91.04101,-0.36907,0.10266,0.83847,,,0.94423,0.32586,0.01966,0.04299,
6.72656,2.74561,76.84261,-98.22698,-0.27438,0.09485,0.84089,,,0.94433,0.32567,0.02680,0.03837,
6.73438,0.51102,78.08663,-103.76544,-0.15249,0.11437,0.83847,,,0.94441,0.32529,0.03413,0.03342,
6.74219,-0.69222,79.97043,-106.25423,-0.10393,0.12461,0.84865,,,0.94444,0.32481,0.04163,0.02835,
6.75000,-3.06431,83.73804,-110.91635,-0.03643,0.14852,0.86125,,,0.94444,0.32412,0.04947,0.02308,
6.75781,-4.71447,86.36825,-114.35159,0.01165,0.18951,0.91261,,,0.94439,0.32327,0.05755,0.01764,
6.76563,-5.74582,87.11466,-115.50836,0.02767,0.22025,0.96106,,,0.94427,0.32233,0.06570,0.01214,
6.77344,-9.87121,84.66217,-115.64857,0.04467,0.26563,1.06524,,,0.94416,0.32109,0.07367,0.00660,
6.78125,-17.19378,80.71685,-115.22793,0.08109,0.40811,1.24986,,,0.94413,0.31935,0.08138,0.00104,
6.78906,-23.93192,78.29989,-114.91245,0.12868,0.45056,1.31575,,,0.94419,0.31715,0.08892,-0.00452,
6.79688,-40.50224,74.60338,-113.96600,0.23212,0.50911,1.41509,,,0.94453,0.31386,0.09619,-0.01000,
6.80469,-58.75709,71.86654,-110.04001,0.35303,0.55254,1.44658,,,0.94520,0.30939,0.10321,-0.01516,
6.81250,-67.86733,70.40925,-106.18413,0.41131,0.57059,1.43738,,,0.94598,0.30433,0.11005,-0.02004,
6.82031,-85.36586,65.96633,-94.09067,0.49580,0.60621,1.40588,,,0.94708,0.29819,0.11636,-0.02410,
6.82813,-100.97359,59.21308,-76.31854,0.55262,0.61743,1.34483,,,0.94850,0.29115,0.12189,-0.02702,
6.83594,-107.47108,55.33885,-65.87260,0.56282,0.62866,1.31333,,,0.95001,0.28374,0.12697,-0.02928,
6.84375,-118.30023,47.62592,-43.01772,0.55310,0.65110,1.27021,,,0.95176,0.27579,0.13112,-0.03012,
6.85156,-127.54798,41.72572,-21.28455,0.51426,0.65061,1.20237,,,0.95370,0.26740,0.13448,-0.02958,
6.85938,-131.15770,40.65941,-12.03042,0.46958,0.65452,1.18977,,,0.95565,0.25883,0.13760,-0.02841,
6.86719,-136.45195,39.13105,3.25290,0.32195,0.62670,1.11515,,,0.95765,0.25003,0.14035,-0.02623,
6.87500,-137.10514,37.31833,9.31716,0.25834,0.61353,1.08705,,,0.95960,0.24123,0.14286,-0.02367,
6.88281,-136.41757,31.63139,19.02698,0.13451,0.60475,1.03278,,,0.96153,0.23253,0.14483,-0.02058,
6.89063,-132.77348,25.26911,25.33661,0.04516,0.60182,0.96833,,,0.96337,0.22410,0.14626,-0.01720,
6.89844,-130.02322,22.35455,27.75530,0.00679,0.59792,0.94071,,,0.96513,0.21585,0.14745,-0.01374,
6.90625,-122.52876,16.48989,31.08538,-0.06216,0.59694,0.85592,,,0.96676,0.20811,0.14819,-0.01022,
6.91406,-112.35279,12.65120,32.03183,-0.12481,0.65452,0.84768,,,0.96822,0.20103,0.14864,-0.00680,
6.92188,-108.19302,11.08729,31.71635,-0.15249,0.68233,0.82587,,,0.96957,0.19421,0.14898,-0.00345,
6.92969,-100.35478,7.35523,29.99872,-0.20833,0.73112,0.77403,,,0.97081,0.18788,0.14909,-0.00035,
6.93750,-92.72281,5.61361,26.14284,-0.23504,0.85506,0.80407,,,0.97192,0.18201,0.14913,0.00239,
6.94531,-91.31330,5.43589,23.05813,-0.24475,0.87506,0.77500,,,0.97297,0.17619,0.14918,0.00492,
6.95313,-88.45990,4.47622,14.57518,-0.31225,0.88922,0.71007,,,0.97397,0.17047,0.14927,0.00684,
6.96094,-83.71570,-0.07334,6.05718,-0.38072,0.84042,0.56955,,,0.97492,0.16497,0.14916,0.00809,
6.96875,-79.62469,-3.87649,2.72710,-0.41277,0.80383,0.50898,,,0.97584,0.15970,0.14882,0.00904,
6.97656,-66.97349,-10.38093,-3.19694,-0.34188,0.78480,0.44114,,,0.97667,0.15522,0.14812,0.00939,
6.98438,-52.67214,-8.85257,-9.89216,-0.24524,0.75991,0.39462,,,0.97731,0.15162,0.14760,0.00917,
6.99219,-45.24644,-4.80062,-13.85321,-0.20979,0.74186,0.38445,,,0.97783,0.14847,0.14740,0.00865,
7.00000,-29.87935,3.55209,-21.24949,-0.19474,0.70721,0.37379,,,0.97811,0.14626,0.14783,0.00757,
7.00781,-22.21300,6.14676,-23.98367,-0.19765,0.70136,0.37137,1023.133,25.8,0.97828,0.14454,0.14847,0.00626,
7.01563,-6.22711,4.54730,-27.31375,-0.18502,0.68428,0.37524,,,0.97830,0.14385,0.14904,0.00455,
7.02344,9.65564,-2.49029,-27.80450,-0.13549,0.65988,0.36604,,,0.97824,0.14421,0.14915,0.00257,
7.03125,18.11269,-6.32898,-27.24364,-0.11364,0.65598,0.37815,,,0.97813,0.14514,0.14900,0.00051,
7.03906,34.23609,-13.50875,-25.21054,-0.06265,0.66086,0.38978,,,0.97792,0.14717,0.14835,-0.00166,
7.04688,49.67193,-17.52516,-22.09078,-0.03983,0.69160,0.45374,,,0.97759,0.15026,0.14739,-0.00381,
7.05469,56.23818,-17.84505,-20.37316,-0.01992,0.78089,0.53854,,,0.97718,0.15380,0.14640,-0.00591,
7.06250,59.43536,-15.14375,-17.63898,-0.00972,0.89702,0.63884,,,0.97669,0.15758,0.14555,-0.00784,
7.07031,55.89439,-8.88811,-16.65749,-0.02429,0.95704,0.69456,,,0.97616,0.16113,0.14510,-0.00960,
7.07813,52.38781,-5.51148,-16.30695,-0.04225,0.95850,0.70134,,,0.97562,0.16445,0.14488,-0.01126,
7.08594,44.10265,-1.42399,-14.79965,-0.10393,0.96338,0.69505,,,0.97513,0.16724,0.14491,-0.01270,
7.09375,36.36755,-2.20595,-11.53967,-0.16511,0.90288,0.64562,,,0.97472,0.16954,0.14487,-0.01385,
7.10156,33.85793,-4.48073,-8.94571,-0.16317,0.86970,0.60976,,,0.97436,0.17170,0.14464,-0.01483,
7.10938,31.69210,-8.17724,-3.58253,-0.12529,0.79260,0.54483,,,0.97406,0.17376,0.14411,-0.01548,
7.11719,33.41102,-7.60855,1.36001,-0.10878,0.75015,0.51528,,,0.97374,0.17599,0.14355,-0.01580,
7.12500,34.95804,-6.40007,3.46322,-0.11121,0.73210,0.50607,,,0.97339,0.17834,0.14304,-0.01599,
7.13281,39.22094,-4.48073,8.19545,-0.13792,0.71746,0.52061,,,0.97296,0.18102,0.14260,-0.01588,
7.14063,43.58698,-3.66323,12.89262,-0.15297,0.72624,0.53902,,,0.97246,0.18403,0.14215,-0.01550,
7.14844,45.51216,-3.34334,14.85561,-0.16657,0.74332,0.57342,,,0.97194,0.18719,0.14170,-0.01500,
7.15625,47.19670,-2.41921,17.69495,-0.18842,0.77016,0.62721,,,0.97137,0.19048,0.14126,-0.01431,
7.16406,47.02480,-1.56617,18.46612,-0.19085,0.78968,0.66113,,,0.97078,0.19378,0.14087,-0.01356,
7.17188,44.27454,0.31764,19.27235,-0.20979,0.78919,0.68002,,,0.97021,0.19689,0.14059,-0.01270,
7.17969,40.73358,2.20144,19.37751,-0.21367,0.77113,0.69020,,,0.96965,0.19977,0.14044,-0.01178,
7.18750,39.01467,3.55209,19.30741,-0.20785,0.76235,0.69553,,,0.96910,0.20254,0.14038,-0.01083,
7.19531,45.89032,-22.03917,24.35511,-0.90518,0.72088,0.60686,,,0.96869,0.20579,0.13856,-0.00997,
7.20313,79.85604,-113.95445,43.77475,-0.31468,0.63744,0.42127,,,0.96862,0.21139,0.13036,-0.00943,
7.21094,103.16450,-143.66875,53.16909,0.39722,0.37834,0.49929,,,0.96837,0.21857,0.12003,-0.00890,
7.21875,117.43147,-86.69265,46.12334,0.17433,0.59987,1.05991,,,0.96731,0.22663,0.11354,-0.00811,
7.22656,107.73681,-67.10823,31.08538,-0.07285,0.47203,1.44125,,,0.96614,0.23393,0.10857,-0.00793,
7.23438,104.16147,-68.10344,23.26845,0.16607,0.64183,1.56191,,,0.96496,0.24092,0.10365,-0.00825,
7.24219,81.95311,-38.56686,5.60149,0.37440,0.77162,1.41509,,,0.96387,0.24633,0.10097,-0.00910,
7.25000,70.60829,-15.74799,3.67355,0.44578,0.83554,1.04537,,,0.96278,0.25098,0.09983,-0.00961,
7.25781,73.83984,-11.87376,9.49243,0.46667,0.96973,1.13066,,,0.96160,0.25588,0.09883,-0.00969,
7.26563,66.07036,-0.49986,24.63554,0.22240,1.08488,1.37923,,,0.96045,0.26037,0.09832,-0.00853,
7.27344,43.75887,1.02850,36.76405,-0.14666,0.76674,1.19655,,,0.95968,0.26348,0.09771,-0.00639,
7.28125,35.74874,-0.78421,39.25285,-0.16997,0.56961,0.90098,,,0.95906,0.26608,0.09694,-0.00408,
7.28906,38.77402,2.77013,34.69589,-0.38898,0.24806,0.54483,,,0.95834,0.26885,0.09648,-0.00202,
7.29688,49.05312,0.77970,31.71635,-0.49339,0.45836,0.70425,,,0.95743,0.27226,0.09594,-0.00025,
7.30469,51.18457,-12.01593,31.33076,-0.72405,1.08244,1.17281,,,0.95655,0.27580,0.09458,0.00124,
7.31250,24.02575,-36.04328,31.43592,-0.41180,0.85847,0.96494,,,0.95632,0.27757,0.09164,0.00245,
7.32031,13.71227,-39.81088,29.54303,-0.16900,0.51789,0.62333,,,0.95630,0.27866,0.08848,0.00354,
7.32813,23.78510,-40.37958,31.19054,-0.02866,0.55498,0.93490,,,0.95608,0.28040,0.08526,0.00466,
7.33594,10.89326,-39.81088,32.24215,-0.09373,0.76577,1.14616,,,0.95608,0.28131,0.08205,0.00594,
7.34375,-1.34540,-36.46980,30.48947,-0.21319,0.66184,0.90873,,,0.95630,0.28141,0.07909,0.00724,
7.35156,-2.61740,-34.94143,24.95102,-0.35013,0.55058,0.92424,,,0.95652,0.28139,0.07633,0.00821,
7.35938,-9.80245,-34.97698,21.30546,-0.01117,0.57742,0.89953,,,0.95687,0.28088,0.07364,0.00898,
7.36719,-11.31510,-30.92503,22.56738,-0.04760,0.60767,0.92036,,,0.95723,0.28027,0.07118,0.00991,
7.37500,-12.75898,-24.27841,18.88676,-0.17143,0.53936,0.87481,,,0.95757,0.27955,0.06923,0.01074,
7.38281,-11.48699,-21.68374,13.38337,-0.05876,0.52424,0.86270,,,0.95788,0.27887,0.06755,0.01126,
7.39063,-11.31510,-17.34744,12.26165,-0.16268,0.49740,0.88790,,,0.95817,0.27820,0.06617,0.01178,
7.39844,-9.52743,-15.49918,9.84296,-0.07819,0.53107,0.84913,,,0.95841,0.27764,0.06496,0.01217,
7.40625,-6.70841,-10.91408,7.38922,-0.06653,0.52375,0.84865,,,0.95858,0.27724,0.06411,0.01248,
7.41406,-5.43641,-8.03507,6.23245,-0.09033,0.46520,0.86318,,,0.95871,0.27692,0.06346,0.01276,
7.42188,-2.30799,-5.29822,4.40967,-0.02720,0.46276,0.84235,,,0.95877,0.27679,0.06303,0.01296,
7.42969,-0.38281,-1.60171,3.56838,-0.10975,0.49447,0.85204,,,0.95878,0.27678,0.06285,0.01316,
7.43750,1.98929,-1.67280,1.32496,-0.03448,0.55156,0.77645,,,0.95875,0.27692,0.06272,0.01321,
7.44531,3.05501,0.88633,0.48368,-0.08644,0.53253,0.78178,,,0.95869,0.27712,0.06277,0.01324,
7.45313,4.18950,1.13513,0.16820,-0.12772,0.55400,0.83169,,,0.95861,0.27740,0.06285,0.01326,
7.46094,4.60204,0.17546,0.23830,-0.06362,0.51887,0.84089,,,0.95852,0.27770,0.06286,0.01326,
7.46875,5.04895,2.23698,0.51873,-0.17240,0.51155,0.88693,,,0.95841,0.27803,0.06300,0.01331,
7.47656,5.18647,-0.03780,0.58884,-0.10053,0.55254,0.82733,,,0.95831,0.27837,0.06299,0.01333,
7.48438,4.94582,2.09481,0.97443,-0.13646,0.51741,0.84380,,,0.95821,0.27869,0.06311,0.01341,
7.49219,4.94582,3.19665,0.97443,-0.18357,0.53741,0.86658,,,0.95810,0.27902,0.06331,0.01351,
7.50000,4.98020,1.06405,0.86927,-0.08742,0.52375,0.86076,,,0.95800,0.27935,0.06337,0.01357,
7.50781,4.91144,2.87676,0.41357,-0.15734,0.52472,0.87578,,,0.95789,0.27967,0.06355,0.01363,
7.51563,5.42711,2.34361,0.69400,-0.12481,0.58864,0.81473,,,0.95778,0.28002,0.06370,0.01369,
7.52344,5.15209,3.80089,0.13314,-0.15540,0.53497,0.82297,,,0.95767,0.28036,0.06395,0.01375,
7.53125,5.15209,4.51176,-0.25245,-0.16754,0.54180,0.82684,,,0.95755,0.28069,0.06425,0.01380,
7.53906,4.77393,2.87676,-1.12878,-0.08596,0.51887,0.80795,,,0.95744,0.28099,0.06446,0.01376,
7.54688,4.49890,5.50697,-1.02362,-0.20785,0.51594,0.84283,,,0.95733,0.28127,0.06485,0.01378,
7.55469,4.18950,3.94306,-0.56793,-0.11752,0.51838,0.79147,,,0.95724,0.28154,0.06512,0.01380,
7.56250,3.81134,3.05448,-0.32255,-0.05634,0.52424,0.79729,,,0.95715,0.28179,0.06533,0.01382,
7.57031,3.91447,3.19665,0.27336,-0.11898,0.51301,0.82587,,,0.95706,0.28204,0.06554,0.01388,
7.57813,3.46755,2.55687,-0.25245,-0.07965,0.49594,0.83363,,,0.95698,0.28226,0.06571,0.01390,
7.58594,3.50193,4.26296,0.27336,-0.17920,0.49984,0.83653,,,0.95690,0.28249,0.06599,0.01398,
7.59375,3.63945,2.52133,0.86927,-0.10733,0.55888,0.80698,,,0.95681,0.28273,0.06614,0.01407,
7.60156,4.08636,3.26774,0.55378,-0.07819,0.51497,0.83314,,,0.95672,0.28299,0.06634,0.01415,
7.60938,4.49890,2.48578,0.97443,-0.07090,0.55010,0.81570,,,0.95662,0.28329,0.06649,0.01424,
7.61719,3.94885,3.19665,0.69400,-0.08450,0.48276,0.82297,,,0.95653,0.28355,0.06669,0.01433,
7.62500,4.91144,4.65393,1.36001,-0.16900,0.48910,0.87578,,,0.95641,0.28387,0.06697,0.01449,
7.63281,4.70517,1.38394,1.88582,-0.05876,0.47739,0.84574,,,0.95631,0.28418,0.06703,0.01462,
7.64063,5.87403,3.23220,2.41162,-0.17677,0.55205,0.82781,,,0.95618,0.28457,0.06720,0.01481,
7.64844,6.32095,4.22741,2.86731,-0.19668,0.53351,0.83411,,,0.95604,0.28499,0.06743,0.01505,
7.65625,5.80528,4.19187,2.06108,-0.15734,0.46568,0.84816,,,0.95590,0.28538,0.06767,0.01524,
7.66406,5.83965,5.29371,2.76215,-0.23650,0.50033,0.83702,,,0.95576,0.28576,0.06797,0.01550,
7.67188,6.01154,1.95263,3.84881,-0.13452,0.57693,0.77160,,,0.95563,0.28617,0.06802,0.01576,
7.67969,6.28657,3.01894,3.95397,-0.16657,0.58620,0.80746,,,0.95549,0.28660,0.06815,0.01604,
7.68750,5.77090,2.94785,3.42817,-0.13501,0.54766,0.81231,,,0.95536,0.28698,0.06828,0.01630,
7.69531,4.87706,1.70383,2.72710,-0.06508,0.53009,0.81570,,,0.95525,0.28731,0.06834,0.01649,
7.70313,5.18647,4.15633,3.21785,-0.23261,0.54961,0.83750,,,0.95513,0.28766,0.06856,0.01675,
7.71094,4.84268,1.98818,3.07764,-0.12335,0.52277,0.82636,,,0.95502,0.28799,0.06863,0.01697,
7.71875,5.59901,3.72980,3.32301,-0.18648,0.55449,0.82006,,,0.95489,0.28836,0.06882,0.01723,
7.72656,6.49284,3.05448,3.60344,-0.12529,0.52912,0.82103,,,0.95474,0.28880,0.06895,0.01750,
7.73438,7.11165,3.83643,2.23635,-0.09567,0.49935,0.83169,,,0.95458,0.28927,0.06917,0.01768,
7.74219,7.69608,4.90274,2.27141,-0.17385,0.51301,0.83896,,,0.95440,0.28977,0.06945,0.01789,
7.75000,8.55554,3.51654,2.51678,-0.11072,0.54912,0.80165,,,0.95422,0.29034,0.06964,0.01809,
7.75781,9.86191,5.29371,2.20130,-0.14472,0.52082,0.81570,,,0.95399,0.29098,0.06995,0.01829,
7.76563,10.20569,4.36959,1.99098,-0.09421,0.53790,0.79244,,,0.95377,0.29165,0.07021,0.01845,
7.77344,10.89326,6.14676,1.78066,-0.13695,0.46520,0.85252,,,0.95352,0.29236,0.07059,0.01864,
7.78125,12.37152,6.96426,2.48173,-0.22096,0.54131,0.84186,,,0.95323,0.29317,0.07101,0.01888,
7.78906,12.40590,4.47622,2.51678,-0.07965,0.49886,0.83411,,,0.95296,0.29398,0.07126,0.01907,
7.79688,13.64352,6.18230,3.18280,-0.18939,0.58230,0.81909,,,0.95265,0.29487,0.07162,0.01934,
7.80469,14.12481,4.40513,3.39312,-0.14083,0.55839,0.82151,,,0.95234,0.29580,0.07186,0.01958,
7.81250,14.02168,5.57806,3.21785,-0.17143,0.52619,0.84138,,,0.95203,0.29672,0.07217,0.01983,
7.82031,14.84676,5.04491,2.79721,-0.16463,0.51643,0.84865,,,0.95170,0.29769,0.07246,0.02004,
7.82813,15.29367,4.33404,2.30646,-0.12918,0.54473,0.81957,,,0.95136,0.29869,0.07272,0.02020,
7.83594,15.91248,5.64915,2.20130,-0.18697,0.55498,0.79244,,,0.95101,0.29972,0.07306,0.02038,
7.84375,17.52826,5.18708,1.92087,-0.14375,0.60523,0.77887,,,0.95062,0.30086,0.07338,0.02052,
7.85156,18.21583,5.72024,0.69400,-0.11947,0.47495,0.85495,,,0.95022,0.30204,0.07377,0.02060,
7.85938,20.31290,3.58763,1.14969,-0.10587,0.56034,0.78178,,,0.94978,0.30335,0.07400,0.02064,
7.86719,21.20673,4.54730,0.48368,-0.10684,0.60328,0.75804,,,0.94931,0.30472,0.07432,0.02066,
7.87500,21.85992,5.75578,-0.07718,-0.15443,0.54473,0.73672,,,0.94883,0.30613,0.07472,0.02066,
7.88281,26.01969,1.38394,0.93937,-0.07673,0.53643,0.79874,,,0.94828,0.30781,0.07483,0.02062,
7.89063,27.53233,3.83643,1.14969,-0.18648,0.52033,0.81667,,,0.94768,0.30959,0.07509,0.02064,
7.89844,28.83871,2.30807,0.83421,-0.13598,0.55498,0.79292,,,0.94705,0.31146,0.07526,0.02059,
7.90625,31.10767,2.05926,0.55378,-0.13743,0.53009,0.87384,,,0.94638,0.31346,0.07543,0.02051,
7.91406,36.09252,2.09481,1.28991,-0.18745,0.61060,0.80795,,,0.94559,0.31579,0.07559,0.02045,
7.92188,37.08949,-2.20595,1.28991,-0.05051,0.56083,0.79922,,,0.94480,0.31819,0.07547,0.02030,
7.92969,41.90244,1.63274,1.50023,-0.20299,0.51984,0.85543,,,0.94388,0.32090,0.07560,0.02021,
7.93750,47.23107,0.42427,1.67550,-0.20056,0.55546,0.81521,,,0.94283,0.32394,0.07565,0.02009,
7.94531,50.05009,0.42427,1.28991,-0.16948,0.52424,0.83605,,,0.94172,0.32716,0.07572,0.01992,
7.95313,56.85699,0.77970,2.20130,-0.19134,0.60328,0.82006,,,0.94044,0.33082,0.07580,0.01979,
7.96094,64.31707,0.85079,3.63849,-0.21513,0.54424,0.83944,,,0.93897,0.33496,0.07586,0.01971,
7.96875,68.75186,-1.88606,3.81376,-0.09956,0.52863,0.78420,,,0.93739,0.33938,0.07574,0.01955,
7.97656,76.59011,0.77970,3.91892,-0.13112,0.55400,0.77936,,,0.93560,0.34429,0.07580,0.01942,
7.98438,85.08153,1.81046,2.90237,-0.14860,0.54034,0.75271,,,0.93357,0.34972,0.07596,0.01921,
7.99219,91.06335,1.88155,2.09614,-0.13112,0.64720,0.75610,,,0.93137,0.35552,0.07615,0.01892,
8.00000,101.92688,-0.96193,1.43012,-0.04128,0.61158,0.77984,,,0.92888,0.36199,0.07618,0.01846,
8.00781,107.04924,-0.07334,1.00948,-0.15006,0.58376,0.78226,1023.132,25.8,0.92621,0.36876,0.07628,0.01796,
8.01563,117.43147,-1.21073,-0.67309,-0.12966,0.56132,0.82006,,,0.92324,0.37616,0.07637,0.01728,
8.02344,128.36376,-2.73910,1.99098,-0.14277,0.56230,0.86948,,,0.91992,0.38424,0.07629,0.01666,
8.03125,132.45477,-2.38366,3.67355,-0.19474,0.53692,0.79486,,,0.91643,0.39255,0.07619,0.01614,
8.03906,145.55289,-4.33855,6.79331,-0.12772,0.63061,0.76870,,,0.91250,0.40167,0.07590,0.01569,
8.04688,157.86030,-0.64204,10.78941,-0.18114,0.56376,0.83508,,,0.90812,0.41152,0.07573,0.01553,
8.05469,165.28601,-1.74388,12.29671,-0.18454,0.57303,0.75416,,,0.90342,0.42179,0.07544,0.01539,
8.06250,184.91599,-4.87170,15.52163,-0.08304,0.70965,0.85931,,,0.89804,0.43323,0.07488,0.01525,
8.07031,204.54598,-1.81497,20.14869,-0.25932,0.75210,0.78759,,,0.89190,0.44581,0.07438,0.01538,
8.07813,217.33469,-3.94757,22.35706,-0.19862,0.73259,0.87772,,,0.88519,0.45909,0.07368,0.01552,
8.08594,240.71190,-1.74388,29.68324,-0.26369,0.72478,0.83314,,,0.87752,0.47370,0.07289,0.01604,
8.09375,266.77062,-1.63725,39.46317,-0.24621,0.79358,0.80455,,,0.86872,0.48978,0.07180,0.01702,
8.10156,280.86570,0.38872,44.72120,-0.30934,0.94435,0.91261,,,0.85913,0.50653,0.07065,0.01831,
8.10938,299.84250,1.66829,54.92176,-0.25349,1.02633,0.81328,,,0.84851,0.52425,0.06921,0.02013,
8.11719,318.54427,8.35045,61.54688,-0.22824,1.20296,1.04247,,,0.83680,0.54282,0.06791,0.02248,
8.12500,321.19140,8.95469,65.64814,-0.17871,1.18735,1.02018,,,0.82457,0.56129,0.06647,0.02506,
8.13281,324.14793,16.98750,69.22359,-0.16317,1.41033,1.05700,,,0.81176,0.57965,0.06531,0.02813,
8.14063,314.00634,28.96563,66.52447,-0.17385,1.45620,1.03375,,,0.79890,0.59712,0.06487,0.03155,
8.14844,308.47144,34.04834,65.01717,-0.21513,1.49816,1.02163,,,0.78587,0.61399,0.06473,0.03511,
8.15625,297.57354,36.10986,62.80880,-0.30303,1.40789,0.97657,,,0.77294,0.62998,0.06473,0.03866,
8.16406,292.86372,30.31628,64.98212,-0.34333,1.32299,1.00322,,,0.75990,0.64548,0.06430,0.04208,
8.17188,280.59068,16.59652,69.08338,-0.37538,1.19125,1.11030,,,0.74714,0.66014,0.06291,0.04515,
8.17969,265.01733,5.79132,73.46507,-0.22193,0.87067,0.92375,,,0.73483,0.67382,0.06071,0.04801,
8.18750,260.47940,4.93828,76.47967,-0.25738,0.89165,0.97608,,,0.72248,0.68705,0.05828,0.05098,
8.19531,242.39644,21.60814,70.27520,-0.19619,0.92386,1.13502,,,0.71069,0.69908,0.05689,0.05448,
8.20313,215.16886,40.30398,61.86236,-0.26903,0.91752,1.51781,,,0.69997,0.70951,0.05669,0.05856,
8.21094,192.34169,47.44821,61.79225,-0.27583,1.06048,1.68692,,,0.69017,0.71866,0.05673,0.06305,
8.21875,129.46386,65.04220,57.09508,-0.79883,2.38182,3.29950,,,0.68330,0.72465,0.05754,0.06842,
8.22656,-14.58103,30.24519,45.45732,-1.05718,1.20247,2.17680,,,0.68369,0.72399,0.05664,0.07208,
8.23438,-50.67820,13.50424,39.88381,-0.99065,0.87019,1.81969,,,0.68595,0.72170,0.05506,0.07480,
8.24219,-96.12625,-23.85189,32.48752,-0.59342,0.36029,1.25664,,,0.69059,0.71742,0.05185,0.07551,
8.25000,-116.99386,-28.75688,22.98802,-0.22144,0.06216,0.83411,,,0.69628,0.71211,0.04877,0.07559,
8.25781,-120.29417,-22.21689,17.87021,-0.13063,-0.04617,0.67905,,,0.70208,0.70654,0.04623,0.07576,
8.26563,-119.22844,-1.13964,8.47588,-0.07333,-0.13741,0.50219,,,0.70777,0.70084,0.04515,0.07648,
8.27344,-114.65613,21.75032,0.58884,-0.09227,-0.07983,0.48717,,,0.71315,0.69517,0.04557,0.07790,
8.28125,-113.76230,31.16932,-2.49587,-0.13112,-0.04568,0.50510,,,0.71844,0.68945,0.04660,0.07961,
8.28906,-114.69051,41.72572,-7.22809,-0.25398,0.02556,0.55695,,,0.72371,0.68355,0.04836,0.08158,
8.29688,-115.96251,42.64985,-8.73539,-0.30594,0.05777,0.59765,,,0.72900,0.67754,0.05022,0.08351,
8.30469,-121.25676,37.14062,-12.17064,-0.38364,0.13876,0.68875,,,0.73452,0.67123,0.05194,0.08503,
8.31250,-130.05759,26.79748,-17.21834,-0.38898,0.22757,0.80262,,,0.74045,0.66447,0.05332,0.08585,
8.32031,-135.93628,22.17684,-20.82885,-0.37053,0.29149,0.86609,,,0.74662,0.65737,0.05458,0.08630,
8.32813,-152.95351,16.77424,-29.94276,-0.30060,0.43006,0.97754,,,0.75355,0.64934,0.05588,0.08609,
8.33594,-175.40251,18.12489,-40.28355,-0.21610,0.53058,1.02551,,,0.76142,0.64001,0.05756,0.08548,
8.34375,-187.88182,20.64847,-45.12093,-0.17094,0.55742,1.01097,,,0.76974,0.62990,0.05950,0.08477,
8.35156,-210.70898,28.32585,-53.07807,-0.10344,0.55644,0.94362,,,0.77890,0.61839,0.06204,0.08404,
8.35938,-227.41682,36.03877,-57.28449,-0.06556,0.53448,0.86367,,,0.78856,0.60578,0.06506,0.08347,
8.36719,-233.12361,39.45094,-57.91546,-0.05731,0.52424,0.83072,,,0.79823,0.59269,0.06823,0.08301,
8.37500,-240.17115,44.03604,-56.68858,-0.04857,0.55058,0.79583,,,0.80794,0.57901,0.07155,0.08281,
8.38281,-244.22778,46.98614,-53.63893,-0.06605,0.59840,0.79922,,,0.81753,0.56495,0.07487,0.08289,
8.39063,-245.53416,47.51929,-51.88625,-0.07965,0.62524,0.81182,,,0.82692,0.55064,0.07811,0.08307,
8.39844,-246.59988,48.30125,-49.04692,-0.09227,0.69355,0.86028,,,0.83607,0.53612,0.08127,0.08342,
8.40625,-248.21566,49.90070,-48.17058,-0.10004,0.76625,0.92036,,,0.84501,0.52134,0.08445,0.08386,
8.41406,-249.00636,50.82483,-48.17058,-0.10538,0.81749,0.95234,,,0.85371,0.50635,0.08765,0.08431,
8.42188,-251.85976,53.06407,-48.31080,-0.12966,0.92093,0.99740,,,0.86223,0.49101,0.09095,0.08482,
8.42969,-254.43812,53.98820,-48.76649,-0.17968,0.97997,1.00758,,,0.87055,0.47536,0.09427,0.08533,
8.43750,-254.71315,53.73939,-49.15208,-0.18405,1.00632,1.03132,,,0.87861,0.45954,0.09755,0.08577,
8.44531,-254.81629,52.95744,-50.90476,-0.21707,1.05755,1.05361,,,0.88639,0.44355,0.10081,0.08606,
8.45313,-253.95683,52.45983,-52.34195,-0.24524,1.08683,1.07251,,,0.89387,0.42747,0.10406,0.08622,
8.46094,-250.48463,49.90070,-55.81225,-0.29574,1.18735,1.10401,,,0.90100,0.41145,0.10724,0.08603,
8.46875,-247.25307,44.92462,-61.10532,-0.34916,1.29518,1.12290,,,0.90783,0.39549,0.11024,0.08534,
8.47656,-245.63729,41.51246,-64.54057,-0.37635,1.35276,1.11563,,,0.91437,0.37950,0.11311,0.08429,
8.48438,-241.06498,32.48443,-73.33900,-0.41860,1.47767,1.08317,,,0.92064,0.36367,0.11563,0.08241,
8.49219,-236.28641,20.75510,-84.45096,-0.45696,1.59282,1.02066,,,0.92668,0.34801,0.11768,0.07947,
8.50000,-233.60490,13.71750,-90.72553,-0.46231,1.63186,0.97851,,,0.93246,0.33240,0.11942,0.07593,
8.50781,-225.52601,-0.42878,-103.80049,-0.41472,1.70895,0.89856,,,0.93798,0.31718,0.12056,0.07115,
8.51563,-217.00020,-11.44724,-114.84234,-0.33216,1.77434,0.80116,,,0.94319,0.30237,0.12124,0.06533,
8.52344,-212.56541,-15.17929,-119.11887,-0.28020,1.78995,0.75561,,,0.94809,0.28775,0.12176,0.05911,
8.53125,-202.76761,-19.16016,-124.37689,-0.20639,1.81093,0.66500,,,0.95260,0.27366,0.12213,0.05237,
8.53906,-192.35099,-21.25722,-125.07796,-0.12724,1.84411,0.58214,,,0.95670,0.26018,0.12238,0.04544,
8.54688,-187.50366,-21.36385,-123.92120,-0.09664,1.84411,0.54047,,,0.96047,0.24696,0.12259,0.03854,
8.55469,-177.70586,-19.94211,-118.48791,-0.03885,1.81045,0.43630,,,0.96383,0.23437,0.12279,0.03193,
8.56250,-166.77357,-16.56549,-110.11012,0.03593,1.77092,0.34132,,,0.96678,0.22251,0.12309,0.02583,
8.57031,-160.86051,-14.11299,-105.37790,0.06749,1.76263,0.29141,,,0.96944,0.21104,0.12346,0.02002,
8.57813,-148.75936,-8.28387,-94.82679,0.11411,1.71871,0.19790,,,0.97171,0.20041,0.12406,0.01488,
8.58594,-141.84934,-5.72474,-88.76254,0.13888,1.69627,0.14605,,,0.97372,0.19027,0.12474,0.01012,
8.59375,-126.92917,-0.96193,-76.91445,0.19230,1.63820,0.04817,,,0.97538,0.18119,0.12558,0.00609,
8.60156,-110.15258,2.41470,-65.45196,0.21998,1.55086,-0.04292,,,0.97671,0.17330,0.12650,0.00271,
8.60938,-100.90483,2.91231,-59.77329,0.21900,1.50987,-0.08557,,,0.97785,0.16607,0.12737,-0.00037,
8.61719,-80.55290,0.81524,-48.45101,0.19424,1.46889,-0.10349,,,0.97873,0.16029,0.12798,-0.00289,
8.62500,-61.78238,-5.72474,-38.74119,0.16996,1.43864,-0.14904,,,0.97944,0.15583,0.12803,-0.00499,
8.63281,-52.56900,-9.17246,-34.78015,0.13742,1.43717,-0.15292,,,0.98006,0.15202,0.12780,-0.00695,
8.64063,-35.00171,-18.80472,-27.10343,0.09275,1.38984,-0.19168,,,0.98056,0.14945,0.12684,-0.00865,
8.64844,-16.98751,-28.86351,-19.63703,0.05778,1.36788,-0.20137,,,0.98097,0.14813,0.12512,-0.01011,
8.65625,-8.49608,-32.98655,-16.37706,0.05244,1.36105,-0.20573,,,0.98132,0.14741,0.12308,-0.01147,
8.66406,7.93673,-38.88675,-11.25925,0.01845,1.34007,-0.17036,,,0.98155,0.14782,0.12059,-0.01267,
8.67188,22.30684,-42.37001,-7.36831,-0.01700,1.31763,-0.12142,,,0.98166,0.14923,0.11781,-0.01378,
8.67969,28.94184,-43.79174,-6.07133,-0.03983,1.27957,-0.09816,,,0.98171,0.15108,0.11491,-0.01486,
8.68750,41.38677,-45.67555,-3.96812,-0.06751,1.26834,-0.00707,,,0.98163,0.15378,0.11185,-0.01592,
8.69531,50.70328,-45.53337,-3.44232,-0.12578,1.23126,0.07288,,,0.98142,0.15710,0.10878,-0.01701,
8.70313,54.51926,-44.64479,-3.93306,-0.15734,1.22687,0.12618,,,0.98116,0.16068,0.10577,-0.01816,
8.71094,58.43839,-40.94827,-5.96617,-0.21756,1.22492,0.24781,,,0.98079,0.16450,0.10303,-0.01943,
8.71875,58.02585,-38.81567,-7.29820,0.35449,0.94777,0.42467,,,0.98039,0.16828,0.10043,-0.02076,
8.72656,70.84894,2.87676,-5.30015,-0.29331,0.12217,0.31516,,,0.97954,0.17299,0.10059,-0.02156,
8.73438,109.97139,-30.32079,10.15844,-0.72454,-0.36137,0.29771,,,0.97843,0.18035,0.09828,-0.02199,
8.74219,107.15237,-52.46434,20.46417,-0.50601,-1.32847,0.05108,,,0.97746,0.18755,0.09437,-0.02199,
8.75000,160.23240,-38.42469,26.66864,-0.71871,0.01580,2.77183,,,0.97564,0.19832,0.09123,-0.02174,
8.75781,96.39198,-37.89154,17.51968,-0.24767,0.00312,1.36227,,,0.97457,0.20478,0.08832,-0.02168,
8.76563,90.20389,-27.69058,10.68425,-0.02429,0.03044,0.48427,,,0.97348,0.21078,0.08620,-0.02190,
8.77344,139.15853,-22.14580,1.99098,0.26174,0.62280,0.05495,,,0.97157,0.21998,0.08448,-0.02291,
8.78125,172.16166,0.56644,-11.92526,0.46278,1.72896,1.50473,,,0.96890,0.23130,0.08442,-0.02468,
8.78906,152.73794,15.38804,-14.41406,0.32875,1.89339,2.00866,,,0.96632,0.24133,0.08540,-0.02626,
8.79688,96.32322,12.54457,5.00558,0.40791,1.54696,1.68401,,,0.96465,0.24773,0.08597,-0.02628,
8.80469,76.04005,11.62044,39.81371,0.21026,0.91312,1.22563,,,0.96335,0.25298,0.08592,-0.02391,
8.81250,76.52135,16.27663,45.59753,-0.06653,0.85262,1.20188,,,0.96199,0.25830,0.08607,-0.02109,
8.82031,72.12093,18.76467,35.32686,-0.75853,1.00047,1.16021,,,0.96065,0.26326,0.08658,-0.01886,
8.82813,63.07945,-5.83138,18.74655,-0.67160,0.94240,0.95525,,,0.95956,0.26749,0.08578,-0.01811,
8.83594,58.43839,-12.44245,12.26165,-0.56574,0.87506,0.97221,,,0.95858,0.27137,0.08467,-0.01788,
8.84375,49.77507,-23.49645,10.71930,-0.14180,0.71356,0.99207,,,0.95780,0.27466,0.08288,-0.01790,
8.85156,38.70527,-25.23808,16.85366,-0.12869,0.63305,0.86512,,,0.95723,0.27725,0.08086,-0.01749,
8.85938,35.85187,-23.35428,18.50118,-0.37732,0.73454,0.94701,,,0.95670,0.27966,0.07895,-0.01692,
8.86719,22.54749,-29.68101,13.13799,-0.37538,0.67647,0.88693,,,0.95644,0.28117,0.07674,-0.01675,
8.87500,18.21583,-31.77807,10.29866,-0.16317,0.59450,0.90631,,,0.95626,0.28237,0.07445,-0.01678,
8.88281,11.16828,-26.33993,10.50898,-0.02963,0.56913,1.03229,,,0.95619,0.28312,0.07251,-0.01666,
8.89063,4.63641,-19.37342,10.68425,-0.08839,0.54522,0.89323,,,0.95621,0.28345,0.07104,-0.01636,
8.89844,4.56766,-15.92571,9.24705,-0.16706,0.53839,0.90437,,,0.95621,0.28378,0.06982,-0.01609,
8.90625,6.18344,-11.80267,4.61999,-0.08596,0.48618,0.89274,,,0.95615,0.28419,0.06895,-0.01605,
8.91406,3.29566,-7.39529,2.79721,-0.07090,0.50325,0.85204,,,0.95612,0.28441,0.06841,-0.01602,
8.92188,3.33004,-3.94757,2.41162,-0.18551,0.53204,0.88450,,,0.95608,0.28463,0.06810,-0.01596,
8.92969,3.22691,-4.80062,-0.11223,-0.10150,0.57157,0.80019,,,0.95604,0.28484,0.06779,-0.01607,
8.93750,3.36442,-3.34334,-2.04018,-0.04905,0.55302,0.79147,,,0.95599,0.28504,0.06760,-0.01629,
8.94531,3.74258,-0.32215,-2.39071,-0.15152,0.54180,0.83896,,,0.95591,0.28528,0.06763,-0.01647,
8.95313,4.01761,-0.57095,-3.47737,-0.11218,0.50716,0.78905,,,0.95584,0.28552,0.06765,-0.01672,
8.96094,5.32398,-0.03780,-3.09178,-0.14860,0.53351,0.87287,,,0.95573,0.28585,0.06770,-0.01695,
8.96875,4.39577,-1.17519,-3.54748,-0.09179,0.52472,0.76918,,,0.95564,0.28612,0.06769,-0.01722,
8.97656,4.98020,-1.49508,-2.81135,-0.12821,0.54961,0.79971,,,0.95555,0.28643,0.06764,-0.01746,
8.98438,5.83965,-0.67758,-2.81135,-0.16997,0.53253,0.86173,,,0.95544,0.28680,0.06765,-0.01768,
8.99219,5.59901,-2.81018,-2.39071,-0.10733,0.52424,0.81279,,,0.95534,0.28715,0.06750,-0.01792,
9.00000,6.01154,-2.13486,-1.09373,-0.18794,0.51545,0.85252,,,0.95523,0.28753,0.06738,-0.01806,
9.00781,5.94279,-4.48073,-0.56793,-0.10198,0.56961,0.75610,1023.069,25.9,0.95513,0.28791,0.06709,-0.01821,
9.01563,5.70214,-2.88127,0.41357,-0.16754,0.54229,0.81328,,,0.95503,0.28828,0.06689,-0.01827,
9.02344,6.32095,-1.42399,0.37852,-0.22193,0.56278,0.88596,,,0.95491,0.28869,0.06678,-0.01830,
9.03125,4.70517,-3.48551,0.51873,-0.08839,0.49545,0.79825,,,0.95484,0.28900,0.06654,-0.01836,
9.03906,4.67079,-0.57095,0.51873,-0.19085,0.52716,0.86561,,,0.95475,0.28930,0.06648,-0.01835,
9.04688,4.22388,-0.14443,0.30841,-0.16026,0.56620,0.79196,,,0.95467,0.28958,0.06646,-0.01836,
9.05469,4.63641,0.95742,0.02798,-0.18794,0.57254,0.83653,,,0.95457,0.28988,0.06652,-0.01836,
9.06250,4.98020,2.23698,-0.63804,-0.15443,0.53302,0.86803,,,0.95446,0.29021,0.06667,-0.01838,
9.07031,5.01458,2.45024,-1.51437,-0.14229,0.53448,0.82394,,,0.95435,0.29053,0.06685,-0.01845,
9.07813,4.80831,4.65393,-1.72469,-0.19911,0.50862,0.83750,,,0.95423,0.29084,0.06719,-0.01849,
9.08594,4.80831,3.87198,-1.16384,-0.15103,0.58913,0.75464,,,0.95412,0.29115,0.06745,-0.01851,
9.09375,3.88009,2.73459,-1.51437,-0.09567,0.54278,0.76870,,,0.95402,0.29140,0.06766,-0.01857,
9.10156,4.18950,3.69426,-1.33911,-0.16220,0.54912,0.81715,,,0.95392,0.29167,0.06792,-0.01861,
9.10938,3.12377,2.05926,-0.91846,-0.10150,0.50374,0.80310,,,0.95385,0.29187,0.06807,-0.01864,
9.11719,2.74561,2.62796,-0.56793,-0.15297,0.50374,0.81376,,,0.95378,0.29205,0.06825,-0.01864,
9.12500,2.74561,2.13035,-0.04213,-0.15880,0.56181,0.80068,,,0.95372,0.29223,0.06838,-0.01861,
9.13281,1.81740,1.09959,0.62389,-0.09616,0.55302,0.80068,,,0.95368,0.29236,0.06844,-0.01856,
9.14063,1.37048,4.01415,0.27336,-0.19619,0.51594,0.85059,,,0.95363,0.29245,0.06869,-0.01847,
9.14844,0.78605,2.59241,0.09809,-0.13695,0.49789,0.80746,,,0.95360,0.29251,0.06886,-0.01841,
9.15625,1.09545,2.73459,0.97443,-0.15540,0.50374,0.83411,,,0.95357,0.29258,0.06901,-0.01830,
9.16406,1.57675,1.02850,1.25485,-0.10781,0.59304,0.74883,,,0.95354,0.29269,0.06905,-0.01820,
9.17188,1.78302,2.45024,0.23830,-0.11412,0.54229,0.81473,,,0.95349,0.29281,0.06921,-0.01815,
9.17969,2.50496,5.08045,0.06303,-0.20882,0.51301,0.87045,,,0.95341,0.29298,0.06953,-0.01805,
9.18750,1.43924,3.40991,-0.35761,-0.09567,0.46422,0.81473,,,0.95337,0.29308,0.06976,-0.01802,
9.19531,2.98626,5.61361,-0.18234,-0.22679,0.51301,0.86803,,,0.95328,0.29328,0.07013,-0.01793,
9.20313,3.39880,4.83165,0.13314,-0.18939,0.56278,0.80940,,,0.95319,0.29351,0.07043,-0.01784,
9.21094,3.88009,4.76056,-0.18234,-0.15006,0.55254,0.83072,,,0.95309,0.29376,0.07074,-0.01778,
9.21875,3.57069,6.78654,-1.02362,-0.20153,0.52668,0.82539,,,0.95299,0.29400,0.07120,-0.01773,
9.22656,3.88009,4.61839,-1.30405,-0.11412,0.51448,0.82200,,,0.95288,0.29425,0.07152,-0.01774,
9.23438,4.43015,6.75099,-1.02362,-0.19036,0.52960,0.85543,,,0.95276,0.29454,0.07197,-0.01769,
9.24219,5.32398,6.71545,-0.63804,-0.17143,0.60377,0.78759,,,0.95262,0.29489,0.07242,-0.01762,
9.25000,5.35836,5.93350,-1.30405,-0.06119,0.57645,0.80504,,,0.95248,0.29524,0.07282,-0.01761,
9.25781,5.73652,8.99023,-1.47932,-0.14035,0.55937,0.80019,,,0.95232,0.29562,0.07343,-0.01756,
9.26563,5.56463,8.45708,-2.21544,-0.08742,0.53790,0.77257,,,0.95216,0.29598,0.07401,-0.01756,
9.27344,5.73652,9.48784,-2.07523,-0.13840,0.52570,0.81231,,,0.95200,0.29635,0.07467,-0.01753,
9.28125,5.01458,8.70588,-1.65459,-0.14035,0.54863,0.76676,,,0.95185,0.29668,0.07526,-0.01749,
9.28906,4.15512,7.74621,-1.30405,-0.16123,0.52668,0.77839,,,0.95172,0.29695,0.07578,-0.01744,
9.29688,3.39880,7.81730,-0.88341,-0.19376,0.53741,0.78275,,,0.95161,0.29717,0.07630,-0.01735,
9.30469,1.88615,6.14676,-0.63804,-0.19716,0.48959,0.78372,,,0.95154,0.29730,0.07671,-0.01728,
9.31250,1.43924,4.68948,-0.07718,-0.23407,0.48666,0.82636,,,0.95149,0.29740,0.07702,-0.01720,
9.32031,1.16421,2.30807,0.76410,-0.18502,0.52765,0.76918,,,0.95145,0.29748,0.07715,-0.01711,
9.32813,1.71426,0.35318,1.74560,-0.19231,0.53448,0.80843,,,0.95142,0.29760,0.07714,-0.01700,
9.33594,1.81740,0.92187,1.78066,-0.23164,0.49203,0.83023,,,0.95138,0.29773,0.07716,-0.01687,
9.34375,2.53934,-0.74867,1.78066,-0.20736,0.48520,0.84526,,,0.95133,0.29790,0.07707,-0.01678,
9.35156,4.05198,-0.53541,3.21785,-0.25009,0.52326,0.85107,,,0.95126,0.29818,0.07697,-0.01661,
9.35938,5.73652,-2.34812,4.02408,-0.20785,0.54863,0.79680,,,0.95116,0.29857,0.07673,-0.01643,
9.36719,6.69911,-0.92638,3.63849,-0.19182,0.54034,0.79971,,,0.95103,0.29902,0.07659,-0.01624,
9.37500,8.86494,-0.03780,3.67355,-0.19231,0.51155,0.83314,,,0.95085,0.29962,0.07650,-0.01605,
9.38281,11.58082,-0.42878,2.83226,-0.18211,0.52472,0.82878,,,0.95062,0.30038,0.07640,-0.01594,
9.39063,12.92157,-0.00225,3.18280,-0.16851,0.50960,0.84526,,,0.95036,0.30123,0.07632,-0.01580,
9.39844,16.11875,0.85079,4.02408,-0.20785,0.59401,0.78759,,,0.95003,0.30230,0.07628,-0.01561,
9.40625,19.86598,0.77970,3.18280,-0.12384,0.51399,0.84089,,,0.94962,0.30360,0.07624,-0.01549,
9.41406,21.92868,1.95263,3.49828,-0.16511,0.53887,0.79292,,,0.94916,0.30504,0.07627,-0.01533,
9.42188,26.60412,1.84600,3.42817,-0.13743,0.47935,0.84526,,,0.94859,0.30678,0.07629,-0.01521,
9.42969,32.03588,4.61839,4.23440,-0.22436,0.47788,0.83266,,,0.94790,0.30888,0.07647,-0.01501,
9.43750,34.75177,2.55687,5.11074,-0.11364,0.50130,0.83460,,,0.94716,0.31115,0.07649,-0.01480,
9.44531,43.10568,4.83165,7.80986,-0.16900,0.54180,0.83896,,,0.94622,0.31398,0.07659,-0.01442,
9.45313,46.92167,3.69426,10.40382,-0.14715,0.46861,0.81279,,,0.94521,0.31706,0.07656,-0.01392,
9.46094,59.12595,1.34840,14.61024,-0.07819,0.50813,0.86512,,,0.94393,0.32095,0.07628,-0.01326,
9.46875,69.71445,5.68469,16.18765,-0.16268,0.53985,0.87675,,,0.94238,0.32552,0.07622,-0.01245,
9.47656,77.00264,2.98339,16.78355,-0.17531,0.56425,0.75997,,,0.94065,0.33055,0.07598,-0.01171,
9.48438,91.54465,6.04013,15.94227,-0.18259,0.47349,0.89516,,,0.93855,0.33650,0.07593,-0.01102,
9.49219,106.87735,5.93350,16.22270,-0.14666,0.38810,0.87869,,,0.93606,0.34342,0.07585,-0.01040,
9.50000,116.19386,9.06132,14.78551,-0.09130,0.41738,0.85010,,,0.93327,0.35090,0.07600,-0.00985,
9.50781,135.13628,10.02099,15.48658,-0.14229,0.47691,0.86318,,,0.92996,0.35957,0.07617,-0.00932,
9.51563,152.87546,13.53979,16.71345,-0.20445,0.47983,0.82297,,,0.92610,0.36934,0.07652,-0.00872,
9.52344,162.19196,12.15359,16.36291,-0.15929,0.47983,0.78711,,,0.92190,0.37964,0.07678,-0.00823,
9.53125,179.62174,12.15359,16.64334,-0.17191,0.59255,0.86125,,,0.91713,0.39100,0.07700,-0.00781,
9.53906,196.36395,11.58490,14.82056,-0.15492,0.55595,0.80988,,,0.91176,0.40332,0.07722,-0.00760,
9.54688,206.78056,13.36207,13.55863,-0.19134,0.53595,0.85301,,,0.90592,0.41621,0.07756,-0.00748,
9.55469,230.36405,13.75305,14.50508,-0.13063,0.59840,0.72315,,,0.89921,0.43046,0.07787,-0.00741,
9.56250,262.19831,17.62728,14.89067,-0.05294,0.70721,0.77645,,,0.89129,0.44655,0.07837,-0.00737,
9.57031,277.59977,22.28347,15.10099,-0.07479,0.69941,0.71394,,,0.88257,0.46343,0.07911,-0.00726,
9.57813,310.67165,32.23562,16.57323,-0.23504,0.83847,0.87481,,,0.87239,0.48212,0.08036,-0.00692,
9.58594,322.32588,33.90617,20.04353,-0.41375,0.77601,0.74156,,,0.86141,0.50129,0.08154,-0.00638,
9.59375,350.68794,30.10302,29.64819,-0.26563,1.00144,0.73672,,,0.84902,0.52191,0.08212,-0.00556,
9.60156,370.42106,44.64028,38.16619,-0.26758,1.37667,1.08559,,,0.83533,0.54340,0.08318,-0.00383,
9.60938,368.80528,51.50016,42.09218,-0.24087,1.38350,1.04295,,,0.82112,0.56447,0.08443,-0.00162,
9.61719,364.16422,61.70112,51.66179,-0.38607,1.43180,1.11563,,,0.80650,0.58497,0.08583,0.00155,
9.62500,352.68188,58.71547,59.54883,-0.32342,1.44742,1.16797,,,0.79185,0.60451,0.08669,0.00510,
9.63281,343.67478,62.55416,60.46022,-0.30448,1.40302,1.07009,,,0.77707,0.62322,0.08767,0.00891,
9.64063,334.73643,65.04220,65.26255,-0.36470,1.48694,1.01436,,,0.76221,0.64111,0.08853,0.01313,
9.64844,321.56956,54.80569,72.69389,-0.38267,1.48743,1.04489,,,0.74757,0.65804,0.08846,0.01735,
9.65625,312.69997,50.61157,74.72699,-0.40161,1.44351,1.04053,,,0.73297,0.67420,0.08804,0.02154,
9.66406,295.99214,35.15018,79.03857,-0.30691,1.21662,0.91309,,,0.71889,0.68925,0.08658,0.02532,
9.67188,282.30959,30.49400,84.29660,-0.31857,1.25712,1.11079,,,0.70516,0.70338,0.08458,0.02921,
9.67969,263.74533,34.43932,82.29855,-0.28749,1.08585,1.18783,,,0.69203,0.71633,0.08280,0.03329,
9.68750,227.68254,46.16864,80.40566,-0.37830,0.99607,1.29589,,,0.68038,0.72732,0.08156,0.03805,
9.69531,182.99081,47.55484,79.00352,-0.37878,0.86043,1.67626,,,0.67077,0.73604,0.08031,0.04305,
9.70313,160.98872,42.96974,86.57508,-0.45259,1.82216,1.88752,,,0.66216,0.74368,0.07840,0.04828,
9.71094,47.26545,45.88430,73.11453,-0.70948,1.83435,2.92155,,,0.65927,0.74603,0.07692,0.05365,
9.71875,-67.72981,31.77356,59.72409,-0.74008,0.90971,2.14966,,,0.66233,0.74316,0.07507,0.05830,
9.72656,-93.99480,21.46597,56.56928,-0.71677,0.63012,1.56820,,,0.66676,0.73908,0.07280,0.06242,
9.73438,-129.19814,2.73459,52.50307,-0.36907,0.23684,1.04441,,,0.67302,0.73341,0.06972,0.06558,
9.74219,-137.89584,3.87198,49.27815,-0.25107,0.12998,0.87239,,,0.67965,0.72725,0.06682,0.06868,
9.75000,-144.90900,14.78381,42.26745,-0.21222,-0.03933,0.60976,,,0.68654,0.72062,0.06473,0.07203,
9.75781,-143.22447,28.07704,34.66084,-0.23553,-0.12180,0.46004,,,0.69325,0.71389,0.06363,0.07566,
9.76563,-139.92415,34.15497,30.69979,-0.25738,-0.11545,0.43678,,,0.69972,0.70719,0.06303,0.07938,
9.77344,-133.80482,41.93898,22.77770,-0.36421,-0.06324,0.47070,,,0.70584,0.70064,0.06320,0.08305,
9.78125,-130.36700,42.89865,13.31326,-0.46813,0.03874,0.57294,,,0.71178,0.69415,0.06389,0.08630,
9.78906,-130.74516,41.08594,7.52943,-0.51961,0.11876,0.64998,,,0.71771,0.68756,0.06476,0.08917,
9.79688,-138.65216,33.47964,-6.52702,-0.61042,0.28807,0.81376,,,0.72407,0.68051,0.06586,0.09103,
9.80469,-155.11934,21.43043,-23.38776,-0.65801,0.40859,0.93441,,,0.73128,0.67257,0.06704,0.09156,
9.81250,-165.26093,14.96152,-32.88726,-0.63761,0.46715,0.96736,,,0.73895,0.66404,0.06827,0.09135,
9.82031,-187.64117,4.29850,-52.23679,-0.56234,0.49642,0.98093,,,0.74769,0.65425,0.06968,0.08977,
9.82813,-208.68067,-1.70834,-71.02547,-0.47396,0.51497,0.95283,,,0.75736,0.64321,0.07147,0.08706,
9.83594,-218.47847,-2.73910,-79.89400,-0.42540,0.50472,0.92618,,,0.76734,0.63147,0.07353,0.08386,
9.84375,-233.98306,-3.09453,-96.05367,-0.34285,0.48618,0.87481,,,0.77786,0.61867,0.07616,0.07986,
9.85156,-244.46843,-2.56138,-108.60282,-0.29477,0.47495,0.83605,,,0.78865,0.60505,0.07926,0.07525,
9.85938,-247.63123,-3.13008,-113.22988,-0.26563,0.48569,0.83556,,,0.79933,0.59103,0.08248,0.07036,
9.86719,-252.92548,-5.58257,-118.87349,-0.24038,0.52765,0.85640,,,0.80998,0.57650,0.08574,0.06507,
9.87500,-255.19445,-7.57300,-120.03026,-0.21416,0.57108,0.87821,,,0.82044,0.56163,0.08889,0.05962,
9.88281,-260.14492,-10.62974,-119.53951,-0.16074,0.66232,0.94507,,,0.83079,0.54629,0.09179,0.05409,
9.89063,-266.26425,-11.26952,-116.45480,-0.11024,0.75259,1.01582,,,0.84105,0.53041,0.09449,0.04874,
9.89844,-269.18640,-9.77669,-114.14127,-0.07673,0.81114,1.07251,,,0.85106,0.51417,0.09715,0.04356,
9.90625,-277.36842,-3.76986,-108.25228,-0.02769,0.94874,1.16990,,,0.86095,0.49726,0.09988,0.03898,
9.91406,-287.33812,4.15633,-100.43535,-0.01700,1.04926,1.22175,,,0.87074,0.47960,0.10274,0.03517,
9.92188,-291.63540,7.81730,-95.38765,-0.03060,1.10830,1.23968,,,0.88026,0.46149,0.10560,0.03180,
9.92969,-298.57981,13.64642,-83.89010,-0.08790,1.18539,1.25809,,,0.88954,0.44284,0.10838,0.02934,
9.93750,-301.70823,16.13446,-71.83170,-0.17483,1.27615,1.26052,,,0.89848,0.42388,0.11090,0.02770,
