Gait Up - Physilog data export
Created on: YYYY-MM-DD hh:mm:ss
Total data points: 19655

Time [128 hz],Gyro [128 hz],,,Accel [128 hz],,,Baro [1 hz],,Event [128 hz],Quaternion [128 hz],,,,
Time,Gyro X,Gyro Y,Gyro Z,Accel X,Accel Y,Accel Z,Pressure,Temperature,Quat W,Quat X,Quat Y,Quat Z,
[s],[deg/s],[deg/s],[deg/s],[g],[g],[g],[mBar],[degree C],[],[],[],[],
0.00781,0.31010,0.14379,-0.51060,-0.13190,0.93425,0.33253,1021.712,24.6,0.00000,0.00000,0.00000,0.00000,
0.01563,0.27576,0.14379,-0.61528,-0.13190,0.93231,0.33059,,,0.00000,0.00000,0.00000,0.00000,
0.02344,0.27576,0.10799,-0.68507,-0.13238,0.93133,0.32670,,,0.00000,0.00000,0.00000,0.00000,
0.03125,0.20709,-0.10679,-0.68507,-0.13480,0.92406,0.31600,,,0.00000,0.00000,0.00000,0.00000,
0.03906,0.34443,0.00060,-0.61528,-0.13577,0.93182,0.31454,,,0.00000,0.00000,0.00000,0.00000,
0.04688,0.13842,-0.10679,-0.61528,-0.13383,0.93764,0.32378,,,0.81521,0.57327,0.08237,0.00000,
0.05469,0.13842,0.03640,-0.51060,-0.13528,0.93813,0.32621,,,0.81521,0.57328,0.08239,-0.00003,
0.06250,0.17275,0.10799,-0.54549,-0.13287,0.94298,0.33253,,,0.81520,0.57328,0.08242,-0.00005,
0.07031,0.20709,-0.03520,-0.47571,-0.13867,0.94152,0.33059,,,0.81519,0.57329,0.08244,-0.00008,
0.07813,0.06975,0.03640,-0.40592,-0.12851,0.93619,0.33399,,,0.81519,0.57329,0.08246,-0.00011,
0.08594,0.20709,0.03640,-0.44082,-0.13141,0.92697,0.32572,,,0.81518,0.57330,0.08247,-0.00013,
0.09375,0.27576,-0.07100,-0.37103,-0.13432,0.92697,0.31843,,,0.81517,0.57332,0.08249,-0.00015,
0.10156,0.31010,-0.03520,-0.37103,-0.13093,0.93036,0.31941,,,0.81516,0.57333,0.08250,-0.00018,
0.10938,0.17275,0.14379,-0.51060,-0.13915,0.93036,0.32572,,,0.81515,0.57334,0.08253,-0.00020,
0.11719,0.17275,0.21539,-0.47571,-0.13867,0.92988,0.32816,,,0.81514,0.57334,0.08256,-0.00022,
0.12500,0.20709,0.03640,-0.58039,-0.13528,0.93570,0.32475,,,0.81514,0.57335,0.08258,-0.00025,
0.13281,0.20709,0.07220,-0.51060,-0.13093,0.93570,0.33253,,,0.81513,0.57336,0.08260,-0.00028,
0.14063,0.17275,0.00060,-0.54549,-0.12658,0.93473,0.32621,,,0.81512,0.57337,0.08263,-0.00031,
0.14844,0.06975,0.07220,-0.40592,-0.13480,0.93085,0.33253,,,0.81512,0.57337,0.08265,-0.00033,
0.15625,0.10408,0.00060,-0.33614,-0.13335,0.93231,0.32670,,,0.81511,0.57337,0.08266,-0.00035,
0.16406,0.13842,0.25118,-0.37103,-0.12996,0.93425,0.32232,,,0.81511,0.57338,0.08269,-0.00036,
0.17188,0.20709,0.25118,-0.33614,-0.13238,0.93425,0.32913,,,0.81510,0.57339,0.08271,-0.00037,
0.17969,0.17275,-0.03520,-0.58039,-0.13238,0.93716,0.32621,,,0.81509,0.57339,0.08274,-0.00041,
0.18750,0.17275,0.07220,-0.54549,-0.12996,0.93570,0.33350,,,0.81508,0.57340,0.08276,-0.00043,
0.19531,0.13842,0.21539,-0.47571,-0.13335,0.94249,0.33302,,,0.81508,0.57341,0.08279,-0.00045,
0.20313,0.24142,0.03640,-0.51060,-0.13528,0.94249,0.32524,,,0.81507,0.57342,0.08281,-0.00048,
0.21094,0.27576,0.03640,-0.51060,-0.13819,0.93861,0.32913,,,0.81506,0.57343,0.08284,-0.00051,
0.21875,0.31010,0.14379,-0.61528,-0.12996,0.93376,0.33545,,,0.81504,0.57344,0.08287,-0.00054,
0.22656,0.34443,0.10799,-0.58039,-0.12851,0.92891,0.32281,,,0.81503,0.57346,0.08290,-0.00057,
0.23438,0.37877,0.03640,-0.82464,-0.13770,0.92454,0.32038,,,0.81501,0.57348,0.08293,-0.00062,
0.24219,0.37877,0.10799,-0.89443,-0.14060,0.92939,0.32086,,,0.81500,0.57349,0.08297,-0.00067,
0.25000,0.27576,-0.03520,-0.82464,-0.13577,0.91872,0.32038,,,0.81499,0.57350,0.08300,-0.00071,
0.25781,0.24142,0.03640,-0.92932,-0.14254,0.92939,0.32378,,,0.81498,0.57351,0.08304,-0.00077,
0.26563,0.13842,0.17959,-0.92932,-0.12658,0.94346,0.33691,,,0.81497,0.57351,0.08309,-0.00081,
0.27344,0.10408,0.14379,-0.78975,-0.13867,0.93473,0.33788,,,0.81497,0.57351,0.08312,-0.00085,
0.28125,0.13842,0.10799,-0.65017,-0.13045,0.93667,0.33691,,,0.81496,0.57352,0.08316,-0.00088,
0.28906,0.24142,-0.03520,-0.65017,-0.12996,0.93328,0.33204,,,0.81495,0.57353,0.08318,-0.00092,
0.29688,0.17275,-0.10679,-0.71996,-0.13045,0.93133,0.32572,,,0.81495,0.57353,0.08320,-0.00097,
0.30469,0.06975,0.14379,-0.61528,-0.13141,0.92891,0.32135,,,0.81494,0.57353,0.08323,-0.00100,
0.31250,0.24142,0.03640,-0.58039,-0.13190,0.93036,0.32427,,,0.81493,0.57354,0.08326,-0.00103,
0.32031,0.27576,0.10799,-0.65017,-0.13287,0.92503,0.32086,,,0.81492,0.57356,0.08329,-0.00106,
0.32813,0.24142,0.14379,-0.44082,-0.13432,0.94007,0.32864,,,0.81491,0.57357,0.08332,-0.00108,
0.33594,0.10408,0.07220,-0.54549,-0.13190,0.93619,0.33107,,,0.81491,0.57357,0.08334,-0.00111,
0.34375,0.17275,0.17959,-0.47571,-0.13770,0.94249,0.33204,,,0.81490,0.57358,0.08337,-0.00113,
0.35156,0.17275,0.00060,-0.47571,-0.12609,0.93231,0.32816,,,0.81489,0.57358,0.08339,-0.00116,
0.35938,0.34443,0.14379,-0.58039,-0.13335,0.93425,0.33447,,,0.81488,0.57360,0.08342,-0.00119,
0.36719,0.27576,0.07220,-0.68507,-0.12900,0.92745,0.32184,,,0.81487,0.57361,0.08345,-0.00122,
0.37500,0.13842,0.00060,-0.65017,-0.13625,0.93085,0.31552,,,0.81486,0.57361,0.08347,-0.00126,
0.38281,0.06975,0.00060,-0.58039,-0.13045,0.92454,0.32135,,,0.81486,0.57361,0.08350,-0.00129,
0.39063,0.24142,0.00060,-0.61528,-0.14109,0.92745,0.33204,,,0.81485,0.57362,0.08352,-0.00133,
0.39844,0.24142,0.03640,-0.65017,-0.13335,0.94104,0.32961,,,0.81484,0.57363,0.08355,-0.00136,
0.40625,0.10408,0.10799,-0.68507,-0.13383,0.94540,0.33156,,,0.81483,0.57364,0.08358,-0.00140,
0.41406,0.17275,0.17959,-0.40592,-0.13335,0.93910,0.33788,,,0.81483,0.57364,0.08361,-0.00141,
0.42188,0.17275,0.17959,-0.51060,-0.13335,0.93231,0.32864,,,0.81482,0.57365,0.08364,-0.00144,
0.42969,0.13842,0.03640,-0.54549,-0.13480,0.92648,0.32329,,,0.81481,0.57365,0.08366,-0.00147,
0.43750,0.27576,0.10799,-0.37103,-0.13722,0.93861,0.32232,,,0.81480,0.57367,0.08368,-0.00148,
0.44531,0.31010,0.03640,-0.47571,-0.12900,0.93133,0.32086,,,0.81479,0.57368,0.08370,-0.00151,
0.45313,0.27576,0.10799,-0.40592,-0.13819,0.93328,0.32816,,,0.81478,0.57370,0.08372,-0.00153,
0.46094,0.27576,0.03640,-0.37103,-0.13287,0.92939,0.32475,,,0.81477,0.57371,0.08374,-0.00155,
0.46875,0.37877,-0.07100,-0.37103,-0.12513,0.94395,0.33593,,,0.81475,0.57373,0.08375,-0.00158,
0.47656,0.27576,0.00060,-0.58039,-0.12319,0.94104,0.33642,,,0.81474,0.57374,0.08377,-0.00161,
0.48438,0.37877,0.03640,-0.65017,-0.12803,0.93764,0.33496,,,0.81473,0.57376,0.08380,-0.00165,
0.49219,0.44744,0.10799,-0.54549,-0.13335,0.93910,0.33788,,,0.81471,0.57378,0.08383,-0.00168,
0.50000,0.24142,0.14379,-0.61528,-0.13238,0.93231,0.32621,,,0.81470,0.57379,0.08386,-0.00171,
0.50781,0.34443,-0.07100,-0.75485,-0.13287,0.92600,0.32086,,,0.81468,0.57380,0.08389,-0.00175,
0.51563,0.34443,-0.10679,-0.65017,-0.13190,0.92600,0.31746,,,0.81467,0.57382,0.08391,-0.00180,
0.52344,0.31010,0.10799,-0.47571,-0.13141,0.93085,0.31989,,,0.81466,0.57383,0.08393,-0.00182,
0.53125,0.31010,-0.07100,-0.58039,-0.13770,0.94589,0.32767,,,0.81465,0.57385,0.08395,-0.00186,
0.53906,0.27576,0.00060,-0.58039,-0.12803,0.93764,0.33593,,,0.81464,0.57386,0.08397,-0.00189,
0.54688,0.24142,0.07220,-0.40592,-0.13674,0.94443,0.33934,,,0.81463,0.57387,0.08399,-0.00191,
0.55469,0.20709,0.03640,-0.44082,-0.13528,0.93861,0.33593,,,0.81462,0.57388,0.08401,-0.00194,
0.56250,0.13842,0.10799,-0.51060,-0.14109,0.92988,0.33059,,,0.81461,0.57388,0.08404,-0.00196,
0.57031,0.24142,0.00060,-0.47571,-0.13238,0.93036,0.32038,,,0.81460,0.57389,0.08405,-0.00199,
0.57813,0.24142,0.07220,-0.51060,-0.13383,0.93182,0.31941,,,0.81459,0.57391,0.08408,-0.00202,
0.58594,0.06975,0.14379,-0.40592,-0.12803,0.92939,0.31989,,,0.81459,0.57391,0.08410,-0.00203,
0.59375,0.13842,0.28698,-0.40592,-0.12706,0.92842,0.32038,,,0.81458,0.57391,0.08413,-0.00204,
0.60156,0.17275,0.10799,-0.54549,-0.13625,0.93376,0.32621,,,0.81457,0.57392,0.08416,-0.00207,
0.60938,0.03541,0.10799,-0.58039,-0.13141,0.94249,0.32572,,,0.81457,0.57392,0.08419,-0.00210,
0.61719,-0.06760,0.07220,-0.65017,-0.12851,0.93716,0.33788,,,0.81457,0.57391,0.08422,-0.00213,
0.62500,0.03541,0.03640,-0.68507,-0.12996,0.93764,0.33302,,,0.81457,0.57391,0.08425,-0.00217,
0.63281,0.00107,0.14379,-0.68507,-0.12755,0.92745,0.32329,,,0.81457,0.57390,0.08428,-0.00220,
0.64063,0.13842,0.17959,-0.78975,-0.13577,0.94249,0.32767,,,0.81456,0.57391,0.08432,-0.00224,
0.64844,-0.03326,0.14379,-0.85953,-0.12948,0.93425,0.32427,,,0.81456,0.57390,0.08437,-0.00228,
0.65625,0.13842,0.10799,-0.75485,-0.12609,0.93328,0.32524,,,0.81456,0.57390,0.08440,-0.00232,
0.66406,0.13842,0.03640,-0.71996,-0.12948,0.92648,0.31989,,,0.81455,0.57391,0.08443,-0.00236,
0.67188,0.10408,-0.07100,-0.85953,-0.13287,0.93473,0.33253,,,0.81455,0.57391,0.08446,-0.00241,
0.67969,0.06975,0.03640,-0.85953,-0.13045,0.93958,0.34079,,,0.81455,0.57391,0.08450,-0.00246,
0.68750,0.10408,-0.03520,-0.71996,-0.12948,0.93910,0.33788,,,0.81454,0.57391,0.08452,-0.00250,
0.69531,0.27576,-0.03520,-0.68507,-0.13964,0.92891,0.33302,,,0.81453,0.57392,0.08455,-0.00254,
0.70313,0.17275,-0.07100,-0.82464,-0.13625,0.93328,0.32135,,,0.81452,0.57392,0.08458,-0.00259,
0.71094,0.06975,0.03640,-0.82464,-0.13045,0.92794,0.32135,,,0.81452,0.57392,0.08461,-0.00263,
0.71875,0.13842,-0.07100,-0.78975,-0.13480,0.93570,0.32135,,,0.81452,0.57393,0.08464,-0.00268,
0.72656,0.20709,0.07220,-0.75485,-0.13674,0.92697,0.32281,,,0.81451,0.57393,0.08467,-0.00272,
0.73438,0.10408,0.00060,-0.82464,-0.13480,0.93279,0.32524,,,0.81450,0.57394,0.08470,-0.00277,
0.74219,0.20709,-0.07100,-0.85953,-0.13722,0.94201,0.33204,,,0.81450,0.57394,0.08473,-0.00282,
0.75000,0.24142,-0.07100,-0.71996,-0.12900,0.94152,0.33350,,,0.81449,0.57395,0.08476,-0.00286,
0.75781,0.17275,-0.07100,-0.65017,-0.13432,0.93231,0.33350,,,0.81448,0.57396,0.08478,-0.00290,
0.76563,0.24142,-0.10679,-0.71996,-0.13141,0.93231,0.33253,,,0.81447,0.57397,0.08480,-0.00295,
0.77344,0.27576,0.03640,-0.75485,-0.12609,0.93910,0.32913,,,0.81446,0.57398,0.08483,-0.00299,
0.78125,0.31010,0.07220,-0.68507,-0.13770,0.92697,0.32038,,,0.81445,0.57399,0.08486,-0.00303,
0.78906,0.24142,-0.17839,-0.75485,-0.13432,0.92600,0.31698,,,0.81444,0.57400,0.08488,-0.00308,
0.79688,0.20709,-0.03520,-0.68507,-0.13770,0.92551,0.32086,,,0.81443,0.57401,0.08491,-0.00312,
0.80469,0.37877,-0.07100,-0.78975,-0.13819,0.94104,0.32864,,,0.81442,0.57402,0.08493,-0.00317,
0.81250,0.20709,-0.07100,-0.71996,-0.13093,0.93861,0.33447,,,0.81441,0.57403,0.08496,-0.00321,
0.82031,0.34443,-0.10679,-0.58039,-0.13141,0.93910,0.33447,,,0.81440,0.57405,0.08498,-0.00325,
0.82813,0.31010,-0.03520,-0.54549,-0.13045,0.93619,0.33836,,,0.81438,0.57406,0.08499,-0.00328,
0.83594,0.27576,0.00060,-0.58039,-0.13238,0.93619,0.33350,,,0.81437,0.57407,0.08502,-0.00332,
0.84375,0.27576,-0.10679,-0.58039,-0.13722,0.92939,0.32670,,,0.81436,0.57408,0.08503,-0.00336,
0.85156,0.17275,0.03640,-0.54549,-0.13480,0.93570,0.33253,,,0.81435,0.57409,0.08506,-0.00339,
0.85938,0.13842,-0.03520,-0.51060,-0.12948,0.93036,0.32427,,,0.81435,0.57410,0.08508,-0.00342,
0.86719,0.31010,0.00060,-0.47571,-0.13674,0.93522,0.33010,,,0.81434,0.57411,0.08509,-0.00344,
0.87500,0.27576,0.00060,-0.40592,-0.12706,0.93619,0.33691,,,0.81433,0.57412,0.08511,-0.00347,
0.88281,0.31010,0.00060,-0.40592,-0.12948,0.93473,0.33350,,,0.81431,0.57414,0.08513,-0.00349,
0.89063,0.31010,0.07220,-0.23146,-0.12996,0.93910,0.33447,,,0.81430,0.57415,0.08514,-0.00351,
0.89844,0.41310,-0.03520,-0.40592,-0.12755,0.94007,0.33496,,,0.81429,0.57417,0.08515,-0.00353,
0.90625,0.41310,0.07220,-0.37103,-0.12900,0.93328,0.33107,,,0.81427,0.57420,0.08517,-0.00355,
0.91406,0.34443,-0.03520,-0.65017,-0.13045,0.93328,0.32767,,,0.81426,0.57421,0.08519,-0.00359,
0.92188,0.31010,0.03640,-0.44082,-0.12609,0.93133,0.32572,,,0.81424,0.57423,0.08521,-0.00362,
0.92969,0.41310,0.03640,-0.44082,-0.13432,0.93085,0.32329,,,0.81423,0.57425,0.08523,-0.00364,
0.93750,0.24142,-0.03520,-0.54549,-0.12706,0.93813,0.33350,,,0.81422,0.57426,0.08525,-0.00367,
0.94531,0.20709,0.00060,-0.51060,-0.12900,0.93813,0.33302,,,0.81421,0.57426,0.08527,-0.00370,
0.95313,0.20709,0.00060,-0.47571,-0.12851,0.93958,0.33253,,,0.81420,0.57427,0.08529,-0.00373,
0.96094,0.24142,-0.07100,-0.58039,-0.13335,0.93473,0.33302,,,0.81419,0.57428,0.08531,-0.00377,
0.96875,0.10408,0.03640,-0.58039,-0.13093,0.93667,0.33010,,,0.81419,0.57429,0.08533,-0.00380,
0.97656,0.24142,0.03640,-0.54549,-0.13383,0.93473,0.32670,,,0.81418,0.57430,0.08536,-0.00383,
0.98438,0.24142,-0.03520,-0.71996,-0.12803,0.92503,0.32718,,,0.81417,0.57431,0.08538,-0.00387,
0.99219,0.27576,0.07220,-0.71996,-0.12706,0.92939,0.32378,,,0.81416,0.57432,0.08542,-0.00391,
1.00000,0.17275,0.03640,-1.06889,-0.13577,0.93667,0.32864,,,0.81415,0.57432,0.08546,-0.00397,
1.00781,0.24142,0.10799,-1.10379,-0.13238,0.93522,0.33204,1021.710,24.6,0.81414,0.57433,0.08551,-0.00403,
1.01563,0.06975,0.07220,-1.03400,-0.12609,0.94832,0.33691,,,0.81413,0.57432,0.08555,-0.00408,
1.02344,0.10408,-0.03520,-0.99911,-0.13287,0.94152,0.33545,,,0.81413,0.57432,0.08559,-0.00414,
1.03125,-0.03326,0.00060,-1.20847,-0.13045,0.92939,0.32864,,,0.81413,0.57432,0.08564,-0.00421,
1.03906,0.00107,0.07220,-1.24336,-0.13093,0.92988,0.32670,,,0.81413,0.57431,0.08569,-0.00427,
1.04688,0.17275,-0.10679,-1.24336,-0.13528,0.93376,0.32718,,,0.81412,0.57431,0.08573,-0.00435,
1.05469,0.20709,-0.14259,-1.20847,-0.12996,0.92794,0.32621,,,0.81412,0.57432,0.08577,-0.00442,
1.06250,0.06975,-0.17839,-1.34804,-0.13964,0.92163,0.32086,,,0.81411,0.57431,0.08582,-0.00450,
1.07031,0.13842,-0.17839,-1.38293,-0.14544,0.92794,0.32864,,,0.81411,0.57431,0.08586,-0.00459,
1.07813,0.24142,-0.07100,-1.24336,-0.15657,0.93716,0.34517,,,0.81410,0.57432,0.08590,-0.00466,
1.08594,0.20709,-0.28578,-0.61528,-0.08401,0.93133,0.33399,,,0.81409,0.57432,0.08591,-0.00471,
1.09375,0.34443,-0.17839,-1.06889,-0.13819,0.93328,0.33302,,,0.81408,0.57434,0.08594,-0.00478,
1.10156,0.31010,-0.24998,-1.03400,-0.12561,0.94638,0.33204,,,0.81407,0.57435,0.08597,-0.00485,
1.10938,-0.03326,-0.10679,-1.20847,-0.14206,0.93085,0.32864,,,0.81407,0.57434,0.08601,-0.00492,
1.11719,0.13842,-0.14259,-1.03400,-0.13819,0.92842,0.33204,,,0.81407,0.57434,0.08604,-0.00498,
1.12500,0.27576,-0.10679,-0.85953,-0.13045,0.92891,0.32329,,,0.81406,0.57435,0.08607,-0.00503,
1.13281,0.06975,-0.07100,-0.82464,-0.13577,0.94298,0.32816,,,0.81405,0.57435,0.08610,-0.00508,
1.14063,0.10408,-0.07100,-0.78975,-0.13577,0.94298,0.33107,,,0.81405,0.57435,0.08613,-0.00513,
1.14844,0.17275,0.00060,-0.54549,-0.13190,0.93522,0.33934,,,0.81404,0.57436,0.08615,-0.00516,
1.15625,0.13842,-0.07100,-0.61528,-0.13528,0.93667,0.33642,,,0.81404,0.57436,0.08617,-0.00520,
1.16406,0.13842,0.03640,-0.54549,-0.13480,0.94249,0.33691,,,0.81403,0.57437,0.08619,-0.00523,
1.17188,0.13842,-0.10679,-0.54549,-0.13528,0.93861,0.33545,,,0.81403,0.57437,0.08621,-0.00526,
1.17969,0.34443,-0.03520,-0.44082,-0.13432,0.93861,0.32572,,,0.81401,0.57439,0.08622,-0.00529,
1.18750,0.06975,-0.10679,-0.58039,-0.13577,0.92551,0.32378,,,0.81401,0.57439,0.08624,-0.00533,
1.19531,0.17275,0.14379,-0.65017,-0.13432,0.93036,0.32184,,,0.81400,0.57439,0.08627,-0.00536,
1.20313,0.27576,0.03640,-0.44082,-0.14060,0.93376,0.33399,,,0.81399,0.57441,0.08629,-0.00538,
1.21094,0.27576,-0.07100,-0.44082,-0.13625,0.93473,0.32767,,,0.81398,0.57442,0.08631,-0.00541,
1.21875,0.20709,-0.07100,-0.44082,-0.12706,0.94055,0.33691,,,0.81397,0.57443,0.08632,-0.00544,
1.22656,0.27576,-0.07100,-0.40592,-0.12561,0.93861,0.33642,,,0.81396,0.57444,0.08633,-0.00547,
1.23438,0.34443,-0.10679,-0.26635,-0.13432,0.92939,0.33350,,,0.81395,0.57446,0.08633,-0.00549,
1.24219,0.31010,-0.07100,-0.09188,-0.13141,0.93279,0.32816,,,0.81394,0.57447,0.08633,-0.00550,
1.25000,0.27576,0.00060,-0.12678,-0.13238,0.93522,0.33059,,,0.81393,0.57449,0.08634,-0.00551,
1.25781,0.31010,0.00060,-0.30124,-0.13528,0.92212,0.32281,,,0.81391,0.57450,0.08635,-0.00553,
1.26563,0.37877,0.07220,-0.40592,-0.13528,0.93182,0.31503,,,0.81390,0.57452,0.08637,-0.00555,
1.27344,0.34443,-0.03520,-0.47571,-0.13722,0.94152,0.32572,,,0.81389,0.57454,0.08639,-0.00558,
1.28125,0.20709,-0.03520,-0.40592,-0.13190,0.93619,0.33059,,,0.81388,0.57455,0.08640,-0.00560,
1.28906,0.37877,0.00060,-0.47571,-0.13287,0.93910,0.33739,,,0.81386,0.57457,0.08642,-0.00563,
1.29688,0.37877,0.03640,-0.33614,-0.13674,0.94104,0.33593,,,0.81385,0.57459,0.08643,-0.00565,
1.30469,0.41310,0.00060,-0.23146,-0.13190,0.93716,0.33447,,,0.81383,0.57461,0.08644,-0.00567,
1.31250,0.31010,0.10799,-0.40592,-0.13577,0.94104,0.32718,,,0.81382,0.57462,0.08647,-0.00569,
1.32031,0.34443,0.00060,-0.40592,-0.13238,0.93279,0.33302,,,0.81380,0.57464,0.08648,-0.00571,
1.32813,0.24142,0.10799,-0.33614,-0.12948,0.92454,0.33253,,,0.81379,0.57465,0.08650,-0.00573,
1.33594,0.24142,0.21539,-0.30124,-0.13480,0.92600,0.32427,,,0.81378,0.57466,0.08652,-0.00574,
1.34375,0.27576,0.07220,-0.47571,-0.13867,0.93473,0.32816,,,0.81377,0.57468,0.08655,-0.00576,
1.35156,0.20709,0.03640,-0.47571,-0.13819,0.93667,0.32961,,,0.81376,0.57468,0.08657,-0.00579,
1.35938,0.31010,0.17959,-0.44082,-0.12658,0.94201,0.33156,,,0.81375,0.57470,0.08659,-0.00581,
1.36719,0.24142,0.00060,-0.58039,-0.13141,0.94395,0.32816,,,0.81374,0.57471,0.08662,-0.00584,
1.37500,0.27576,0.14379,-0.61528,-0.13674,0.94298,0.33350,,,0.81373,0.57472,0.08665,-0.00587,
1.38281,0.17275,0.00060,-0.71996,-0.13383,0.93182,0.33253,,,0.81372,0.57473,0.08668,-0.00591,
1.39063,0.31010,0.00060,-0.71996,-0.13674,0.93619,0.32670,,,0.81371,0.57474,0.08671,-0.00595,
1.39844,0.24142,-0.03520,-0.58039,-0.13528,0.93231,0.32232,,,0.81370,0.57475,0.08673,-0.00599,
1.40625,0.27576,0.03640,-0.61528,-0.13915,0.93133,0.33059,,,0.81369,0.57476,0.08675,-0.00602,
1.41406,0.17275,0.21539,-0.61528,-0.13432,0.93861,0.33447,,,0.81368,0.57477,0.08679,-0.00605,
1.42188,0.24142,-0.07100,-0.68507,-0.13045,0.93619,0.33885,,,0.81367,0.57478,0.08681,-0.00609,
1.42969,0.06975,0.17959,-0.68507,-0.13528,0.94298,0.33059,,,0.81367,0.57478,0.08685,-0.00612,
1.43750,0.13842,0.00060,-0.65017,-0.13335,0.93958,0.33496,,,0.81366,0.57478,0.08687,-0.00616,
1.44531,0.10408,0.10799,-0.65017,-0.13964,0.93182,0.33447,,,0.81366,0.57478,0.08690,-0.00619,
1.45313,0.13842,0.10799,-0.51060,-0.13141,0.93231,0.32767,,,0.81365,0.57479,0.08693,-0.00622,
1.46094,0.06975,0.14379,-0.54549,-0.12900,0.92891,0.32232,,,0.81365,0.57479,0.08696,-0.00624,
1.46875,0.13842,0.17959,-0.40592,-0.13915,0.92309,0.32184,,,0.81364,0.57479,0.08699,-0.00626,
1.47656,0.20709,0.10799,-0.54549,-0.13528,0.92988,0.32427,,,0.81363,0.57480,0.08701,-0.00629,
1.48438,0.10408,0.17959,-0.54549,-0.13770,0.93716,0.32767,,,0.81362,0.57480,0.08704,-0.00631,
1.49219,0.00107,0.10799,-0.54549,-0.13867,0.93764,0.33059,,,0.81362,0.57480,0.08707,-0.00634,
1.50000,0.00107,0.25118,-0.44082,-0.12948,0.93861,0.33302,,,0.81362,0.57480,0.08710,-0.00635,
1.50781,-0.10193,0.17959,-0.51060,-0.12996,0.93813,0.33253,,,0.81362,0.57479,0.08713,-0.00637,
1.51563,0.00107,0.03640,-0.44082,-0.12996,0.93425,0.33496,,,0.81362,0.57479,0.08715,-0.00639,
1.52344,0.00107,0.17959,-0.51060,-0.13480,0.94007,0.33010,,,0.81362,0.57478,0.08718,-0.00642,
1.53125,0.00107,0.17959,-0.40592,-0.12755,0.93570,0.33253,,,0.81362,0.57478,0.08721,-0.00643,
1.53906,0.00107,0.28698,-0.40592,-0.13141,0.92212,0.32329,,,0.81362,0.57478,0.08724,-0.00644,
1.54688,0.17275,0.03640,-0.51060,-0.13238,0.92454,0.32767,,,0.81361,0.57479,0.08726,-0.00647,
1.55469,0.17275,-0.10679,-0.54549,-0.12996,0.93133,0.32086,,,0.81361,0.57479,0.08728,-0.00651,
1.56250,0.27576,0.25118,-0.54549,-0.13141,0.93328,0.33059,,,0.81359,0.57480,0.08731,-0.00653,
1.57031,0.17275,0.10799,-0.44082,-0.13625,0.93764,0.33836,,,0.81359,0.57481,0.08734,-0.00655,
1.57813,0.24142,-0.14259,-0.44082,-0.14012,0.93716,0.34371,,,0.81358,0.57482,0.08734,-0.00658,
1.58594,0.37877,0.03640,-0.47571,-0.13432,0.93133,0.34274,,,0.81356,0.57484,0.08736,-0.00661,
1.59375,0.44744,0.03640,-0.51060,-0.13528,0.93473,0.32621,,,0.81354,0.57486,0.08739,-0.00664,
1.60156,0.20709,0.07220,-0.47571,-0.13190,0.93036,0.32184,,,0.81353,0.57487,0.08741,-0.00666,
1.60938,0.44744,-0.03520,-0.37103,-0.13141,0.92503,0.32281,,,0.81352,0.57489,0.08742,-0.00669,
1.61719,0.37877,-0.07100,-0.40592,-0.13190,0.93231,0.33156,,,0.81350,0.57491,0.08743,-0.00671,
1.62500,0.24142,0.07220,-0.47571,-0.13480,0.93764,0.32913,,,0.81349,0.57492,0.08746,-0.00674,
1.63281,0.17275,-0.03520,-0.47571,-0.12561,0.93813,0.33642,,,0.81349,0.57493,0.08747,-0.00677,
1.64063,0.24142,0.03640,-0.30124,-0.13432,0.93182,0.34128,,,0.81348,0.57494,0.08749,-0.00679,
1.64844,0.17275,0.03640,-0.37103,-0.13625,0.93861,0.33739,,,0.81347,0.57495,0.08750,-0.00681,
1.65625,0.34443,-0.03520,-0.37103,-0.13770,0.94104,0.33156,,,0.81346,0.57497,0.08752,-0.00683,
1.66406,0.34443,-0.03520,-0.30124,-0.13674,0.93522,0.32670,,,0.81344,0.57498,0.08752,-0.00685,
1.67188,0.31010,-0.07100,-0.37103,-0.13238,0.93667,0.32475,,,0.81343,0.57500,0.08754,-0.00687,
1.67969,0.31010,0.03640,-0.30124,-0.13383,0.94201,0.32378,,,0.81342,0.57501,0.08755,-0.00689,
1.68750,0.37877,-0.03520,-0.40592,-0.13045,0.92891,0.32767,,,0.81340,0.57503,0.08756,-0.00692,
1.69531,0.44744,-0.17839,-0.44082,-0.12851,0.93279,0.33447,,,0.81339,0.57505,0.08757,-0.00695,
1.70313,0.31010,0.00060,-0.33614,-0.12851,0.94201,0.33399,,,0.81337,0.57507,0.08758,-0.00697,
1.71094,0.27576,0.07220,-0.33614,-0.12803,0.93667,0.33934,,,0.81336,0.57508,0.08760,-0.00699,
1.71875,0.31010,0.00060,-0.40592,-0.13190,0.93376,0.33156,,,0.81335,0.57510,0.08762,-0.00701,
1.72656,0.31010,0.10799,-0.40592,-0.12900,0.93231,0.32670,,,0.81334,0.57511,0.08764,-0.00703,
1.73438,0.13842,0.25118,-0.44082,-0.12755,0.93328,0.32475,,,0.81333,0.57512,0.08767,-0.00705,
1.74219,0.06975,0.07220,-0.58039,-0.13238,0.93231,0.32184,,,0.81333,0.57512,0.08770,-0.00708,
1.75000,0.13842,0.21539,-0.47571,-0.13915,0.93328,0.32378,,,0.81332,0.57512,0.08773,-0.00710,
1.75781,0.10408,0.00060,-0.33614,-0.11981,0.93522,0.33302,,,0.81332,0.57513,0.08774,-0.00712,
1.76563,0.17275,0.03640,-0.54549,-0.12416,0.94007,0.33593,,,0.81331,0.57513,0.08776,-0.00715,
1.77344,0.17275,0.03640,-0.33614,-0.12900,0.94249,0.33934,,,0.81330,0.57514,0.08778,-0.00717,
1.78125,0.20709,-0.03520,-0.47571,-0.12658,0.94007,0.33204,,,0.81329,0.57515,0.08779,-0.00719,
1.78906,0.24142,0.03640,-0.16167,-0.13480,0.94880,0.34322,,,0.81328,0.57516,0.08780,-0.00720,
1.79688,0.17275,0.07220,-0.12678,-0.11787,0.92891,0.33059,,,0.81328,0.57517,0.08781,-0.00721,
1.80469,0.31010,0.14379,-0.26635,-0.13577,0.93425,0.32816,,,0.81326,0.57519,0.08783,-0.00722,
1.81250,0.27576,0.00060,-0.23146,-0.12851,0.92551,0.32038,,,0.81325,0.57520,0.08784,-0.00723,
1.82031,0.10408,0.10799,-0.44082,-0.13577,0.92697,0.32427,,,0.81325,0.57520,0.08786,-0.00726,
1.82813,0.24142,0.14379,-0.23146,-0.13141,0.93182,0.32281,,,0.81324,0.57521,0.08788,-0.00726,
1.83594,0.24142,0.10799,-0.40592,-0.13432,0.93376,0.33350,,,0.81323,0.57523,0.08790,-0.00728,
1.84375,0.00107,0.17959,-0.44082,-0.13867,0.94298,0.33302,,,0.81322,0.57522,0.08793,-0.00730,
1.85156,0.06975,0.17959,-0.37103,-0.14109,0.92842,0.32816,,,0.81322,0.57522,0.08795,-0.00732,
1.85938,0.10408,0.14379,-0.37103,-0.12900,0.93036,0.32572,,,0.81322,0.57523,0.08797,-0.00733,
1.86719,0.27576,-0.03520,-0.23146,-0.13045,0.93279,0.32524,,,0.81320,0.57524,0.08798,-0.00735,
1.87500,0.20709,0.07220,-0.23146,-0.14399,0.92309,0.32913,,,0.81320,0.57525,0.08799,-0.00736,
1.88281,0.31010,0.28698,-0.05699,-0.12900,0.93619,0.33642,,,0.81318,0.57527,0.08801,-0.00735,
1.89063,0.34443,0.14379,0.04769,-0.12996,0.94007,0.33059,,,0.81317,0.57529,0.08802,-0.00735,
1.89844,0.31010,0.21539,0.08258,-0.12561,0.94589,0.33496,,,0.81315,0.57531,0.08803,-0.00733,
1.90625,0.34443,0.00060,0.18726,-0.12658,0.93813,0.33253,,,0.81314,0.57533,0.08802,-0.00733,
1.91406,0.44744,0.10799,-0.12678,-0.13190,0.93910,0.32913,,,0.81312,0.57535,0.08803,-0.00733,
1.92188,0.41310,0.21539,0.08258,-0.12948,0.93085,0.33156,,,0.81311,0.57537,0.08804,-0.00732,
1.92969,0.24142,0.25118,-0.05699,-0.13528,0.93182,0.32718,,,0.81309,0.57539,0.08805,-0.00732,
1.93750,0.24142,0.14379,-0.02210,-0.12851,0.93085,0.31843,,,0.81308,0.57540,0.08806,-0.00731,
1.94531,0.24142,0.21539,-0.09188,-0.13577,0.93182,0.32184,,,0.81307,0.57541,0.08808,-0.00731,
1.95313,0.13842,0.25118,0.11748,-0.13190,0.92551,0.32038,,,0.81307,0.57542,0.08809,-0.00729,
1.96094,0.10408,0.14379,0.11748,-0.12271,0.93473,0.33836,,,0.81306,0.57543,0.08809,-0.00728,
1.96875,0.31010,0.14379,-0.02210,-0.13287,0.94395,0.32961,,,0.81305,0.57545,0.08810,-0.00728,
1.97656,0.20709,0.10799,-0.02210,-0.12803,0.94443,0.33885,,,0.81304,0.57546,0.08811,-0.00728,
1.98438,0.13842,0.17959,-0.09188,-0.12996,0.94298,0.33642,,,0.81303,0.57546,0.08812,-0.00728,
1.99219,0.17275,0.07220,-0.09188,-0.12464,0.94249,0.33642,,,0.81303,0.57547,0.08813,-0.00728,
2.00000,0.10408,0.25118,-0.12678,-0.12755,0.92939,0.32427,,,0.81302,0.57548,0.08815,-0.00728,
2.00781,0.17275,0.32278,-0.05699,-0.12609,0.92988,0.32718,1021.679,24.6,0.81301,0.57549,0.08817,-0.00727,
2.01563,0.13842,0.32278,-0.30124,-0.13287,0.92454,0.32184,,,0.81300,0.57549,0.08820,-0.00728,
2.02344,0.17275,0.32278,-0.16167,-0.12996,0.93182,0.32718,,,0.81299,0.57550,0.08822,-0.00727,
2.03125,0.13842,0.32278,-0.26635,-0.12609,0.93231,0.33350,,,0.81299,0.57551,0.08825,-0.00728,
2.03906,0.13842,0.17959,-0.33614,-0.13045,0.93958,0.33836,,,0.81298,0.57552,0.08827,-0.00729,
2.04688,0.10408,0.10799,-0.44082,-0.12851,0.94007,0.33496,,,0.81298,0.57552,0.08829,-0.00731,
2.05469,0.13842,0.14379,-0.68507,-0.13287,0.93813,0.32816,,,0.81297,0.57552,0.08833,-0.00734,
2.06250,0.03541,0.17959,-0.44082,-0.13190,0.93861,0.32524,,,0.81297,0.57552,0.08836,-0.00736,
2.07031,-0.10193,0.21539,-0.54549,-0.13287,0.92891,0.32281,,,0.81297,0.57551,0.08839,-0.00738,
2.07813,0.03541,0.17959,-0.51060,-0.12851,0.93085,0.32572,,,0.81297,0.57551,0.08842,-0.00740,
2.08594,0.03541,0.14379,-0.37103,-0.13770,0.93328,0.32961,,,0.81296,0.57551,0.08844,-0.00742,
2.09375,0.20709,0.17959,-0.26635,-0.13528,0.93667,0.33204,,,0.81295,0.57552,0.08846,-0.00743,
2.10156,0.06975,0.25118,-0.05699,-0.11981,0.94152,0.33496,,,0.81295,0.57552,0.08848,-0.00742,
2.10938,0.10408,0.10799,-0.30124,-0.13190,0.94055,0.33788,,,0.81294,0.57553,0.08850,-0.00743,
2.11719,0.17275,-0.07100,-0.23146,-0.13093,0.94104,0.33447,,,0.81294,0.57554,0.08850,-0.00745,
2.12500,0.27576,0.17959,-0.23146,-0.13528,0.93813,0.33204,,,0.81293,0.57555,0.08852,-0.00746,
2.13281,0.20709,0.03640,-0.33614,-0.13480,0.93570,0.32718,,,0.81292,0.57556,0.08854,-0.00748,
2.14063,0.17275,0.07220,-0.30124,-0.12803,0.92406,0.32913,,,0.81291,0.57557,0.08855,-0.00749,
2.14844,0.24142,-0.07100,-0.40592,-0.12900,0.92260,0.32961,,,0.81290,0.57558,0.08856,-0.00752,
2.15625,0.24142,-0.10679,-0.37103,-0.13287,0.94007,0.32913,,,0.81289,0.57559,0.08857,-0.00754,
2.16406,0.24142,-0.14259,-0.51060,-0.13238,0.93910,0.32864,,,0.81288,0.57560,0.08858,-0.00758,
2.17188,0.24142,-0.03520,-0.44082,-0.12222,0.93425,0.33788,,,0.81287,0.57561,0.08860,-0.00761,
2.17969,0.31010,-0.07100,-0.44082,-0.12561,0.93813,0.33107,,,0.81286,0.57563,0.08861,-0.00764,
2.18750,0.51611,-0.17839,-0.65017,-0.13093,0.94443,0.34031,,,0.81284,0.57565,0.08863,-0.00768,
2.19531,0.44744,-0.21419,-0.61528,-0.13528,0.93861,0.33107,,,0.81283,0.57567,0.08864,-0.00773,
2.20313,0.37877,-0.21419,-0.68507,-0.14496,0.93425,0.33885,,,0.81281,0.57569,0.08865,-0.00778,
2.21094,0.68779,-0.14259,-0.33614,-0.12368,0.93036,0.32281,,,0.81279,0.57572,0.08866,-0.00780,
2.21875,0.68779,-0.14259,-0.40592,-0.12706,0.93473,0.32329,,,0.81276,0.57576,0.08867,-0.00784,
2.22656,0.68779,-0.17839,-0.33614,-0.12271,0.92842,0.32378,,,0.81273,0.57580,0.08867,-0.00787,
2.23438,0.61912,-0.14259,-0.71996,-0.14399,0.92939,0.32816,,,0.81271,0.57583,0.08869,-0.00791,
2.24219,0.51611,-0.28578,-0.68507,-0.12077,0.94249,0.33642,,,0.81269,0.57585,0.08870,-0.00797,
2.25000,0.41310,-0.10679,-1.06889,-0.13674,0.94540,0.33691,,,0.81267,0.57587,0.08874,-0.00803,
2.25781,0.27576,-0.39318,-0.54549,-0.07773,0.92891,0.33982,,,0.81267,0.57588,0.08874,-0.00808,
2.26563,0.55045,0.10799,-1.69697,-0.15125,0.93425,0.34031,,,0.81264,0.57590,0.08881,-0.00817,
2.27344,0.55045,-0.24998,-1.20847,-0.12851,0.93133,0.31989,,,0.81262,0.57592,0.08884,-0.00825,
2.28125,0.37877,-0.17839,-1.27825,-0.12416,0.93376,0.32524,,,0.81261,0.57593,0.08888,-0.00833,
2.28906,0.37877,-0.28578,-1.38293,-0.13287,0.92842,0.31746,,,0.81259,0.57595,0.08892,-0.00842,
2.29688,0.13842,-0.14259,-1.52250,-0.13480,0.93133,0.32670,,,0.81259,0.57595,0.08897,-0.00851,
2.30469,0.17275,-0.14259,-1.31314,-0.12900,0.93716,0.33496,,,0.81258,0.57595,0.08902,-0.00859,
2.31250,0.06975,-0.14259,-1.24336,-0.12948,0.93716,0.33302,,,0.81258,0.57594,0.08906,-0.00867,
2.32031,-0.03326,0.00060,-1.24336,-0.13045,0.94249,0.33642,,,0.81258,0.57593,0.08911,-0.00874,
2.32813,-0.13627,0.00060,-1.10379,-0.13722,0.93328,0.32816,,,0.81258,0.57592,0.08915,-0.00880,
2.33594,-0.03326,0.10799,-0.96421,-0.13141,0.93473,0.33302,,,0.81258,0.57591,0.08919,-0.00885,
2.34375,0.03541,0.00060,-0.78975,-0.12996,0.92842,0.32329,,,0.81258,0.57591,0.08922,-0.00889,
2.35156,-0.03326,0.14379,-0.75485,-0.12755,0.93182,0.32572,,,0.81258,0.57590,0.08926,-0.00893,
2.35938,-0.10193,0.14379,-0.75485,-0.14060,0.93036,0.32572,,,0.81258,0.57589,0.08930,-0.00896,
2.36719,-0.17060,0.28698,-0.58039,-0.13480,0.93958,0.32670,,,0.81259,0.57588,0.08934,-0.00898,
2.37500,-0.17060,0.21539,-0.54549,-0.14157,0.93328,0.33156,,,0.81259,0.57587,0.08937,-0.00900,
2.38281,-0.20494,0.35858,-0.37103,-0.11884,0.93910,0.33447,,,0.81260,0.57585,0.08941,-0.00901,
2.39063,-0.13627,0.07220,-0.30124,-0.12755,0.94249,0.33593,,,0.81260,0.57584,0.08942,-0.00902,
2.39844,-0.10193,0.28698,-0.23146,-0.13674,0.93133,0.33593,,,0.81261,0.57584,0.08945,-0.00902,
2.40625,-0.03326,0.21539,-0.37103,-0.12706,0.92891,0.32816,,,0.81261,0.57583,0.08947,-0.00903,
2.41406,-0.06760,0.17959,-0.58039,-0.13577,0.93133,0.32038,,,0.81261,0.57583,0.08951,-0.00906,
2.42188,0.10408,0.17959,-0.54549,-0.13770,0.93425,0.32961,,,0.81260,0.57583,0.08954,-0.00908,
2.42969,0.00107,0.28698,-0.61528,-0.13867,0.93764,0.32767,,,0.81260,0.57583,0.08958,-0.00911,
2.43750,-0.06760,0.10799,-0.75485,-0.12609,0.94104,0.33739,,,0.81260,0.57582,0.08961,-0.00914,
2.44531,-0.06760,0.10799,-0.65017,-0.12464,0.93522,0.33739,,,0.81260,0.57581,0.08964,-0.00917,
2.45313,0.06975,0.14379,-0.54549,-0.12851,0.93667,0.33496,,,0.81260,0.57581,0.08967,-0.00920,
2.46094,0.20709,0.14379,-0.44082,-0.12996,0.93716,0.33642,,,0.81259,0.57582,0.08970,-0.00922,
2.46875,0.34443,0.07220,-0.33614,-0.12368,0.94007,0.33107,,,0.81258,0.57584,0.08972,-0.00924,
2.47656,0.27576,0.28698,-0.26635,-0.13335,0.92648,0.32913,,,0.81256,0.57585,0.08974,-0.00924,
2.48438,0.27576,0.32278,-0.26635,-0.13528,0.92794,0.32670,,,0.81255,0.57586,0.08977,-0.00925,
2.49219,0.27576,0.17959,-0.12678,-0.12851,0.93133,0.32572,,,0.81254,0.57588,0.08978,-0.00925,
2.50000,0.24142,0.14379,-0.09188,-0.13528,0.92648,0.32038,,,0.81253,0.57589,0.08980,-0.00925,
2.50781,0.27576,0.25118,0.08258,-0.12609,0.93958,0.33545,,,0.81251,0.57591,0.08981,-0.00924,
2.51563,0.24142,0.32278,0.04769,-0.12609,0.93910,0.33496,,,0.81250,0.57592,0.08982,-0.00922,
2.52344,0.27576,0.14379,0.01280,-0.12658,0.94589,0.33691,,,0.81249,0.57594,0.08983,-0.00922,
2.53125,0.10408,0.14379,-0.02210,-0.13819,0.94492,0.33642,,,0.81249,0.57594,0.08984,-0.00921,
2.53906,0.13842,0.07220,0.01280,-0.13287,0.94395,0.33253,,,0.81248,0.57595,0.08984,-0.00921,
2.54688,0.13842,0.10799,-0.12678,-0.13577,0.93473,0.33253,,,0.81247,0.57596,0.08985,-0.00921,
2.55469,0.20709,0.10799,-0.02210,-0.12609,0.93182,0.32086,,,0.81247,0.57597,0.08986,-0.00921,
2.56250,0.37877,0.07220,-0.16167,-0.12900,0.93667,0.32427,,,0.81245,0.57599,0.08987,-0.00922,
2.57031,0.27576,-0.03520,-0.23146,-0.12996,0.92551,0.31989,,,0.81244,0.57600,0.08988,-0.00924,
2.57813,0.34443,0.14379,-0.47571,-0.13432,0.93231,0.32718,,,0.81243,0.57602,0.08990,-0.00926,
2.58594,0.34443,0.07220,-0.44082,-0.12029,0.94007,0.33253,,,0.81241,0.57603,0.08992,-0.00928,
2.59375,0.37877,0.14379,-0.54549,-0.12851,0.94589,0.33836,,,0.81239,0.57605,0.08995,-0.00931,
2.60156,0.17275,0.17959,-0.61528,-0.12368,0.93133,0.32572,,,0.81239,0.57606,0.08999,-0.00934,
2.60938,0.24142,0.21539,-0.71996,-0.13722,0.93182,0.33302,,,0.81238,0.57607,0.09003,-0.00937,
2.61719,0.10408,0.10799,-0.65017,-0.13141,0.93231,0.33107,,,0.81237,0.57607,0.09006,-0.00940,
2.62500,0.20709,-0.03520,-0.89443,-0.13287,0.93133,0.32475,,,0.81236,0.57608,0.09009,-0.00946,
2.63281,0.17275,0.00060,-0.78975,-0.13577,0.93958,0.32913,,,0.81235,0.57608,0.09012,-0.00950,
2.64063,0.03541,0.10799,-0.68507,-0.12126,0.93764,0.33496,,,0.81235,0.57608,0.09016,-0.00953,
2.64844,0.10408,0.00060,-0.78975,-0.12029,0.93570,0.33885,,,0.81235,0.57608,0.09019,-0.00958,
2.65625,0.24142,0.07220,-0.78975,-0.13383,0.94055,0.34177,,,0.81234,0.57609,0.09022,-0.00962,
2.66406,0.06975,0.14379,-0.65017,-0.13141,0.93667,0.33691,,,0.81233,0.57609,0.09025,-0.00965,
2.67188,0.17275,0.21539,-0.58039,-0.13287,0.93667,0.34225,,,0.81232,0.57609,0.09029,-0.00968,
2.67969,0.06975,0.14379,-0.51060,-0.12706,0.92891,0.32913,,,0.81232,0.57609,0.09032,-0.00970,
2.68750,0.17275,0.21539,-0.61528,-0.13480,0.92794,0.32232,,,0.81231,0.57610,0.09035,-0.00973,
2.69531,0.24142,-0.03520,-0.54549,-0.13045,0.93231,0.32475,,,0.81230,0.57611,0.09037,-0.00976,
2.70313,0.27576,0.03640,-0.71996,-0.13722,0.92454,0.32524,,,0.81229,0.57612,0.09040,-0.00980,
2.71094,0.13842,0.03640,-0.58039,-0.13770,0.93473,0.32913,,,0.81228,0.57613,0.09043,-0.00983,
2.71875,0.27576,0.03640,-0.61528,-0.12658,0.94492,0.33691,,,0.81227,0.57614,0.09045,-0.00986,
2.72656,0.06975,0.00060,-0.68507,-0.12561,0.94686,0.33885,,,0.81227,0.57614,0.09048,-0.00990,
2.73438,0.17275,0.07220,-0.68507,-0.12803,0.93473,0.32621,,,0.81226,0.57614,0.09051,-0.00994,
2.74219,0.13842,0.17959,-0.78975,-0.12996,0.92891,0.33010,,,0.81225,0.57614,0.09055,-0.00998,
2.75000,0.13842,0.00060,-0.71996,-0.13238,0.93328,0.32961,,,0.81225,0.57615,0.09058,-0.01002,
2.75781,0.03541,0.17959,-0.61528,-0.13287,0.93085,0.32086,,,0.81225,0.57615,0.09061,-0.01004,
2.76563,0.06975,0.10799,-0.65017,-0.13238,0.93133,0.32718,,,0.81224,0.57615,0.09065,-0.01008,
2.77344,0.10408,0.00060,-0.58039,-0.13141,0.93036,0.32475,,,0.81224,0.57615,0.09067,-0.01011,
2.78125,0.13842,0.03640,-0.51060,-0.12174,0.94104,0.33399,,,0.81223,0.57615,0.09069,-0.01014,
2.78906,0.17275,0.10799,-0.47571,-0.12561,0.93958,0.33934,,,0.81222,0.57616,0.09071,-0.01016,
2.79688,0.24142,0.07220,-0.61528,-0.12609,0.93619,0.33739,,,0.81221,0.57617,0.09074,-0.01019,
2.80469,0.17275,0.07220,-0.61528,-0.13190,0.93085,0.33107,,,0.81221,0.57618,0.09077,-0.01023,
2.81250,0.20709,0.03640,-0.54549,-0.12609,0.93716,0.33107,,,0.81220,0.57618,0.09079,-0.01026,
2.82031,0.20709,0.07220,-0.65017,-0.12319,0.94055,0.33107,,,0.81219,0.57619,0.09082,-0.01029,
2.82813,0.13842,0.10799,-0.61528,-0.13335,0.92794,0.32427,,,0.81218,0.57619,0.09085,-0.01032,
2.83594,0.27576,0.07220,-0.61528,-0.13383,0.92600,0.32038,,,0.81217,0.57621,0.09088,-0.01035,
2.84375,0.10408,0.03640,-0.65017,-0.13915,0.93376,0.32718,,,0.81217,0.57621,0.09091,-0.01039,
2.85156,0.24142,0.07220,-0.61528,-0.13432,0.92988,0.33399,,,0.81215,0.57622,0.09094,-0.01042,
2.85938,0.10408,0.00060,-0.44082,-0.13238,0.94249,0.33253,,,0.81215,0.57622,0.09095,-0.01045,
2.86719,0.06975,0.07220,-0.47571,-0.12996,0.93716,0.33642,,,0.81215,0.57622,0.09098,-0.01047,
2.87500,0.06975,0.07220,-0.47571,-0.12803,0.94152,0.33302,,,0.81214,0.57622,0.09100,-0.01049,
2.88281,0.10408,-0.03520,-0.47571,-0.12948,0.93376,0.33253,,,0.81214,0.57623,0.09102,-0.01052,
2.89063,0.27576,0.14379,-0.33614,-0.13383,0.93376,0.33156,,,0.81213,0.57624,0.09104,-0.01054,
2.89844,0.17275,0.07220,-0.33614,-0.12706,0.93279,0.32864,,,0.81212,0.57625,0.09105,-0.01055,
2.90625,0.31010,0.00060,-0.19656,-0.13287,0.93522,0.32913,,,0.81211,0.57626,0.09106,-0.01057,
2.91406,0.17275,0.17959,-0.23146,-0.12900,0.94007,0.33204,,,0.81210,0.57627,0.09108,-0.01057,
2.92188,0.13842,0.17959,-0.26635,-0.12271,0.94104,0.33545,,,0.81209,0.57628,0.09110,-0.01058,
2.92969,0.13842,0.10799,-0.16167,-0.12464,0.94007,0.33496,,,0.81209,0.57628,0.09111,-0.01059,
2.93750,0.20709,0.17959,-0.19656,-0.12658,0.93861,0.33496,,,0.81208,0.57629,0.09113,-0.01059,
2.94531,0.24142,0.03640,-0.30124,-0.12271,0.93376,0.33788,,,0.81207,0.57631,0.09114,-0.01061,
2.95313,0.17275,0.03640,-0.37103,-0.13045,0.93036,0.32524,,,0.81206,0.57631,0.09116,-0.01063,
2.96094,0.27576,0.14379,-0.40592,-0.13577,0.92939,0.32913,,,0.81205,0.57633,0.09118,-0.01065,
2.96875,0.17275,0.07220,-0.30124,-0.12948,0.92697,0.32232,,,0.81204,0.57633,0.09120,-0.01066,
2.97656,0.06975,0.21539,-0.37103,-0.13674,0.93522,0.32718,,,0.81204,0.57633,0.09123,-0.01068,
2.98438,0.10408,0.10799,-0.33614,-0.13770,0.93473,0.32961,,,0.81203,0.57634,0.09125,-0.01069,
2.99219,0.06975,0.10799,-0.23146,-0.13093,0.94007,0.33739,,,0.81203,0.57634,0.09126,-0.01070,
3.00000,0.13842,0.28698,-0.02210,-0.13093,0.94735,0.34079,,,0.81202,0.57635,0.09128,-0.01069,
3.00781,0.13842,0.17959,-0.19656,-0.12851,0.94735,0.34177,1021.683,24.6,0.81201,0.57636,0.09129,-0.01070,
3.01563,0.20709,0.21539,-0.16167,-0.12900,0.93861,0.33593,,,0.81200,0.57637,0.09131,-0.01070,
3.02344,0.20709,0.14379,-0.19656,-0.12755,0.92745,0.32718,,,0.81199,0.57638,0.09133,-0.01070,
3.03125,0.20709,0.10799,-0.23146,-0.12996,0.92745,0.31941,,,0.81199,0.57639,0.09134,-0.01071,
3.03906,0.31010,0.03640,-0.40592,-0.13577,0.93231,0.32767,,,0.81197,0.57640,0.09136,-0.01074,
3.04688,0.24142,0.14379,-0.47571,-0.12658,0.93085,0.33059,,,0.81196,0.57641,0.09139,-0.01076,
3.05469,0.31010,0.14379,-0.47571,-0.13625,0.94007,0.32864,,,0.81195,0.57643,0.09141,-0.01078,
3.06250,0.34443,0.03640,-0.61528,-0.13141,0.93328,0.33107,,,0.81193,0.57644,0.09144,-0.01082,
3.07031,0.20709,0.07220,-0.75485,-0.12368,0.93813,0.33593,,,0.81193,0.57645,0.09147,-0.01086,
3.07813,0.17275,0.00060,-0.68507,-0.13093,0.93910,0.33642,,,0.81192,0.57645,0.09150,-0.01090,
3.08594,0.17275,0.14379,-0.68507,-0.12561,0.93085,0.32621,,,0.81191,0.57646,0.09153,-0.01093,
3.09375,0.06975,0.10799,-0.65017,-0.12755,0.92745,0.32524,,,0.81191,0.57646,0.09157,-0.01096,
3.10156,0.24142,-0.14259,-0.78975,-0.12609,0.93036,0.33204,,,0.81190,0.57647,0.09159,-0.01101,
3.10938,0.31010,0.07220,-0.65017,-0.13093,0.93085,0.32913,,,0.81188,0.57648,0.09162,-0.01105,
3.11719,0.27576,0.07220,-0.65017,-0.13480,0.93861,0.32864,,,0.81187,0.57649,0.09165,-0.01108,
3.12500,0.27576,0.03640,-0.61528,-0.12513,0.94492,0.33545,,,0.81186,0.57650,0.09167,-0.01112,
3.13281,0.31010,0.10799,-0.61528,-0.13093,0.94201,0.34128,,,0.81185,0.57652,0.09170,-0.01115,
3.14063,0.17275,-0.10679,-0.68507,-0.12416,0.93861,0.33545,,,0.81184,0.57652,0.09172,-0.01119,
3.14844,0.10408,0.14379,-0.96421,-0.13190,0.93376,0.33691,,,0.81183,0.57652,0.09177,-0.01124,
3.15625,0.17275,0.03640,-0.78975,-0.12803,0.92600,0.32621,,,0.81183,0.57653,0.09180,-0.01128,
3.16406,0.13842,0.00060,-0.71996,-0.13432,0.92794,0.32475,,,0.81182,0.57653,0.09183,-0.01132,
3.17188,0.13842,-0.10679,-0.75485,-0.13528,0.93085,0.32135,,,0.81182,0.57653,0.09185,-0.01137,
3.17969,0.00107,0.00060,-0.71996,-0.13480,0.92891,0.32767,,,0.81181,0.57653,0.09188,-0.01141,
3.18750,0.17275,0.10799,-0.68507,-0.12319,0.93861,0.33496,,,0.81181,0.57653,0.09192,-0.01144,
3.19531,0.17275,0.03640,-0.68507,-0.13141,0.94152,0.33836,,,0.81180,0.57654,0.09194,-0.01148,
3.20313,0.20709,-0.07100,-0.65017,-0.13093,0.94152,0.33739,,,0.81179,0.57655,0.09197,-0.01152,
3.21094,0.24142,-0.03520,-0.51060,-0.13528,0.94298,0.33788,,,0.81178,0.57656,0.09198,-0.01155,
3.21875,0.24142,-0.07100,-0.65017,-0.13141,0.93958,0.33691,,,0.81177,0.57656,0.09201,-0.01159,
3.22656,0.24142,0.10799,-0.58039,-0.12900,0.93133,0.32816,,,0.81176,0.57657,0.09203,-0.01162,
3.23438,0.13842,0.10799,-0.68507,-0.12948,0.93036,0.32329,,,0.81175,0.57658,0.09207,-0.01166,
3.24219,0.13842,0.07220,-0.54549,-0.13577,0.93133,0.32767,,,0.81175,0.57658,0.09209,-0.01169,
3.25000,0.13842,0.14379,-0.44082,-0.13625,0.93231,0.32670,,,0.81174,0.57659,0.09212,-0.01171,
3.25781,0.13842,0.07220,-0.44082,-0.12803,0.93231,0.33156,,,0.81174,0.57659,0.09214,-0.01173,
3.26563,0.03541,0.17959,-0.47571,-0.12416,0.93861,0.33399,,,0.81173,0.57659,0.09217,-0.01175,
3.27344,0.13842,0.14379,-0.54549,-0.12658,0.94201,0.33302,,,0.81173,0.57660,0.09220,-0.01177,
3.28125,0.06975,0.10799,-0.54549,-0.12755,0.94104,0.33204,,,0.81172,0.57660,0.09222,-0.01180,
3.28906,0.10408,0.17959,-0.33614,-0.12561,0.92794,0.33496,,,0.81172,0.57660,0.09225,-0.01181,
3.29688,0.03541,0.14379,-0.37103,-0.12996,0.92794,0.32281,,,0.81171,0.57660,0.09227,-0.01183,
3.30469,0.03541,0.14379,-0.51060,-0.12706,0.93231,0.32475,,,0.81171,0.57660,0.09230,-0.01185,
3.31250,0.10408,-0.03520,-0.58039,-0.13045,0.93085,0.32232,,,0.81171,0.57660,0.09232,-0.01188,
3.32031,0.24142,0.03640,-0.65017,-0.13383,0.93619,0.32816,,,0.81170,0.57661,0.09235,-0.01192,
3.32813,0.10408,-0.03520,-0.65017,-0.12561,0.93522,0.32718,,,0.81169,0.57661,0.09237,-0.01196,
3.33594,0.13842,0.00060,-0.75485,-0.12948,0.94152,0.33934,,,0.81169,0.57661,0.09240,-0.01200,
3.34375,0.10408,0.07220,-0.68507,-0.12996,0.94104,0.33642,,,0.81168,0.57662,0.09243,-0.01204,
3.35156,0.00107,-0.07100,-0.78975,-0.13287,0.94104,0.33934,,,0.81168,0.57661,0.09246,-0.01208,
3.35938,-0.06760,-0.03520,-0.75485,-0.13480,0.93813,0.33447,,,0.81168,0.57660,0.09248,-0.01212,
3.36719,0.03541,0.14379,-0.51060,-0.12464,0.93279,0.32427,,,0.81168,0.57660,0.09251,-0.01215,
3.37500,0.03541,0.00060,-0.54549,-0.12996,0.92697,0.32038,,,0.81168,0.57660,0.09253,-0.01218,
3.38281,0.06975,0.10799,-0.65017,-0.13480,0.93813,0.32621,,,0.81167,0.57660,0.09256,-0.01221,
3.39063,-0.06760,0.21539,-0.75485,-0.13383,0.93376,0.32816,,,0.81168,0.57659,0.09261,-0.01224,
3.39844,0.10408,0.10799,-0.71996,-0.12900,0.94152,0.33496,,,0.81167,0.57659,0.09264,-0.01228,
3.40625,-0.10193,0.17959,-0.78975,-0.12416,0.94201,0.33447,,,0.81167,0.57658,0.09268,-0.01232,
3.41406,0.00107,0.21539,-0.68507,-0.13287,0.93861,0.34177,,,0.81167,0.57658,0.09272,-0.01234,
3.42188,-0.17060,0.21539,-0.75485,-0.12948,0.93036,0.33496,,,0.81167,0.57656,0.09276,-0.01238,
3.42969,-0.03326,0.21539,-0.85953,-0.12996,0.92939,0.32816,,,0.81167,0.57656,0.09281,-0.01242,
3.43750,0.06975,0.21539,-0.92932,-0.12706,0.92697,0.32621,,,0.81167,0.57656,0.09286,-0.01246,
3.44531,0.06975,0.10799,-0.99911,-0.13190,0.92551,0.31941,,,0.81166,0.57655,0.09290,-0.01251,
3.45313,-0.13627,0.14379,-1.10379,-0.13528,0.93425,0.32816,,,0.81167,0.57654,0.09295,-0.01257,
3.46094,-0.20494,0.28698,-1.03400,-0.13190,0.93231,0.33447,,,0.81167,0.57652,0.09301,-0.01261,
3.46875,-0.06760,0.25118,-0.99911,-0.12803,0.93764,0.33788,,,0.81167,0.57651,0.09306,-0.01265,
3.47656,-0.10193,0.21539,-1.03400,-0.13770,0.93861,0.34711,,,0.81168,0.57650,0.09312,-0.01270,
3.48438,0.10408,-0.10679,-0.78975,-0.13045,0.93861,0.34322,,,0.81167,0.57650,0.09314,-0.01275,
3.49219,0.48177,0.03640,-0.58039,-0.12513,0.93667,0.34031,,,0.81165,0.57652,0.09316,-0.01278,
3.50000,0.51611,0.03640,-0.61528,-0.12464,0.93473,0.32816,,,0.81163,0.57655,0.09319,-0.01282,
3.50781,0.44744,-0.07100,-0.75485,-0.13287,0.92697,0.32281,,,0.81161,0.57657,0.09322,-0.01287,
3.51563,0.58478,-0.14259,-0.89443,-0.13674,0.93425,0.32961,,,0.81159,0.57659,0.09324,-0.01293,
3.52344,0.58478,-0.17839,-0.82464,-0.13577,0.93376,0.32913,,,0.81157,0.57662,0.09326,-0.01298,
3.53125,0.58478,-0.32158,-0.99911,-0.13432,0.93376,0.32378,,,0.81155,0.57665,0.09329,-0.01305,
3.53906,0.55045,-0.21419,-0.78975,-0.13093,0.93231,0.33204,,,0.81152,0.57667,0.09330,-0.01311,
3.54688,0.48177,-0.21419,-0.82464,-0.13432,0.93861,0.33934,,,0.81151,0.57669,0.09332,-0.01317,
3.55469,0.41310,-0.32158,-0.99911,-0.13093,0.94589,0.33156,,,0.81149,0.57671,0.09335,-0.01324,
3.56250,0.10408,-0.14259,-1.13868,-0.14641,0.92309,0.33350,,,0.81149,0.57671,0.09338,-0.01331,
3.57031,0.27576,-0.28578,-1.06889,-0.12464,0.92406,0.34079,,,0.81148,0.57672,0.09341,-0.01338,
3.57813,0.79080,-0.39318,-1.20847,-0.12851,0.93182,0.31843,,,0.81145,0.57675,0.09343,-0.01347,
3.58594,0.68779,-0.35738,-1.10379,-0.13964,0.93328,0.32232,,,0.81142,0.57678,0.09346,-0.01355,
3.59375,0.51611,-0.32158,-1.03400,-0.13867,0.93231,0.32961,,,0.81140,0.57680,0.09348,-0.01362,
3.60156,0.51611,-0.17839,-1.17357,-0.13335,0.93958,0.33156,,,0.81138,0.57682,0.09351,-0.01369,
3.60938,0.55045,-0.24998,-0.89443,-0.12803,0.93813,0.33691,,,0.81136,0.57685,0.09354,-0.01376,
3.61719,0.55045,-0.24998,-0.71996,-0.12851,0.93958,0.34079,,,0.81134,0.57687,0.09355,-0.01381,
3.62500,0.20709,-0.03520,-0.82464,-0.12900,0.94298,0.32184,,,0.81133,0.57688,0.09358,-0.01386,
3.63281,0.17275,-0.14259,-0.75485,-0.13722,0.92745,0.33204,,,0.81133,0.57689,0.09360,-0.01391,
3.64063,0.27576,-0.03520,-0.71996,-0.14447,0.92551,0.32767,,,0.81131,0.57690,0.09363,-0.01395,
3.64844,0.55045,-0.03520,-0.40592,-0.13045,0.93231,0.32329,,,0.81129,0.57692,0.09364,-0.01398,
3.65625,0.44744,-0.14259,-0.26635,-0.13093,0.93085,0.31746,,,0.81128,0.57695,0.09364,-0.01400,
3.66406,0.17275,0.10799,-0.37103,-0.13383,0.93570,0.32718,,,0.81127,0.57695,0.09366,-0.01402,
3.67188,0.20709,0.14379,-0.40592,-0.13528,0.94249,0.33788,,,0.81126,0.57696,0.09369,-0.01404,
3.67969,0.00107,0.10799,-0.16167,-0.12755,0.93182,0.32961,,,0.81126,0.57696,0.09370,-0.01404,
3.68750,0.10408,0.10799,0.08258,-0.13045,0.94346,0.33885,,,0.81125,0.57697,0.09370,-0.01403,
3.69531,-0.03326,0.21539,-0.12678,-0.12368,0.93813,0.33642,,,0.81125,0.57697,0.09372,-0.01403,
3.70313,-0.03326,0.28698,-0.16167,-0.13480,0.93376,0.33204,,,0.81125,0.57696,0.09374,-0.01403,
3.71094,-0.06760,0.25118,-0.02210,-0.13528,0.92697,0.32232,,,0.81125,0.57696,0.09376,-0.01402,
3.71875,-0.10193,0.32278,-0.05699,-0.12803,0.93279,0.32184,,,0.81125,0.57695,0.09378,-0.01401,
3.72656,-0.03326,0.28698,-0.05699,-0.13045,0.92600,0.32086,,,0.81125,0.57695,0.09379,-0.01400,
3.73438,-0.10193,0.14379,-0.30124,-0.13190,0.93619,0.32767,,,0.81126,0.57695,0.09381,-0.01401,
3.74219,0.03541,0.21539,-0.26635,-0.13625,0.94346,0.32767,,,0.81125,0.57695,0.09384,-0.01402,
3.75000,-0.13627,0.21539,-0.33614,-0.12319,0.94735,0.33982,,,0.81126,0.57694,0.09386,-0.01403,
3.75781,-0.03326,0.28698,-0.37103,-0.12803,0.94589,0.34177,,,0.81126,0.57693,0.09389,-0.01404,
3.76563,-0.03326,0.21539,-0.47571,-0.12948,0.93716,0.33350,,,0.81126,0.57693,0.09392,-0.01405,
3.77344,0.03541,0.32278,-0.54549,-0.13287,0.92842,0.32670,,,0.81125,0.57693,0.09396,-0.01407,
3.78125,0.03541,0.25118,-0.47571,-0.13141,0.93522,0.32913,,,0.81125,0.57693,0.09399,-0.01409,
3.78906,-0.06760,0.17959,-0.47571,-0.12658,0.92260,0.32475,,,0.81125,0.57692,0.09402,-0.01411,
3.79688,0.03541,0.10799,-0.68507,-0.12996,0.92891,0.32767,,,0.81125,0.57692,0.09406,-0.01414,
3.80469,0.03541,0.07220,-0.61528,-0.12755,0.92551,0.33156,,,0.81124,0.57691,0.09408,-0.01417,
3.81250,0.00107,0.14379,-0.65017,-0.13045,0.93861,0.32621,,,0.81124,0.57691,0.09412,-0.01420,
3.82031,0.20709,0.14379,-0.78975,-0.12996,0.94249,0.33059,,,0.81123,0.57692,0.09416,-0.01424,
3.82813,0.13842,0.17959,-0.71996,-0.13093,0.93667,0.34031,,,0.81123,0.57692,0.09419,-0.01428,
3.83594,0.17275,0.14379,-0.82464,-0.13093,0.93376,0.34225,,,0.81122,0.57692,0.09423,-0.01432,
3.84375,0.06975,0.17959,-0.82464,-0.13287,0.93667,0.33788,,,0.81121,0.57692,0.09428,-0.01436,
3.85156,0.13842,0.03640,-0.71996,-0.13190,0.93182,0.32961,,,0.81121,0.57693,0.09431,-0.01439,
3.85938,0.13842,0.00060,-0.71996,-0.12513,0.92357,0.32232,,,0.81120,0.57693,0.09433,-0.01443,
3.86719,0.20709,0.07220,-0.92932,-0.13141,0.92939,0.32913,,,0.81119,0.57693,0.09438,-0.01448,
3.87500,0.20709,0.00060,-0.82464,-0.12755,0.92697,0.32864,,,0.81118,0.57694,0.09441,-0.01453,
3.88281,0.17275,-0.07100,-0.61528,-0.12368,0.93910,0.33447,,,0.81117,0.57695,0.09443,-0.01457,
3.89063,0.17275,0.07220,-0.68507,-0.12900,0.94346,0.33739,,,0.81117,0.57695,0.09446,-0.01461,
3.89844,0.13842,-0.03520,-0.78975,-0.13335,0.94152,0.33739,,,0.81116,0.57695,0.09449,-0.01465,
3.90625,0.13842,-0.10679,-0.61528,-0.13238,0.93861,0.33788,,,0.81116,0.57696,0.09451,-0.01469,
3.91406,0.24142,0.00060,-0.68507,-0.13190,0.93425,0.33496,,,0.81114,0.57697,0.09453,-0.01473,
3.92188,0.31010,-0.21419,-0.71996,-0.13238,0.92745,0.32184,,,0.81113,0.57698,0.09455,-0.01478,
3.92969,0.44744,-0.10679,-0.65017,-0.13383,0.93522,0.32475,,,0.81112,0.57700,0.09457,-0.01482,
3.93750,0.44744,0.03640,-0.75485,-0.13335,0.93570,0.32670,,,0.81110,0.57702,0.09460,-0.01487,
3.94531,0.31010,-0.14259,-0.92932,-0.13480,0.94007,0.33302,,,0.81108,0.57703,0.09463,-0.01493,
3.95313,0.31010,-0.03520,-0.82464,-0.12851,0.93716,0.33691,,,0.81107,0.57704,0.09466,-0.01497,
3.96094,0.34443,-0.07100,-0.89443,-0.12948,0.93522,0.34274,,,0.81106,0.57706,0.09469,-0.01503,
3.96875,0.31010,0.00060,-0.99911,-0.13190,0.93279,0.33204,,,0.81104,0.57707,0.09473,-0.01509,
3.97656,0.13842,0.07220,-0.85953,-0.13238,0.93328,0.32913,,,0.81104,0.57707,0.09476,-0.01513,
3.98438,0.27576,0.07220,-0.71996,-0.13335,0.93279,0.32718,,,0.81103,0.57708,0.09480,-0.01517,
3.99219,0.20709,0.07220,-0.75485,-0.13093,0.93376,0.32572,,,0.81102,0.57709,0.09483,-0.01521,
4.00000,0.17275,-0.03520,-0.71996,-0.12948,0.92648,0.33059,,,0.81101,0.57709,0.09486,-0.01525,
4.00781,0.20709,0.07220,-0.61528,-0.13674,0.93619,0.32767,1021.655,24.6,0.81100,0.57710,0.09488,-0.01529,
4.01563,0.20709,0.03640,-0.58039,-0.12658,0.93716,0.32961,,,0.81099,0.57711,0.09491,-0.01532,
4.02344,0.10408,0.00060,-0.44082,-0.13383,0.93716,0.33593,,,0.81099,0.57711,0.09493,-0.01534,
4.03125,0.10408,0.10799,-0.33614,-0.13238,0.93910,0.33302,,,0.81098,0.57711,0.09494,-0.01536,
4.03906,0.31010,0.03640,-0.37103,-0.13867,0.93279,0.33496,,,0.81097,0.57713,0.09496,-0.01538,
4.04688,0.41310,-0.07100,-0.19656,-0.13625,0.93910,0.32572,,,0.81095,0.57715,0.09496,-0.01539,
4.05469,0.37877,0.03640,-0.19656,-0.13093,0.92406,0.33059,,,0.81094,0.57717,0.09497,-0.01541,
4.06250,0.27576,0.10799,-0.30124,-0.13045,0.92454,0.32913,,,0.81093,0.57718,0.09499,-0.01542,
4.07031,0.27576,0.10799,-0.47571,-0.13238,0.93376,0.32670,,,0.81091,0.57719,0.09502,-0.01544,
4.07813,0.27576,0.10799,-0.30124,-0.13964,0.92600,0.33107,,,0.81090,0.57721,0.09503,-0.01546,
4.08594,0.31010,0.07220,-0.30124,-0.12851,0.93764,0.33593,,,0.81089,0.57722,0.09505,-0.01547,
4.09375,0.17275,0.25118,-0.09188,-0.12996,0.93861,0.33691,,,0.81088,0.57723,0.09507,-0.01547,
4.10156,0.17275,0.07220,-0.44082,-0.13432,0.94007,0.34031,,,0.81087,0.57724,0.09509,-0.01549,
4.10938,0.13842,0.03640,-0.33614,-0.13093,0.93522,0.33982,,,0.81087,0.57724,0.09510,-0.01551,
4.11719,0.27576,0.03640,-0.44082,-0.12803,0.93036,0.32670,,,0.81085,0.57726,0.09512,-0.01554,
4.12500,0.13842,0.10799,-0.37103,-0.13141,0.93473,0.33107,,,0.81085,0.57726,0.09514,-0.01555,
4.13281,0.31010,0.14379,-0.37103,-0.13238,0.93376,0.32670,,,0.81083,0.57728,0.09516,-0.01557,
4.14063,0.20709,0.14379,-0.33614,-0.13577,0.93522,0.32767,,,0.81082,0.57729,0.09518,-0.01558,
4.14844,0.24142,-0.07100,-0.30124,-0.12658,0.93716,0.32718,,,0.81082,0.57730,0.09519,-0.01561,
4.15625,0.17275,0.03640,-0.23146,-0.13045,0.93958,0.33788,,,0.81081,0.57731,0.09520,-0.01562,
4.16406,0.13842,0.14379,-0.44082,-0.12948,0.94104,0.33836,,,0.81080,0.57731,0.09523,-0.01564,
4.17188,0.10408,0.00060,-0.44082,-0.13093,0.94443,0.33593,,,0.81080,0.57731,0.09525,-0.01566,
4.17969,0.17275,0.00060,-0.47571,-0.12755,0.94055,0.33399,,,0.81079,0.57732,0.09526,-0.01569,
4.18750,0.00107,0.10799,-0.65017,-0.13045,0.92745,0.32572,,,0.81079,0.57732,0.09530,-0.01572,
4.19531,0.06975,0.17959,-0.65017,-0.13625,0.92503,0.32427,,,0.81078,0.57732,0.09533,-0.01575,
4.20313,0.20709,-0.03520,-0.65017,-0.12900,0.92842,0.31892,,,0.81077,0.57732,0.09535,-0.01579,
4.21094,-0.03326,0.10799,-0.65017,-0.12755,0.93619,0.33302,,,0.81077,0.57732,0.09539,-0.01582,
4.21875,0.13842,0.03640,-0.68507,-0.12464,0.94783,0.33642,,,0.81077,0.57732,0.09541,-0.01586,
4.22656,0.13842,0.07220,-0.68507,-0.12900,0.93619,0.34128,,,0.81076,0.57732,0.09545,-0.01589,
4.23438,0.27576,0.00060,-0.71996,-0.12900,0.93570,0.33447,,,0.81075,0.57733,0.09547,-0.01594,
4.24219,0.31010,-0.10679,-0.78975,-0.12609,0.93958,0.33496,,,0.81074,0.57735,0.09550,-0.01599,
4.25000,0.20709,-0.10679,-0.82464,-0.12996,0.93279,0.32524,,,0.81073,0.57735,0.09552,-0.01604,
4.25781,0.24142,-0.03520,-0.68507,-0.13190,0.93279,0.32524,,,0.81072,0.57736,0.09555,-0.01608,
4.26563,0.34443,-0.10679,-0.68507,-0.12851,0.92260,0.32670,,,0.81071,0.57738,0.09557,-0.01612,
4.27344,0.31010,0.14379,-0.85953,-0.12851,0.93182,0.33545,,,0.81069,0.57739,0.09561,-0.01617,
4.28125,0.27576,-0.07100,-0.82464,-0.12851,0.93036,0.32718,,,0.81068,0.57740,0.09564,-0.01622,
4.28906,0.13842,0.07220,-0.92932,-0.12609,0.93910,0.33156,,,0.81067,0.57740,0.09568,-0.01627,
4.29688,0.27576,-0.03520,-0.99911,-0.13045,0.93813,0.33934,,,0.81066,0.57741,0.09572,-0.01632,
4.30469,0.20709,-0.07100,-1.10379,-0.12464,0.94152,0.33253,,,0.81065,0.57741,0.09576,-0.01639,
4.31250,0.24142,-0.07100,-1.06889,-0.13480,0.93376,0.32961,,,0.81064,0.57742,0.09579,-0.01645,
4.32031,0.20709,-0.03520,-0.96421,-0.13045,0.93133,0.32475,,,0.81063,0.57742,0.09583,-0.01651,
4.32813,0.10408,0.07220,-0.89443,-0.13093,0.93036,0.32281,,,0.81063,0.57742,0.09587,-0.01656,
4.33594,0.10408,-0.07100,-0.78975,-0.13432,0.93764,0.32524,,,0.81062,0.57742,0.09590,-0.01660,
4.34375,0.10408,0.00060,-0.78975,-0.13722,0.94152,0.33253,,,0.81062,0.57742,0.09593,-0.01665,
4.35156,0.31010,0.03640,-0.78975,-0.12609,0.94055,0.33691,,,0.81061,0.57744,0.09596,-0.01669,
4.35938,0.06975,-0.03520,-0.58039,-0.13287,0.94346,0.34079,,,0.81060,0.57744,0.09598,-0.01672,
4.36719,0.24142,0.03640,-0.65017,-0.13045,0.94007,0.33350,,,0.81059,0.57745,0.09601,-0.01676,
4.37500,0.20709,0.17959,-0.47571,-0.12755,0.93182,0.33302,,,0.81058,0.57745,0.09604,-0.01678,
4.38281,0.17275,0.10799,-0.54549,-0.12900,0.92697,0.32572,,,0.81057,0.57746,0.09606,-0.01681,
4.39063,0.20709,0.17959,-0.61528,-0.13335,0.93036,0.32232,,,0.81056,0.57747,0.09610,-0.01684,
4.39844,0.17275,0.14379,-0.54549,-0.13770,0.92697,0.32913,,,0.81056,0.57747,0.09613,-0.01686,
4.40625,0.13842,0.14379,-0.61528,-0.13383,0.93036,0.32378,,,0.81055,0.57748,0.09616,-0.01689,
4.41406,0.10408,0.17959,-0.68507,-0.12271,0.93085,0.33496,,,0.81054,0.57748,0.09619,-0.01692,
4.42188,0.00107,0.14379,-0.54549,-0.12368,0.93958,0.33593,,,0.81054,0.57748,0.09622,-0.01695,
4.42969,0.06975,0.14379,-0.47571,-0.12706,0.93958,0.33739,,,0.81054,0.57748,0.09625,-0.01697,
4.43750,0.03541,0.17959,-0.37103,-0.13335,0.93619,0.33447,,,0.81053,0.57748,0.09628,-0.01698,
4.44531,0.06975,0.25118,-0.40592,-0.13577,0.93279,0.32961,,,0.81053,0.57748,0.09631,-0.01699,
4.45313,-0.03326,0.25118,-0.23146,-0.13238,0.92939,0.32281,,,0.81053,0.57747,0.09633,-0.01700,
4.46094,0.06975,0.03640,-0.23146,-0.12706,0.93036,0.32621,,,0.81052,0.57748,0.09634,-0.01701,
4.46875,0.13842,0.07220,-0.19656,-0.12948,0.92988,0.32572,,,0.81052,0.57748,0.09635,-0.01702,
4.47656,0.06975,0.21539,-0.23146,-0.13770,0.92697,0.32718,,,0.81051,0.57749,0.09637,-0.01702,
4.48438,0.13842,0.21539,-0.33614,-0.13480,0.93958,0.33059,,,0.81051,0.57749,0.09640,-0.01703,
4.49219,0.31010,0.10799,-0.30124,-0.12706,0.94152,0.33399,,,0.81049,0.57751,0.09641,-0.01705,
4.50000,0.13842,0.21539,-0.44082,-0.13577,0.94104,0.33739,,,0.81049,0.57751,0.09644,-0.01707,
4.50781,0.17275,0.21539,-0.65017,-0.12803,0.93861,0.34225,,,0.81048,0.57752,0.09648,-0.01709,
4.51563,0.24142,0.00060,-0.65017,-0.12609,0.93570,0.33496,,,0.81047,0.57753,0.09651,-0.01713,
4.52344,0.41310,0.07220,-0.68507,-0.12658,0.93085,0.32864,,,0.81045,0.57755,0.09654,-0.01717,
4.53125,0.17275,0.07220,-0.65017,-0.13190,0.93231,0.32913,,,0.81044,0.57755,0.09657,-0.01720,
4.53906,0.17275,0.07220,-0.75485,-0.13238,0.92988,0.32621,,,0.81043,0.57756,0.09660,-0.01724,
4.54688,0.10408,0.25118,-0.54549,-0.13528,0.92600,0.32378,,,0.81043,0.57756,0.09663,-0.01726,
4.55469,0.34443,-0.03520,-0.58039,-0.13819,0.93619,0.32864,,,0.81041,0.57757,0.09665,-0.01730,
4.56250,0.34443,-0.03520,-0.68507,-0.13383,0.94298,0.33253,,,0.81040,0.57759,0.09668,-0.01734,
4.57031,0.20709,0.14379,-0.54549,-0.12222,0.93910,0.33788,,,0.81039,0.57760,0.09671,-0.01737,
4.57813,0.24142,0.07220,-0.68507,-0.12948,0.93473,0.33788,,,0.81038,0.57760,0.09674,-0.01740,
4.58594,0.27576,0.00060,-0.47571,-0.12900,0.93231,0.33447,,,0.81037,0.57762,0.09676,-0.01743,
4.59375,0.31010,-0.03520,-0.58039,-0.12803,0.93133,0.32038,,,0.81035,0.57763,0.09678,-0.01747,
4.60156,0.31010,0.00060,-0.71996,-0.13045,0.93376,0.32718,,,0.81034,0.57764,0.09681,-0.01751,
4.60938,0.17275,0.14379,-0.54549,-0.12755,0.93279,0.32718,,,0.81033,0.57765,0.09683,-0.01753,
4.61719,0.20709,0.07220,-0.71996,-0.12755,0.93279,0.33107,,,0.81032,0.57765,0.09687,-0.01757,
4.62500,0.31010,-0.07100,-0.78975,-0.13287,0.94249,0.32913,,,0.81031,0.57767,0.09689,-0.01762,
4.63281,0.27576,-0.03520,-0.82464,-0.12271,0.94492,0.33739,,,0.81030,0.57768,0.09692,-0.01767,
4.64063,0.17275,-0.07100,-0.92932,-0.13335,0.93328,0.33836,,,0.81029,0.57768,0.09696,-0.01773,
4.64844,0.20709,0.03640,-0.85953,-0.13141,0.93813,0.33739,,,0.81028,0.57769,0.09699,-0.01777,
4.65625,0.27576,-0.14259,-0.99911,-0.12803,0.93328,0.33156,,,0.81027,0.57769,0.09702,-0.01783,
4.66406,0.24142,-0.14259,-0.82464,-0.12948,0.92357,0.33010,,,0.81026,0.57770,0.09705,-0.01789,
4.67188,0.27576,0.07220,-0.92932,-0.13674,0.93036,0.32524,,,0.81025,0.57771,0.09709,-0.01794,
4.67969,0.34443,0.00060,-0.78975,-0.13577,0.93036,0.32621,,,0.81023,0.57772,0.09712,-0.01798,
4.68750,0.27576,-0.03520,-0.82464,-0.12464,0.93473,0.32232,,,0.81022,0.57773,0.09715,-0.01803,
4.69531,0.20709,0.07220,-0.82464,-0.13335,0.94007,0.32913,,,0.81021,0.57774,0.09718,-0.01808,
4.70313,0.20709,-0.14259,-0.75485,-0.12755,0.94152,0.33691,,,0.81020,0.57775,0.09721,-0.01813,
4.71094,0.27576,-0.03520,-0.68507,-0.13045,0.94395,0.33302,,,0.81019,0.57776,0.09723,-0.01817,
4.71875,0.27576,0.03640,-0.71996,-0.13190,0.93425,0.33253,,,0.81018,0.57777,0.09726,-0.01821,
4.72656,0.27576,-0.07100,-0.85953,-0.12658,0.92939,0.32475,,,0.81017,0.57778,0.09729,-0.01826,
4.73438,0.31010,0.00060,-0.85953,-0.13238,0.93085,0.32184,,,0.81016,0.57779,0.09732,-0.01831,
4.74219,0.17275,0.17959,-0.78975,-0.13093,0.93036,0.32329,,,0.81015,0.57779,0.09736,-0.01835,
4.75000,0.41310,-0.10679,-0.78975,-0.12900,0.93328,0.32670,,,0.81013,0.57781,0.09739,-0.01840,
4.75781,0.13842,0.00060,-0.99911,-0.13722,0.93667,0.33107,,,0.81012,0.57781,0.09743,-0.01845,
4.76563,0.17275,-0.14259,-0.82464,-0.13045,0.94104,0.33253,,,0.81012,0.57782,0.09745,-0.01850,
4.77344,0.06975,0.03640,-0.85953,-0.13045,0.93716,0.33302,,,0.81011,0.57781,0.09749,-0.01855,
4.78125,0.17275,0.03640,-0.75485,-0.13238,0.93619,0.34031,,,0.81011,0.57782,0.09752,-0.01859,
4.78906,0.13842,0.07220,-0.51060,-0.13141,0.93231,0.33204,,,0.81010,0.57782,0.09754,-0.01862,
4.79688,0.10408,0.10799,-0.44082,-0.13722,0.92891,0.32281,,,0.81009,0.57783,0.09757,-0.01864,
4.80469,0.17275,0.03640,-0.61528,-0.13577,0.93619,0.32524,,,0.81009,0.57783,0.09759,-0.01867,
4.81250,0.10408,0.07220,-0.54549,-0.13093,0.93619,0.32864,,,0.81008,0.57783,0.09762,-0.01870,
4.82031,0.10408,0.07220,-0.54549,-0.13093,0.93231,0.32816,,,0.81007,0.57784,0.09764,-0.01873,
4.82813,0.13842,0.25118,-0.65017,-0.13528,0.93522,0.33302,,,0.81007,0.57784,0.09768,-0.01876,
4.83594,0.10408,0.07220,-0.71996,-0.12464,0.93716,0.33788,,,0.81006,0.57784,0.09771,-0.01879,
4.84375,0.13842,0.17959,-0.65017,-0.12658,0.93716,0.33496,,,0.81005,0.57784,0.09775,-0.01882,
4.85156,0.13842,0.10799,-0.58039,-0.13190,0.94104,0.33545,,,0.81005,0.57785,0.09778,-0.01885,
4.85938,0.10408,0.03640,-0.65017,-0.13335,0.93279,0.33350,,,0.81004,0.57785,0.09781,-0.01889,
4.86719,0.13842,0.14379,-0.68507,-0.12996,0.93376,0.33010,,,0.81003,0.57785,0.09784,-0.01892,
4.87500,0.13842,0.10799,-0.68507,-0.12851,0.92794,0.32378,,,0.81003,0.57786,0.09787,-0.01895,
4.88281,0.13842,0.07220,-0.61528,-0.13141,0.92988,0.31649,,,0.81002,0.57786,0.09790,-0.01899,
4.89063,0.20709,0.10799,-0.65017,-0.13190,0.93182,0.32427,,,0.81001,0.57787,0.09793,-0.01902,
4.89844,-0.03326,0.17959,-0.65017,-0.13287,0.92939,0.33691,,,0.81001,0.57786,0.09797,-0.01905,
4.90625,0.37877,0.25118,-0.44082,-0.13915,0.93279,0.34322,,,0.80999,0.57788,0.09800,-0.01906,
4.91406,0.37877,0.07220,-0.30124,-0.12513,0.94540,0.33156,,,0.80998,0.57790,0.09801,-0.01908,
4.92188,-0.03326,0.10799,-0.33614,-0.13238,0.93958,0.33204,,,0.80998,0.57789,0.09803,-0.01910,
4.92969,-0.17060,0.39437,-0.23146,-0.13335,0.93570,0.32670,,,0.80998,0.57788,0.09806,-0.01909,
4.93750,0.17275,0.07220,-0.37103,-0.13093,0.92357,0.32816,,,0.80997,0.57789,0.09808,-0.01911,
4.94531,0.27576,0.10799,-0.44082,-0.12368,0.92600,0.31746,,,0.80996,0.57790,0.09811,-0.01913,
4.95313,0.31010,0.17959,-0.47571,-0.13480,0.93231,0.31941,,,0.80995,0.57792,0.09813,-0.01915,
4.96094,-0.13627,0.32278,-0.44082,-0.12803,0.93036,0.32718,,,0.80995,0.57791,0.09817,-0.01916,
4.96875,0.06975,0.17959,-0.65017,-0.12706,0.94055,0.33885,,,0.80995,0.57791,0.09820,-0.01919,
4.97656,0.00107,0.25118,-0.47571,-0.12755,0.94735,0.34031,,,0.80994,0.57790,0.09824,-0.01921,
4.98438,0.17275,0.17959,-0.68507,-0.12368,0.94492,0.34128,,,0.80993,0.57791,0.09827,-0.01924,
4.99219,0.13842,0.07220,-0.61528,-0.12706,0.93522,0.33788,,,0.80993,0.57791,0.09830,-0.01927,
5.00000,0.13842,0.00060,-0.61528,-0.12561,0.93231,0.32621,,,0.80992,0.57792,0.09833,-0.01931,
5.00781,0.17275,0.32278,-0.58039,-0.13577,0.93813,0.32670,1021.681,24.6,0.80991,0.57792,0.09837,-0.01933,
5.01563,0.13842,0.03640,-0.71996,-0.10481,0.91775,0.31649,,,0.80990,0.57793,0.09840,-0.01937,
5.02344,-0.06760,0.28698,-0.99911,-0.15608,0.93182,0.32086,,,0.80990,0.57792,0.09845,-0.01941,
5.03125,-0.06760,0.21539,-0.65017,-0.14786,0.93279,0.33059,,,0.80990,0.57791,0.09849,-0.01944,
5.03906,0.10408,0.03640,-0.47571,-0.13867,0.94104,0.33156,,,0.80990,0.57791,0.09851,-0.01946,
5.04688,0.24142,0.10799,-0.58039,-0.13577,0.93861,0.33447,,,0.80989,0.57792,0.09854,-0.01949,
5.05469,0.00107,0.21539,-0.54549,-0.13432,0.93279,0.33593,,,0.80989,0.57792,0.09857,-0.01951,
5.06250,0.13842,0.32278,-0.65017,-0.13335,0.93522,0.33788,,,0.80988,0.57792,0.09861,-0.01954,
5.07031,0.27576,0.07220,-0.37103,-0.12658,0.92988,0.32329,,,0.80987,0.57793,0.09863,-0.01956,
5.07813,0.20709,0.14379,-0.54549,-0.13190,0.93425,0.33010,,,0.80986,0.57794,0.09866,-0.01958,
5.08594,0.13842,0.00060,-0.54549,-0.13093,0.92503,0.33010,,,0.80985,0.57794,0.09868,-0.01962,
5.09375,0.27576,0.03640,-0.68507,-0.12609,0.93231,0.33350,,,0.80984,0.57796,0.09871,-0.01965,
5.10156,0.31010,0.03640,-0.78975,-0.13335,0.93764,0.33302,,,0.80982,0.57797,0.09874,-0.01970,
5.10938,0.10408,0.03640,-0.75485,-0.12948,0.94007,0.33447,,,0.80982,0.57797,0.09878,-0.01974,
5.11719,0.10408,0.03640,-0.75485,-0.13190,0.94443,0.33545,,,0.80981,0.57797,0.09881,-0.01978,
5.12500,0.13842,-0.03520,-0.75485,-0.13045,0.93279,0.33350,,,0.80981,0.57797,0.09883,-0.01982,
5.13281,0.20709,-0.03520,-0.78975,-0.13141,0.93522,0.32718,,,0.80980,0.57798,0.09886,-0.01987,
5.14063,0.17275,-0.10679,-0.58039,-0.13190,0.93279,0.32718,,,0.80979,0.57798,0.09888,-0.01991,
5.14844,0.06975,-0.03520,-0.71996,-0.13141,0.92939,0.32281,,,0.80979,0.57798,0.09891,-0.01995,
5.15625,0.13842,0.07220,-0.65017,-0.13238,0.92939,0.32427,,,0.80978,0.57798,0.09894,-0.01998,
5.16406,0.24142,0.00060,-0.61528,-0.13480,0.93570,0.32524,,,0.80977,0.57799,0.09896,-0.02002,
5.17188,0.24142,-0.03520,-0.61528,-0.12803,0.93813,0.33253,,,0.80976,0.57800,0.09898,-0.02005,
5.17969,0.24142,0.10799,-0.61528,-0.13190,0.93764,0.33204,,,0.80975,0.57801,0.09901,-0.02009,
5.18750,0.31010,-0.10679,-0.44082,-0.12851,0.93231,0.33593,,,0.80974,0.57803,0.09902,-0.02012,
5.19531,0.44744,0.00060,-0.44082,-0.13287,0.93861,0.33204,,,0.80972,0.57805,0.09904,-0.02014,
5.20313,0.27576,0.14379,-0.37103,-0.13045,0.93182,0.32329,,,0.80971,0.57806,0.09906,-0.02016,
5.21094,0.34443,0.00060,-0.33614,-0.13238,0.93473,0.32670,,,0.80969,0.57808,0.09907,-0.02018,
5.21875,0.17275,0.03640,-0.40592,-0.12174,0.93813,0.33059,,,0.80969,0.57808,0.09909,-0.02020,
5.22656,0.20709,-0.14259,-0.23146,-0.13141,0.93085,0.33010,,,0.80968,0.57809,0.09909,-0.02022,
5.23438,0.17275,-0.07100,-0.19656,-0.12658,0.93910,0.33447,,,0.80967,0.57810,0.09910,-0.02024,
5.24219,0.17275,0.07220,-0.30124,-0.12561,0.93958,0.33642,,,0.80966,0.57811,0.09911,-0.02025,
5.25000,0.31010,0.03640,-0.23146,-0.13045,0.94055,0.33982,,,0.80965,0.57813,0.09912,-0.02027,
5.25781,0.31010,0.03640,-0.23146,-0.12900,0.94152,0.33447,,,0.80964,0.57814,0.09913,-0.02028,
5.26563,0.24142,0.00060,-0.33614,-0.12851,0.93279,0.33496,,,0.80963,0.57815,0.09915,-0.02030,
5.27344,0.20709,0.03640,-0.16167,-0.12948,0.92745,0.32378,,,0.80962,0.57816,0.09915,-0.02031,
5.28125,0.27576,0.10799,-0.09188,-0.13093,0.91969,0.32816,,,0.80961,0.57818,0.09916,-0.02031,
5.28906,0.20709,0.14379,-0.09188,-0.13287,0.93036,0.32086,,,0.80960,0.57819,0.09917,-0.02031,
5.29688,0.27576,0.07220,-0.12678,-0.12803,0.93619,0.32086,,,0.80959,0.57820,0.09918,-0.02032,
5.30469,0.20709,0.10799,-0.23146,-0.13770,0.94443,0.33156,,,0.80958,0.57821,0.09920,-0.02033,
5.31250,0.03541,0.10799,-0.12678,-0.12755,0.93958,0.34079,,,0.80958,0.57821,0.09921,-0.02033,
5.32031,0.06975,0.14379,-0.23146,-0.12851,0.94395,0.33982,,,0.80957,0.57822,0.09923,-0.02034,
5.32813,0.17275,0.14379,-0.33614,-0.13335,0.94055,0.33642,,,0.80956,0.57822,0.09925,-0.02035,
5.33594,0.10408,0.10799,-0.47571,-0.13190,0.93133,0.32718,,,0.80956,0.57823,0.09927,-0.02038,
5.34375,0.13842,0.14379,-0.47571,-0.13383,0.93279,0.32281,,,0.80955,0.57823,0.09930,-0.02040,
5.35156,0.20709,0.07220,-0.26635,-0.12948,0.93231,0.32184,,,0.80954,0.57824,0.09931,-0.02041,
5.35938,0.24142,0.03640,-0.30124,-0.12851,0.93231,0.33156,,,0.80953,0.57825,0.09932,-0.02043,
5.36719,0.24142,0.21539,-0.47571,-0.13964,0.94055,0.33107,,,0.80952,0.57826,0.09936,-0.02045,
5.37500,0.13842,-0.03520,-0.61528,-0.12803,0.93910,0.33399,,,0.80951,0.57827,0.09938,-0.02048,
5.38281,0.20709,0.10799,-0.61528,-0.12609,0.94492,0.33496,,,0.80950,0.57827,0.09941,-0.02051,
5.39063,0.20709,0.10799,-0.58039,-0.12319,0.94201,0.33691,,,0.80949,0.57828,0.09944,-0.02054,
5.39844,0.27576,-0.07100,-0.71996,-0.12851,0.93425,0.33593,,,0.80948,0.57829,0.09946,-0.02059,
5.40625,0.31010,0.00060,-0.75485,-0.12803,0.93133,0.32670,,,0.80947,0.57830,0.09949,-0.02063,
5.41406,0.17275,0.00060,-0.75485,-0.12174,0.93473,0.32670,,,0.80946,0.57831,0.09952,-0.02067,
5.42188,0.13842,0.03640,-0.85953,-0.13093,0.92260,0.32378,,,0.80945,0.57831,0.09955,-0.02072,
5.42969,0.24142,-0.03520,-0.89443,-0.12900,0.93133,0.32086,,,0.80944,0.57832,0.09959,-0.02077,
5.43750,0.06975,0.03640,-0.89443,-0.13287,0.93473,0.32864,,,0.80944,0.57832,0.09962,-0.02082,
5.44531,0.00107,0.00060,-0.89443,-0.12609,0.94104,0.33107,,,0.80944,0.57831,0.09966,-0.02087,
5.45313,-0.10193,0.17959,-0.85953,-0.13480,0.94298,0.33739,,,0.80944,0.57830,0.09970,-0.02091,
5.46094,0.17275,0.00060,-0.89443,-0.13093,0.94395,0.33447,,,0.80943,0.57830,0.09974,-0.02096,
5.46875,0.10408,0.17959,-0.65017,-0.13141,0.93425,0.33642,,,0.80943,0.57830,0.09977,-0.02099,
5.47656,0.06975,0.10799,-0.68507,-0.13238,0.93522,0.33253,,,0.80942,0.57830,0.09981,-0.02102,
5.48438,0.10408,0.25118,-0.61528,-0.12900,0.93279,0.32524,,,0.80941,0.57830,0.09984,-0.02105,
5.49219,0.06975,0.17959,-0.61528,-0.13141,0.92988,0.33204,,,0.80941,0.57830,0.09988,-0.02108,
5.50000,0.00107,0.25118,-0.61528,-0.12658,0.93133,0.33302,,,0.80941,0.57830,0.09992,-0.02110,
5.50781,0.10408,0.07220,-0.65017,-0.12077,0.93910,0.33107,,,0.80940,0.57830,0.09995,-0.02113,
5.51563,0.13842,-0.10679,-0.75485,-0.12851,0.93619,0.33204,,,0.80940,0.57830,0.09997,-0.02118,
5.52344,0.10408,0.07220,-0.61528,-0.13238,0.93764,0.34128,,,0.80939,0.57831,0.10000,-0.02121,
5.53125,0.06975,0.03640,-0.71996,-0.12900,0.93328,0.32961,,,0.80939,0.57831,0.10003,-0.02125,
5.53906,0.10408,0.03640,-0.61528,-0.12755,0.93619,0.33399,,,0.80938,0.57831,0.10005,-0.02128,
5.54688,0.10408,0.14379,-0.65017,-0.12561,0.92454,0.32913,,,0.80937,0.57831,0.10009,-0.02131,
5.55469,0.06975,0.14379,-0.54549,-0.13238,0.92600,0.32767,,,0.80937,0.57831,0.10012,-0.02134,
5.56250,0.03541,0.21539,-0.51060,-0.13045,0.92648,0.32378,,,0.80937,0.57831,0.10015,-0.02136,
5.57031,0.10408,0.21539,-0.44082,-0.13722,0.93910,0.32961,,,0.80936,0.57831,0.10018,-0.02138,
5.57813,0.17275,0.17959,-0.40592,-0.13093,0.94249,0.33447,,,0.80935,0.57832,0.10020,-0.02139,
5.58594,0.20709,0.10799,-0.30124,-0.13045,0.93231,0.33059,,,0.80934,0.57833,0.10022,-0.02141,
5.59375,0.20709,0.14379,-0.23146,-0.13093,0.94007,0.33496,,,0.80933,0.57834,0.10024,-0.02141,
5.60156,0.27576,0.10799,-0.30124,-0.13238,0.93667,0.34128,,,0.80932,0.57835,0.10025,-0.02143,
5.60938,0.17275,0.10799,-0.37103,-0.13238,0.93619,0.33350,,,0.80931,0.57836,0.10027,-0.02145,
5.61719,0.37877,0.00060,-0.40592,-0.13335,0.93958,0.32329,,,0.80930,0.57838,0.10029,-0.02147,
5.62500,0.17275,0.14379,-0.40592,-0.13045,0.92794,0.32281,,,0.80929,0.57838,0.10031,-0.02149,
5.63281,0.41310,0.03640,-0.33614,-0.12851,0.92745,0.32621,,,0.80927,0.57840,0.10033,-0.02151,
5.64063,0.31010,0.07220,-0.37103,-0.12658,0.93182,0.33204,,,0.80926,0.57842,0.10035,-0.02153,
5.64844,0.17275,0.14379,-0.26635,-0.12609,0.92697,0.33593,,,0.80925,0.57843,0.10036,-0.02154,
5.65625,0.41310,-0.03520,-0.44082,-0.12755,0.94055,0.33545,,,0.80923,0.57845,0.10038,-0.02157,
5.66406,0.44744,-0.03520,-0.44082,-0.13480,0.94346,0.33253,,,0.80922,0.57847,0.10039,-0.02160,
5.67188,0.44744,-0.07100,-0.51060,-0.12706,0.94201,0.33302,,,0.80920,0.57849,0.10041,-0.02163,
5.67969,0.44744,-0.17839,-0.58039,-0.13045,0.93182,0.32718,,,0.80918,0.57851,0.10042,-0.02167,
5.68750,0.41310,-0.03520,-0.85953,-0.12948,0.93085,0.32864,,,0.80916,0.57853,0.10045,-0.02172,
5.69531,0.34443,-0.10679,-0.78975,-0.13432,0.92891,0.31989,,,0.80915,0.57854,0.10048,-0.02177,
5.70313,0.34443,0.03640,-0.82464,-0.13045,0.92842,0.31892,,,0.80913,0.57855,0.10051,-0.02182,
5.71094,0.48177,-0.10679,-0.82464,-0.13335,0.93813,0.32572,,,0.80912,0.57857,0.10054,-0.02187,
5.71875,0.44744,-0.10679,-0.75485,-0.12077,0.94977,0.33934,,,0.80910,0.57859,0.10056,-0.02192,
5.72656,0.55045,-0.28578,-0.99911,-0.12416,0.94443,0.34517,,,0.80908,0.57862,0.10058,-0.02199,
5.73438,0.68779,-0.28578,-1.13868,-0.12561,0.94152,0.34128,,,0.80905,0.57865,0.10061,-0.02207,
5.74219,0.68779,-0.21419,-1.24336,-0.12900,0.93716,0.33593,,,0.80902,0.57867,0.10065,-0.02215,
5.75000,0.79080,-0.32158,-1.20847,-0.12609,0.93133,0.32427,,,0.80899,0.57871,0.10068,-0.02224,
5.75781,0.82513,-0.46477,-1.17357,-0.12126,0.92988,0.32864,,,0.80896,0.57875,0.10070,-0.02233,
5.76563,0.79080,-0.46477,-1.34804,-0.13335,0.93036,0.32232,,,0.80893,0.57878,0.10072,-0.02242,
5.77344,0.68779,-0.42897,-1.41782,-0.12609,0.92891,0.32864,,,0.80890,0.57881,0.10075,-0.02252,
5.78125,0.79080,-0.64376,-0.75485,-0.13770,0.92163,0.34760,,,0.80888,0.57884,0.10075,-0.02260,
5.78906,1.06548,-0.57216,-1.52250,-0.13819,0.93376,0.33545,,,0.80883,0.57889,0.10077,-0.02271,
5.79688,1.16849,-0.93014,-1.59229,-0.10626,0.93813,0.32281,,,0.80879,0.57894,0.10078,-0.02284,
5.80469,0.89380,-0.78695,-2.42973,-0.12900,0.94007,0.33545,,,0.80876,0.57898,0.10083,-0.02301,
5.81250,0.68779,-0.89434,-2.67398,-0.11787,0.93182,0.33350,,,0.80873,0.57899,0.10089,-0.02320,
5.82031,0.72212,-0.89434,-3.33695,-0.12464,0.93328,0.32038,,,0.80871,0.57901,0.10097,-0.02343,
5.82813,0.65345,-1.00174,-4.10460,-0.12222,0.93667,0.32038,,,0.80868,0.57901,0.10108,-0.02370,
5.83594,0.51611,-1.00174,-4.52332,-0.14447,0.92988,0.32524,,,0.80866,0.57901,0.10120,-0.02399,
5.84375,0.55045,-1.10913,-4.41864,-0.12513,0.93473,0.32621,,,0.80864,0.57901,0.10131,-0.02428,
5.85156,0.44744,-1.28812,-5.15140,-0.12174,0.94249,0.32572,,,0.80862,0.57900,0.10144,-0.02462,
5.85938,0.44744,-1.21652,-5.74458,-0.11836,0.94686,0.33593,,,0.80860,0.57898,0.10160,-0.02498,
5.86719,0.17275,-1.32392,-6.79137,-0.11836,0.93376,0.34468,,,0.80859,0.57894,0.10180,-0.02541,
5.87500,0.13842,-1.50291,-7.83817,-0.15802,0.93133,0.33496,,,0.80858,0.57889,0.10202,-0.02590,
5.88281,0.24142,-1.93248,-7.62881,-0.12851,0.93910,0.32475,,,0.80857,0.57885,0.10222,-0.02640,
5.89063,0.06975,-1.46711,-7.14031,-0.15076,0.92745,0.32135,,,0.80857,0.57880,0.10242,-0.02686,
5.89844,-0.37662,-0.82275,-6.09351,-0.14351,0.92697,0.32232,,,0.80858,0.57873,0.10261,-0.02722,
5.90625,-0.58263,-0.53637,-5.74458,-0.17156,0.92454,0.32670,,,0.80859,0.57866,0.10281,-0.02755,
5.91406,-0.03326,-0.42897,-3.75567,-0.16285,0.92260,0.33010,,,0.80859,0.57863,0.10293,-0.02778,
5.92188,0.31010,0.00060,-1.97612,-0.14883,0.92939,0.33593,,,0.80858,0.57863,0.10301,-0.02789,
5.92969,0.51611,0.21539,-1.24336,-0.15076,0.92745,0.33593,,,0.80855,0.57865,0.10307,-0.02795,
5.93750,0.75646,0.71655,-0.12678,-0.15028,0.94104,0.33691,,,0.80852,0.57870,0.10311,-0.02794,
5.94531,0.61912,1.28932,0.98981,-0.14834,0.93861,0.32816,,,0.80848,0.57874,0.10315,-0.02784,
5.95313,0.44744,1.61150,1.51320,-0.15318,0.93716,0.32961,,,0.80846,0.57878,0.10317,-0.02769,
5.96094,0.13842,2.07687,2.56000,-0.14834,0.91775,0.32475,,,0.80844,0.57881,0.10319,-0.02747,
5.96875,0.03541,2.57804,3.36254,-0.17446,0.92454,0.33156,,,0.80843,0.57884,0.10320,-0.02718,
5.97656,-0.20494,2.86442,5.42124,-0.15705,0.92066,0.32378,,,0.80843,0.57887,0.10314,-0.02677,
5.98438,-0.34228,3.29399,7.34036,-0.16092,0.92648,0.31892,,,0.80843,0.57891,0.10303,-0.02623,
5.99219,-0.51396,3.65197,8.24759,-0.17253,0.92988,0.33010,,,0.80844,0.57894,0.10291,-0.02563,
6.00000,-0.68564,4.08154,10.86458,-0.15753,0.93958,0.33496,,,0.80846,0.57899,0.10271,-0.02487,
6.00781,-0.78865,4.61851,13.06285,-0.16334,0.94832,0.33059,1021.618,24.6,0.80848,0.57905,0.10245,-0.02396,
6.01563,-1.20068,5.19127,14.14454,-0.14931,0.94686,0.33691,,,0.80851,0.57909,0.10218,-0.02296,
6.02344,-1.64704,5.51345,15.71473,-0.11690,0.94104,0.32670,,,0.80856,0.57911,0.10186,-0.02187,
6.03125,-2.12774,5.76404,15.05176,-0.09369,0.94395,0.33253,,,0.80863,0.57911,0.10159,-0.02080,
6.03906,-2.09340,5.62085,14.21432,-0.09320,0.93376,0.32572,,,0.80869,0.57910,0.10134,-0.01978,
6.04688,-1.92173,5.11968,11.38797,-0.08450,0.93376,0.32281,,,0.80875,0.57908,0.10118,-0.01893,
6.05469,-1.81872,4.51112,9.74799,-0.08643,0.95365,0.33302,,,0.80880,0.57905,0.10104,-0.01821,
6.06250,-1.57837,3.58037,6.50293,-0.07241,0.94492,0.33642,,,0.80885,0.57901,0.10098,-0.01769,
6.07031,-0.99466,2.32745,3.25786,-0.06854,0.94298,0.34274,,,0.80887,0.57898,0.10098,-0.01742,
6.07813,-0.58263,1.93368,1.40852,-0.07337,0.95365,0.34760,,,0.80889,0.57896,0.10104,-0.01726,
6.08594,0.13842,0.57336,-2.42973,-0.07676,0.95268,0.33885,,,0.80887,0.57895,0.10116,-0.01737,
6.09375,0.58478,-0.32158,-5.39565,-0.10626,0.95123,0.33496,,,0.80885,0.57895,0.10136,-0.01768,
6.10156,0.82513,-0.75115,-5.95394,-0.10578,0.93764,0.34177,,,0.80881,0.57895,0.10155,-0.01805,
6.10938,1.23716,-1.21652,-6.93095,-0.12077,0.93764,0.32086,,,0.80876,0.57897,0.10176,-0.01849,
6.11719,1.06548,-1.28812,-7.21009,-0.12513,0.94492,0.32961,,,0.80872,0.57898,0.10197,-0.01894,
6.12500,0.79080,-1.21652,-7.27988,-0.12609,0.95220,0.32135,,,0.80869,0.57897,0.10219,-0.01940,
6.13281,0.31010,-0.78695,-7.00073,-0.13915,0.94540,0.32718,,,0.80867,0.57894,0.10242,-0.01982,
6.14063,0.10408,-0.46477,-5.84926,-0.14834,0.95414,0.33447,,,0.80866,0.57890,0.10262,-0.02016,
6.14844,-0.37662,-0.28578,-5.15140,-0.15028,0.94540,0.33059,,,0.80867,0.57884,0.10281,-0.02045,
6.15625,-1.13200,0.43017,-3.30206,-0.15125,0.92648,0.32572,,,0.80871,0.57876,0.10297,-0.02061,
6.16406,-1.09767,0.64496,-2.35994,-0.15608,0.93473,0.32427,,,0.80874,0.57868,0.10310,-0.02070,
6.17188,-1.33802,0.93134,-0.23146,-0.13867,0.92891,0.32232,,,0.80879,0.57861,0.10316,-0.02067,
6.17969,-1.85305,1.21772,0.39662,-0.14109,0.92551,0.31989,,,0.80886,0.57851,0.10321,-0.02059,
6.18750,-1.92173,1.18193,0.74555,-0.15028,0.91921,0.32718,,,0.80892,0.57841,0.10325,-0.02049,
6.19531,-1.92173,1.36091,2.00171,-0.15125,0.92163,0.33253,,,0.80899,0.57832,0.10325,-0.02031,
6.20313,-2.23075,1.46831,3.32765,-0.12561,0.91921,0.33836,,,0.80908,0.57822,0.10320,-0.02005,
6.21094,-2.19641,1.46831,3.36254,-0.12464,0.92066,0.33836,,,0.80916,0.57813,0.10316,-0.01979,
6.21875,-2.33375,1.46831,2.45532,-0.10481,0.93522,0.33885,,,0.80924,0.57802,0.10314,-0.01958,
6.22656,-3.15781,1.61150,0.64087,-0.10530,0.93133,0.33836,,,0.80936,0.57785,0.10321,-0.01946,
6.23438,-3.15781,1.28932,-0.30124,-0.10094,0.93328,0.33691,,,0.80947,0.57768,0.10330,-0.01941,
6.24219,-3.67285,1.21772,-2.70887,-0.10384,0.92600,0.33399,,,0.80960,0.57746,0.10348,-0.01948,
6.25000,-3.81019,1.18193,-3.75567,-0.11594,0.91726,0.33204,,,0.80974,0.57722,0.10369,-0.01961,
6.25781,-3.94753,0.93134,-5.18629,-0.13480,0.92212,0.34128,,,0.80988,0.57697,0.10395,-0.01984,
6.26563,-3.53550,0.46597,-5.29097,-0.14786,0.92406,0.33691,,,0.81001,0.57674,0.10419,-0.02009,
6.27344,-3.46683,0.21539,-4.87225,-0.14593,0.91872,0.34420,,,0.81014,0.57651,0.10440,-0.02032,
6.28125,-3.43250,0.03640,-3.82545,-0.14883,0.92745,0.34663,,,0.81027,0.57629,0.10456,-0.02051,
6.28906,-2.88313,-0.35738,-2.74377,-0.13770,0.93716,0.34711,,,0.81038,0.57611,0.10465,-0.02065,
6.29688,-2.50543,-0.42897,-2.49951,-0.13383,0.94055,0.34079,,,0.81048,0.57596,0.10473,-0.02079,
6.30469,-2.09340,-0.57216,-2.11569,-0.12706,0.94249,0.33593,,,0.81056,0.57583,0.10478,-0.02091,
6.31250,-1.71571,-0.78695,-2.11569,-0.11690,0.94104,0.33253,,,0.81063,0.57571,0.10482,-0.02105,
6.32031,-1.50970,-0.78695,-2.35994,-0.11013,0.94007,0.33836,,,0.81069,0.57561,0.10488,-0.02120,
6.32813,-1.33802,-0.82275,-3.23227,-0.11110,0.94638,0.33934,,,0.81075,0.57552,0.10496,-0.02140,
6.33594,-1.44103,-0.85855,-3.96503,-0.11255,0.94201,0.33836,,,0.81080,0.57541,0.10507,-0.02164,
6.34375,-2.23075,-0.89434,-4.80246,-0.13867,0.94395,0.34225,,,0.81089,0.57525,0.10521,-0.02193,
6.35156,-2.26508,-0.67956,-4.83736,-0.12900,0.93958,0.34857,,,0.81098,0.57509,0.10537,-0.02220,
6.35938,-2.16208,-0.50057,-4.80246,-0.13141,0.94638,0.34031,,,0.81106,0.57493,0.10553,-0.02247,
6.36719,-2.53977,0.10799,-4.62800,-0.13383,0.93764,0.33691,,,0.81115,0.57476,0.10572,-0.02271,
6.37500,-3.08914,1.14613,-3.93013,-0.14254,0.93425,0.32913,,,0.81125,0.57456,0.10594,-0.02286,
6.38281,-2.98613,1.64730,-3.58120,-0.13528,0.93716,0.33302,,,0.81135,0.57437,0.10618,-0.02297,
6.39063,-3.29515,2.64963,-3.65099,-0.12851,0.94007,0.32718,,,0.81146,0.57417,0.10647,-0.02304,
6.39844,-3.46683,3.79516,-3.75567,-0.14254,0.93764,0.34420,,,0.81156,0.57395,0.10684,-0.02308,
6.40625,-3.60418,4.04575,-3.82545,-0.12029,0.94492,0.35100,,,0.81167,0.57373,0.10722,-0.02310,
6.41406,-3.84453,4.58271,-4.03481,-0.13770,0.94152,0.35100,,,0.81178,0.57350,0.10763,-0.02312,
6.42188,-3.63851,4.83330,-3.72077,-0.15463,0.92939,0.35538,,,0.81188,0.57328,0.10805,-0.02311,
6.42969,-3.43250,4.86909,-3.30206,-0.15125,0.92260,0.34760,,,0.81197,0.57307,0.10846,-0.02308,
6.43750,-2.84879,4.54691,-2.42973,-0.14834,0.92648,0.34177,,,0.81204,0.57290,0.10881,-0.02301,
6.44531,-2.71145,4.40372,-2.01101,-0.15415,0.92260,0.34371,,,0.81211,0.57274,0.10913,-0.02293,
6.45313,-1.99040,4.04575,-0.71996,-0.13141,0.92115,0.35295,,,0.81216,0.57263,0.10939,-0.02280,
6.46094,-0.44529,3.54458,-0.33614,-0.10481,0.95268,0.35197,,,0.81215,0.57261,0.10960,-0.02268,
6.46875,0.17275,3.00761,-1.17357,-0.06515,0.96481,0.35538,,,0.81212,0.57262,0.10981,-0.02263,
6.47656,2.78227,1.96948,-5.67479,-0.02645,1.00120,0.35635,,,0.81199,0.57273,0.11014,-0.02288,
6.48438,6.00982,-0.71536,-15.61935,0.06980,1.03371,0.34565,,,0.81173,0.57295,0.11070,-0.02382,
6.49219,7.89829,-2.07567,-23.40053,0.11381,1.07834,0.36607,,,0.81140,0.57320,0.11148,-0.02526,
6.50000,9.23738,-0.71536,-47.58151,0.32083,1.18508,0.40787,,,0.81096,0.57335,0.11328,-0.02799,
6.50781,5.35744,15.35783,-83.06787,0.32180,1.33209,0.47350,,,0.81046,0.57302,0.11737,-0.03202,
6.51563,7.69227,32.68394,-117.50745,0.66667,2.10255,0.51870,,,0.80961,0.57256,0.12374,-0.03729,
6.52344,-19.26126,71.84668,-167.64895,0.52737,1.38303,0.46086,,,0.80927,0.57022,0.13429,-0.04358,
6.53125,-24.78931,76.57198,-191.79503,0.21490,1.21759,0.39135,,,0.80888,0.56727,0.14603,-0.05095,
6.53906,-24.51462,83.30195,-228.88649,-0.64993,1.67365,0.57315,,,0.80809,0.56385,0.15954,-0.06010,
6.54688,-35.91408,67.40775,-176.51182,0.18153,1.66152,0.49148,,,0.80795,0.56018,0.17017,-0.06683,
6.55469,-46.11178,74.71049,-149.57428,0.30680,1.45581,0.44919,,,0.80810,0.55620,0.18019,-0.07168,
6.56250,-54.59270,86.16577,-129.02220,0.40403,1.56497,0.42392,,,0.80843,0.55200,0.19008,-0.07484,
6.57031,-61.90621,88.56422,-99.08384,0.11962,1.11958,0.08657,,,0.80907,0.54773,0.19900,-0.07616,
6.57813,-57.47690,72.06146,-71.76248,0.11865,1.07058,0.14636,,,0.80984,0.54394,0.20594,-0.07665,
6.58594,-45.15038,44.64039,1.40852,0.32905,0.84109,0.00636,,,0.81089,0.54170,0.20859,-0.07428,
6.59375,-24.13693,25.27381,10.44586,0.30439,1.01721,0.04719,,,0.81147,0.54064,0.20972,-0.07242,
6.60156,-19.98231,17.75628,2.80425,0.34695,1.11036,0.07636,,,0.81197,0.53966,0.21070,-0.07133,
6.60938,-21.14972,5.97882,-3.12759,0.40499,1.03516,0.05691,,,0.81264,0.53847,0.21125,-0.07098,
6.61719,-22.14546,0.35858,4.68848,0.40644,1.03177,0.04039,,,0.81347,0.53731,0.21120,-0.07038,
6.62500,-26.05973,-11.63367,32.32388,0.34308,0.94589,-0.01649,,,0.81474,0.53628,0.20949,-0.06864,
6.63281,-25.81938,-24.52086,57.69123,0.19072,0.81732,-0.07190,,,0.81630,0.53555,0.20614,-0.06596,
6.64063,-23.69057,-31.32243,64.94901,0.14380,0.74454,-0.10009,,,0.81789,0.53499,0.20213,-0.06316,
6.64844,-14.69461,-43.49366,70.56681,0.09737,0.66449,-0.12829,,,0.81931,0.53495,0.19719,-0.06060,
6.65625,-3.77585,-53.30224,74.82378,0.06303,0.65042,-0.15842,,,0.82046,0.53552,0.19149,-0.05832,
6.66406,1.20282,-57.27579,79.04586,0.01659,0.64265,-0.19002,,,0.82146,0.53638,0.18539,-0.05600,
6.67188,10.57647,-65.58087,88.99041,-0.03419,0.69311,-0.18176,,,0.82222,0.53783,0.17842,-0.05355,
6.67969,17.06592,-72.16766,93.52653,-0.09611,0.70282,-0.18273,,,0.82278,0.53964,0.17088,-0.05115,
6.68750,19.91579,-74.99568,94.25928,-0.10771,0.71592,-0.17933,,,0.82322,0.54158,0.16313,-0.04886,
6.69531,24.31076,-78.86183,96.63202,-0.15028,0.72319,-0.16815,,,0.82349,0.54374,0.15505,-0.04661,
6.70313,28.29370,-81.97624,102.00557,-0.21896,0.72611,-0.13606,,,0.82360,0.54612,0.14657,-0.04422,
6.71094,29.80447,-83.40815,104.16895,-0.25379,0.73338,-0.12148,,,0.82360,0.54856,0.13791,-0.04178,
6.71875,32.68867,-85.62761,107.44891,-0.30893,0.76589,-0.10301,,,0.82345,0.55114,0.12899,-0.03925,
6.72656,34.33678,-86.37936,108.04209,-0.32924,0.77850,-0.09766,,,0.82317,0.55376,0.11998,-0.03673,
6.73438,38.21672,-86.20037,106.47190,-0.35778,0.79209,-0.10641,,,0.82266,0.55653,0.11102,-0.03432,
6.74219,45.01519,-83.90932,101.69153,-0.39647,0.73387,-0.12343,,,0.82179,0.55961,0.10235,-0.03214,
6.75000,50.92093,-82.40581,99.03965,-0.40131,0.71058,-0.13169,,,0.82060,0.56295,0.09384,-0.03009,
6.75781,67.19606,-78.03849,95.27119,-0.40663,0.74357,-0.13704,,,0.81868,0.56713,0.08567,-0.02818,
6.76563,84.19223,-70.91473,92.30527,-0.38825,0.80567,-0.11370,,,0.81597,0.57220,0.07798,-0.02626,
6.77344,91.95210,-65.33029,90.35125,-0.37181,0.82896,-0.08648,,,0.81285,0.57766,0.07066,-0.02428,
6.78125,106.20142,-50.68901,84.52409,-0.35149,0.90077,-0.01940,,,0.80902,0.58384,0.06434,-0.02210,
6.78906,116.33046,-31.53721,75.45186,-0.31715,0.99538,0.05011,,,0.80460,0.59051,0.05942,-0.01970,
6.79688,119.69536,-20.61890,69.69448,-0.30603,1.04001,0.08511,,,0.79992,0.59730,0.05532,-0.01719,
6.80469,123.47228,1.96948,58.17973,-0.28329,1.08659,0.12545,,,0.79492,0.60423,0.05291,-0.01440,
6.81250,124.77704,13.53215,52.59682,-0.27313,1.08271,0.14538,,,0.78975,0.61117,0.05135,-0.01145,
6.82031,127.18054,34.43803,45.09479,-0.33843,1.16082,0.18719,,,0.78433,0.61818,0.05123,-0.00803,
6.82813,126.59683,49.50888,41.46590,-0.37906,1.19284,0.21878,,,0.77880,0.62509,0.05206,-0.00417,
6.83594,125.94445,55.48711,38.70934,-0.40470,1.21468,0.22948,,,0.77321,0.63190,0.05331,-0.00020,
6.84375,123.19760,62.93304,31.83538,-0.43469,1.25737,0.27080,,,0.76764,0.63848,0.05526,0.00375,
6.85156,118.42493,66.79919,23.98441,-0.41921,1.27484,0.30774,,,0.76220,0.64472,0.05774,0.00746,
6.85938,115.74675,67.58674,21.05339,-0.40857,1.29958,0.33302,,,0.75680,0.65076,0.06038,0.01107,
6.86719,108.57059,67.40775,15.92409,-0.39067,1.30444,0.39281,,,0.75166,0.65635,0.06323,0.01443,
6.87500,100.26134,65.51047,12.05094,-0.37471,1.27435,0.45551,,,0.74686,0.66145,0.06615,0.01755,
6.88281,96.34707,63.72059,10.55054,-0.36504,1.25252,0.48662,,,0.74219,0.66631,0.06903,0.02052,
6.89063,89.30825,59.13848,7.72419,-0.36504,1.18460,0.56002,,,0.73783,0.67076,0.07179,0.02318,
6.89844,84.08923,53.66142,5.24677,-0.36310,1.10406,0.61495,,,0.73369,0.67492,0.07439,0.02549,
6.90625,82.85314,50.01005,5.66549,-0.39406,1.07252,0.63780,,,0.72960,0.67899,0.07677,0.02765,
6.91406,81.61705,40.23727,6.95654,-0.41485,1.04487,0.68446,,,0.72559,0.68299,0.07860,0.02943,
6.92188,80.93034,34.33064,6.01442,-0.39599,1.03807,0.70779,,,0.72161,0.68695,0.08018,0.03089,
6.92969,76.77572,23.34073,0.88513,-0.28136,1.07980,0.76758,,,0.71788,0.69067,0.08145,0.03161,
6.93750,67.84844,14.17651,-5.60501,-0.20880,1.14287,0.80987,,,0.71461,0.69392,0.08255,0.03162,
6.94531,61.59934,9.52280,-5.74458,-0.18946,1.13074,0.81376,,,0.71165,0.69686,0.08342,0.03145,
6.95313,48.68911,-0.39318,1.51320,-0.17785,1.11231,0.80842,,,0.70933,0.69922,0.08343,0.03122,
6.96094,35.36685,-9.95117,11.77180,-0.22525,1.09193,0.79286,,,0.70768,0.70102,0.08247,0.03112,
6.96875,28.49971,-14.35430,14.77261,-0.24121,1.06670,0.77974,,,0.70636,0.70250,0.08113,0.03098,
6.97656,14.97144,-21.65704,13.90028,-0.29442,1.05797,0.76661,,,0.70574,0.70334,0.07945,0.03053,
6.98438,0.75646,-27.49207,7.16590,-0.32247,1.06912,0.75738,,,0.70584,0.70347,0.07779,0.02955,
6.99219,-6.72872,-29.81892,3.22297,-0.32441,1.07883,0.74960,,,0.70631,0.70322,0.07618,0.02831,
7.00000,-21.87077,-33.61348,-4.13949,-0.29925,1.06039,0.73064,,,0.70754,0.70221,0.07472,0.02662,
7.00781,-29.18428,-34.79481,-7.48924,-0.26781,1.03613,0.71411,1021.636,24.6,0.70913,0.70082,0.07335,0.02474,
7.01563,-41.68248,-35.36757,-12.13003,-0.18607,0.92648,0.69273,,,0.71131,0.69880,0.07215,0.02267,
7.02344,-46.93584,-33.82827,-11.46706,-0.11981,0.79063,0.66453,,,0.71373,0.69651,0.07098,0.02073,
7.03125,-46.55815,-32.64694,-9.02454,-0.09901,0.74551,0.65335,,,0.71610,0.69424,0.06975,0.01897,
7.03906,-42.19751,-29.92632,-2.91823,-0.06370,0.69602,0.65287,,,0.71825,0.69220,0.06837,0.01761,
7.04688,-36.36044,-26.20335,1.19916,-0.04242,0.69214,0.65092,,,0.72008,0.69045,0.06699,0.01660,
7.05469,-33.40757,-23.80490,1.09448,-0.02791,0.69408,0.65141,,,0.72176,0.68884,0.06573,0.01569,
7.06250,-28.80659,-18.50683,-3.19738,0.00305,0.74891,0.64946,,,0.72320,0.68742,0.06494,0.01479,
7.07031,-28.08554,-13.24457,-7.83817,0.02191,0.81877,0.64801,,,0.72458,0.68601,0.06463,0.01391,
7.07813,-29.25295,-11.13250,-8.29178,0.02385,0.85322,0.64655,,,0.72600,0.68454,0.06444,0.01311,
7.08594,-33.78526,-7.26634,-7.03563,0.03497,0.87991,0.63196,,,0.72762,0.68284,0.06437,0.01257,
7.09375,-36.53212,-5.33326,-6.54712,0.04320,0.89301,0.62905,,,0.72935,0.68100,0.06438,0.01215,
7.10156,-42.16318,-1.35971,-6.51223,0.02046,0.91193,0.61301,,,0.73131,0.67887,0.06458,0.01195,
7.10938,-47.65689,1.75469,-6.44244,0.00789,0.87505,0.59016,,,0.73351,0.67646,0.06493,0.01192,
7.11719,-49.13333,2.86442,-6.44244,0.00740,0.84546,0.58092,,,0.73577,0.67397,0.06533,0.01195,
7.12500,-49.47668,5.22707,-6.05862,-0.00421,0.82266,0.55711,,,0.73802,0.67145,0.06583,0.01211,
7.13281,-47.51955,6.69478,-4.27907,-0.00130,0.77559,0.52843,,,0.74017,0.66903,0.06632,0.01241,
7.14063,-45.69975,7.16015,-3.37184,0.00015,0.77705,0.52308,,,0.74222,0.66670,0.06680,0.01277,
7.14844,-42.12884,8.30568,-1.55740,-0.12464,1.48104,0.50607,,,0.74410,0.66455,0.06725,0.01327,
7.15625,-87.79533,2.93601,-80.10195,-0.73941,1.07301,0.60523,,,0.74811,0.65970,0.07095,0.00974,
7.16406,-95.72688,5.87143,-124.55587,-0.67895,3.38147,0.98341,,,0.75243,0.65417,0.07678,0.00411,
7.17188,-160.58704,14.49869,-157.07632,0.27004,0.94104,0.32184,,,0.75947,0.64503,0.08447,-0.00246,
7.17969,-181.36014,-0.96594,-135.96594,-0.60785,0.99004,0.15413,,,0.76734,0.63478,0.09042,-0.00850,
7.18750,-176.38146,-12.56441,-121.45038,-0.74811,1.09290,-0.03155,,,0.77489,0.62473,0.09512,-0.01431,
7.19531,-167.48851,-28.95978,-84.04488,-0.51111,1.15888,-0.03642,,,0.78207,0.61526,0.09732,-0.01889,
7.20313,-161.61711,-32.61115,-68.34295,-0.40421,1.05748,0.09046,,,0.78892,0.60610,0.09865,-0.02283,
7.21094,-141.87408,-31.17924,-41.47520,-0.33795,0.87020,0.37822,,,0.79488,0.59811,0.09891,-0.02540,
7.21875,-111.55564,-12.45702,-17.71294,-0.10723,0.74503,0.52988,,,0.79946,0.59191,0.09914,-0.02611,
7.22656,-95.45220,-2.25466,-8.39646,-0.01630,0.74212,0.50947,,,0.80329,0.58663,0.09953,-0.02601,
7.23438,-67.29692,14.14071,1.02470,-0.00662,0.89689,0.35246,,,0.80588,0.58297,0.10038,-0.02494,
7.24219,-56.41250,20.90648,2.35064,-0.14689,0.91290,0.34760,,,0.80798,0.57992,0.10153,-0.02359,
7.25000,-53.59697,19.00920,1.89703,-0.18027,0.93958,0.32670,,,0.80996,0.57700,0.10258,-0.02236,
7.25781,-50.40375,15.32203,-0.37103,-0.05644,0.80373,0.33788,,,0.81183,0.57424,0.10352,-0.02143,
7.26563,-38.42058,17.50570,-6.05862,-0.04387,0.68632,0.40447,,,0.81320,0.57209,0.10478,-0.02080,
7.27344,-31.17575,16.61075,-11.29260,-0.01098,0.72708,0.45794,,,0.81428,0.57030,0.10619,-0.02056,
7.28125,-24.51462,13.56795,-19.77164,-0.12561,0.84497,0.41031,,,0.81511,0.56882,0.10774,-0.02095,
7.28906,-24.20560,12.67300,-20.15546,-0.18849,0.87700,0.34663,,,0.81592,0.56734,0.10926,-0.02140,
7.29688,-25.64770,12.02864,-18.30613,-0.11884,0.83818,0.31503,,,0.81680,0.56579,0.11068,-0.02176,
7.30469,-22.38581,10.63253,-17.08486,-0.13819,0.83139,0.41225,,,0.81755,0.56443,0.11196,-0.02214,
7.31250,-18.64322,9.23642,-17.36401,-0.17930,0.91629,0.36072,,,0.81817,0.56327,0.11317,-0.02261,
7.32031,-18.29986,6.58738,-18.86442,-0.01775,0.93958,0.39961,,,0.81879,0.56212,0.11429,-0.02326,
7.32813,-15.69034,7.33914,-21.23715,-0.22960,0.92406,0.43607,,,0.81930,0.56108,0.11554,-0.02405,
7.33594,-14.28258,6.22941,-19.21335,-0.24605,0.87214,0.40107,,,0.81977,0.56014,0.11665,-0.02477,
7.34375,-9.88761,4.22473,-13.63044,-0.16914,0.96239,0.39038,,,0.82009,0.55949,0.11742,-0.02529,
7.35156,-7.41544,4.26053,-10.31559,-0.22767,0.98228,0.35197,,,0.82032,0.55900,0.11806,-0.02565,
7.35938,-7.75880,3.25819,-9.30368,-0.18317,0.96142,0.39815,,,0.82057,0.55850,0.11861,-0.02598,
7.36719,-4.73725,2.68543,-5.77947,-0.20639,0.96190,0.41225,,,0.82072,0.55819,0.11899,-0.02616,
7.37500,-4.01620,1.86208,-4.13949,-0.22477,0.91678,0.37579,,,0.82085,0.55793,0.11926,-0.02629,
7.38281,-2.05907,0.75235,-1.62718,-0.18365,0.96724,0.36364,,,0.82092,0.55781,0.11937,-0.02634,
7.39063,-1.09767,0.00060,1.68767,-0.23202,0.93231,0.34517,,,0.82096,0.55776,0.11931,-0.02623,
7.39844,-1.37235,-1.07333,2.62978,-0.17108,0.90416,0.41808,,,0.82103,0.55770,0.11915,-0.02611,
7.40625,0.55045,-1.21652,4.26976,-0.18075,0.91435,0.43996,,,0.82103,0.55777,0.11892,-0.02593,
7.41406,0.99681,-2.18306,4.72338,-0.12174,0.89398,0.36267,,,0.82101,0.55786,0.11861,-0.02575,
7.42188,2.02688,-2.39785,2.80425,-0.12706,0.95996,0.36607,,,0.82096,0.55799,0.11837,-0.02570,
7.42969,1.23716,-2.07567,2.03660,-0.14738,0.90708,0.35295,,,0.82094,0.55807,0.11817,-0.02568,
7.43750,-0.10193,-2.57684,0.64087,-0.08063,0.82945,0.43072,,,0.82096,0.55806,0.11800,-0.02574,
7.44531,2.37024,-1.78929,-0.51060,-0.18269,0.94783,0.39475,,,0.82088,0.55819,0.11792,-0.02585,
7.45313,1.61485,-2.21886,-0.65017,-0.13432,0.87797,0.38940,,,0.82084,0.55827,0.11782,-0.02599,
7.46094,2.78227,-2.21886,-1.20847,-0.12319,0.93861,0.38794,,,0.82075,0.55841,0.11773,-0.02616,
7.46875,2.47325,-1.64610,-0.51060,-0.14447,0.87554,0.36121,,,0.82067,0.55854,0.11765,-0.02627,
7.47656,1.85520,-1.68189,-1.73186,-0.12029,0.83527,0.43898,,,0.82061,0.55863,0.11762,-0.02645,
7.48438,2.95395,-1.28812,-1.24336,-0.18317,0.86438,0.40010,,,0.82050,0.55878,0.11759,-0.02659,
7.49219,2.67926,-1.53870,-0.65017,-0.14641,0.78384,0.38406,,,0.82041,0.55892,0.11753,-0.02671,
7.50000,5.18577,-1.64610,0.22216,-0.10675,0.93667,0.38600,,,0.82023,0.55921,0.11742,-0.02680,
7.50781,2.91961,-1.18073,1.19916,-0.12029,0.83139,0.36947,,,0.82013,0.55938,0.11730,-0.02680,
7.51563,3.98402,-1.46711,-0.40592,-0.10578,0.94977,0.39572,,,0.81999,0.55960,0.11722,-0.02691,
7.52344,3.60632,-0.93014,-1.13868,-0.15415,0.93425,0.39913,,,0.81986,0.55979,0.11721,-0.02704,
7.53125,2.54192,-1.32392,-1.48761,-0.12706,0.87214,0.37968,,,0.81977,0.55992,0.11719,-0.02719,
7.53906,3.40031,-1.07333,-1.13868,-0.14302,0.96287,0.34468,,,0.81964,0.56010,0.11716,-0.02732,
7.54688,2.19856,-0.42897,-1.31314,-0.16576,0.95608,0.36170,,,0.81956,0.56021,0.11719,-0.02743,
7.55469,1.68352,-0.82275,-2.18547,-0.13190,0.95656,0.42246,,,0.81950,0.56028,0.11722,-0.02760,
7.56250,3.09129,-0.24998,-2.01101,-0.19333,0.96627,0.39281,,,0.81938,0.56044,0.11728,-0.02774,
7.57031,2.37024,-0.89434,-2.25526,-0.13867,0.91532,0.40350,,,0.81929,0.56055,0.11731,-0.02792,
7.57813,4.22437,-0.39318,-1.52250,-0.15512,1.01673,0.35878,,,0.81913,0.56078,0.11734,-0.02806,
7.58594,1.71786,-0.07100,-1.24336,-0.16479,0.88670,0.33010,,,0.81906,0.56086,0.11738,-0.02814,
7.59375,4.15569,-0.53637,-2.98802,-0.13045,1.03177,0.34177,,,0.81890,0.56107,0.11745,-0.02836,
7.60156,0.27576,-0.21419,-2.60419,-0.16624,0.87748,0.38746,,,0.81889,0.56106,0.11754,-0.02852,
7.60938,0.72212,-0.53637,-2.35994,-0.13238,0.83770,0.36656,,,0.81886,0.56108,0.11760,-0.02868,
7.61719,2.98828,0.03640,-2.08079,-0.16963,0.94492,0.32961,,,0.81874,0.56123,0.11767,-0.02882,
7.62500,0.37877,-0.07100,-1.90633,-0.11497,0.86729,0.34614,,,0.81873,0.56124,0.11774,-0.02893,
7.63281,0.24142,0.25118,-4.94204,-0.11594,0.90708,0.44287,,,0.81870,0.56121,0.11794,-0.02920,
7.64063,-0.78865,1.00294,-4.66289,-0.19575,0.80761,0.40642,,,0.81872,0.56113,0.11818,-0.02941,
7.64844,1.51185,0.46597,-3.96503,-0.14447,0.86147,0.38503,,,0.81865,0.56119,0.11835,-0.02963,
7.65625,3.46898,0.71655,-3.58120,-0.13480,1.01770,0.38163,,,0.81850,0.56135,0.11852,-0.02983,
7.66406,0.03541,0.43017,-3.02291,-0.11449,0.84109,0.37190,,,0.81849,0.56133,0.11866,-0.02998,
7.67188,2.54192,0.53757,-4.83736,-0.11836,1.00557,0.37336,,,0.81838,0.56143,0.11887,-0.03025,
7.67969,0.37877,0.82395,-3.99992,-0.14302,0.88330,0.38794,,,0.81835,0.56143,0.11907,-0.03044,
7.68750,1.16849,0.64496,-5.50033,-0.15366,0.91775,0.36656,,,0.81829,0.56145,0.11931,-0.03073,
7.69531,2.67926,0.28698,-3.19738,-0.15947,0.98859,0.35100,,,0.81818,0.56157,0.11945,-0.03092,
7.70313,0.03541,0.07220,-2.15058,-0.14786,0.89349,0.34517,,,0.81817,0.56156,0.11953,-0.03104,
7.71094,0.61912,-0.03520,-3.26716,-0.14786,1.01381,0.40544,,,0.81814,0.56156,0.11965,-0.03123,
7.71875,-0.92599,0.68076,-2.49951,-0.21945,0.96384,0.39524,,,0.81817,0.56149,0.11979,-0.03133,
7.72656,1.51185,-0.21419,-2.11569,-0.13867,1.01236,0.39524,,,0.81810,0.56156,0.11985,-0.03147,
7.73438,0.79080,0.57336,-0.92932,-0.20784,1.02352,0.31746,,,0.81807,0.56160,0.11992,-0.03151,
7.74219,-3.84453,0.35858,1.05959,-0.14447,0.83576,0.34906,,,0.81821,0.56139,0.11991,-0.03140,
7.75000,-1.02900,0.71655,-1.24336,-0.16382,1.00605,0.36170,,,0.81825,0.56133,0.12000,-0.03144,
7.75781,-3.50117,1.86208,1.05959,-0.18414,0.90999,0.37288,,,0.81837,0.56114,0.12007,-0.03128,
7.76563,-3.26082,0.78815,0.08258,-0.16527,0.91726,0.40982,,,0.81848,0.56096,0.12011,-0.03122,
7.77344,-4.84026,0.25118,0.32683,-0.20494,0.92842,0.32135,,,0.81867,0.56070,0.12013,-0.03115,
7.78125,-5.49264,0.28698,2.07149,-0.17737,0.89931,0.31746,,,0.81888,0.56041,0.12007,-0.03098,
7.78906,-5.90467,0.39437,3.46722,-0.16092,0.71446,0.52551,,,0.81911,0.56011,0.11998,-0.03072,
7.79688,-5.35530,0.10799,4.72338,-0.16092,0.87457,0.43510,,,0.81932,0.55985,0.11981,-0.03041,
7.80469,-10.16230,-1.89668,5.00252,-0.18510,0.82605,0.38989,,,0.81974,0.55932,0.11954,-0.03012,
7.81250,-11.98209,-2.89902,4.68848,-0.31425,1.26222,0.41225,,,0.82023,0.55868,0.11922,-0.02987,
7.82031,-14.59160,-4.58151,7.20079,-0.12803,0.99247,0.39378,,,0.82083,0.55791,0.11872,-0.02952,
7.82813,-22.42014,-7.12315,8.10801,-0.13528,0.76346,-0.15113,,,0.82176,0.55671,0.11806,-0.02916,
7.83594,-11.39838,-5.65544,10.55054,-0.27023,1.50142,0.36364,,,0.82226,0.55614,0.11736,-0.02869,
7.84375,-20.56602,-8.37607,6.22378,-0.16092,1.08514,0.43704,,,0.82312,0.55502,0.11670,-0.02849,
7.85156,-23.51889,-7.98230,8.45695,-0.19139,0.96966,0.39232,,,0.82408,0.55375,0.11597,-0.02813,
7.85938,-25.40735,-9.30681,7.16590,-0.18269,1.02886,0.41322,,,0.82513,0.55236,0.11523,-0.02788,
7.86719,-33.81960,-11.34729,6.64250,-0.28281,1.62126,0.81230,,,0.82650,0.55049,0.11441,-0.02767,
7.87500,-25.51036,-8.66245,7.41015,-0.19526,0.94104,0.45794,,,0.82754,0.54909,0.11369,-0.02738,
7.88281,-30.28302,-11.13250,3.46722,-0.13480,1.13171,0.42975,,,0.82876,0.54739,0.11298,-0.02736,
7.89063,-36.70380,-11.56207,3.32765,-0.20639,1.04535,0.36704,,,0.83023,0.54532,0.11227,-0.02732,
7.89844,-36.90981,-12.67180,2.07149,-0.17882,1.20643,0.42829,,,0.83170,0.54322,0.11155,-0.02740,
7.90625,-43.63961,-13.35196,2.80425,-0.16527,1.13074,0.40593,,,0.83342,0.54074,0.11077,-0.02740,
7.91406,-59.02201,-16.32317,3.25786,-0.07531,1.28988,0.69321,,,0.83571,0.53738,0.10983,-0.02737,
7.92188,-45.01304,-12.06324,4.72338,-0.13964,1.23457,0.47933,,,0.83746,0.53482,0.10905,-0.02720,
7.92969,-55.65711,-13.78153,-0.99911,-0.12368,1.17247,0.41517,,,0.83958,0.53161,0.10840,-0.02735,
7.93750,-62.55859,-12.74340,0.98981,-0.24218,1.12589,0.43801,,,0.84194,0.52800,0.10775,-0.02729,
7.94531,-64.48139,-14.31850,0.53619,-0.24315,1.18751,0.40933,,,0.84435,0.52428,0.10703,-0.02730,
7.95313,-73.13399,-15.75041,4.96763,-0.31715,1.14578,0.53523,,,0.84708,0.52007,0.10608,-0.02705,
7.96094,-74.91944,-16.71695,4.30466,-0.31135,1.18848,0.51093,,,0.84985,0.51573,0.10510,-0.02685,
7.96875,-81.92393,-19.40178,4.68848,-0.31183,1.18799,0.46232,,,0.85287,0.51098,0.10396,-0.02667,
7.97656,-87.41764,-23.44692,5.38635,-0.17543,1.33500,0.47982,,,0.85607,0.50588,0.10257,-0.02655,
7.98438,-93.28905,-23.51852,4.58380,-0.11303,1.24815,0.43121,,,0.85944,0.50041,0.10120,-0.02644,
7.99219,-98.98877,-22.12241,3.08340,-0.08256,1.40875,0.43169,,,0.86296,0.49459,0.09998,-0.02633,
8.00000,-110.49124,-21.33486,1.37363,-0.05499,1.39419,0.46718,,,0.86681,0.48804,0.09887,-0.02622,
8.00781,-115.33257,-20.01034,0.22216,-0.08692,1.40778,0.39767,1021.657,24.7,0.87075,0.48118,0.09788,-0.02609,
8.01563,-127.83077,-18.72162,0.29194,-0.17543,1.50627,0.47204,,,0.87503,0.47354,0.09698,-0.02583,
8.02344,-140.74100,-19.00800,-1.10379,-0.11594,1.68675,0.49440,,,0.87966,0.46509,0.09613,-0.02558,
8.03125,-150.08031,-18.39944,-1.31314,-0.11062,1.74012,0.56294,,,0.88449,0.45602,0.09532,-0.02526,
8.03906,-166.97348,-17.71928,-2.04590,0.03739,1.93662,0.48468,,,0.88973,0.44588,0.09460,-0.02484,
8.04688,-178.81930,-15.64302,-3.16248,0.03981,1.98320,0.50704,,,0.89519,0.43496,0.09404,-0.02436,
8.05469,-201.58387,-10.98931,-3.44163,0.17137,2.17047,0.46621,,,0.90115,0.42258,0.09379,-0.02360,
8.06250,-229.49880,-4.58151,-4.24417,0.17863,2.12050,0.51482,,,0.90767,0.40840,0.09399,-0.02252,
8.07031,-240.65791,-0.28578,-4.31396,0.10704,2.21414,0.56731,,,0.91424,0.39343,0.09445,-0.02125,
8.07813,-264.14353,1.18193,-5.36075,0.03642,2.08411,0.47836,,,0.92116,0.37688,0.09503,-0.01984,
8.08594,-285.08832,2.75703,-7.27988,-0.14544,1.93710,0.47787,,,0.92828,0.35887,0.09576,-0.01838,
8.09375,-293.08854,0.46597,-8.64071,-0.20494,1.89781,0.50947,,,0.93525,0.34020,0.09635,-0.01700,
8.10156,-308.05891,-6.76517,-4.06971,-0.18365,1.76826,0.51822,,,0.94222,0.32046,0.09634,-0.01538,
8.10938,-321.14081,-9.84378,-0.58039,-0.15608,1.70616,0.45891,,,0.94908,0.29975,0.09604,-0.01352,
8.11719,-329.07236,-10.98931,-2.01101,-0.13190,1.64066,0.43121,,,0.95563,0.27837,0.09565,-0.01172,
8.12500,-341.77657,-9.37841,-16.28232,-0.09901,1.42621,0.23142,,,0.96190,0.25592,0.09559,-0.01073,
8.13281,-346.72091,-8.76985,-28.07622,-0.10336,1.41894,0.16337,,,0.96771,0.23294,0.09573,-0.01046,
8.14063,-349.29609,-9.66479,-46.91854,-0.01291,1.40972,0.02386,,,0.97301,0.20952,0.09606,-0.01142,
8.14844,-348.02567,-8.30448,-51.59422,0.09350,0.98082,-0.06704,,,0.97771,0.18605,0.09649,-0.01268,
8.15625,-338.48034,-7.98230,-46.01131,0.13074,0.70427,-0.14190,,,0.98175,0.16313,0.09681,-0.01362,
8.16406,-294.46197,-4.76050,-14.81681,0.55252,-0.15740,-0.52543,,,0.98484,0.14330,0.09690,-0.01272,
8.17188,-213.94473,22.40999,35.39448,0.68311,-0.81578,-0.52688,,,0.98671,0.12917,0.09823,-0.00870,
8.17969,-161.99480,39.44972,41.15186,0.33196,-1.15589,-0.48022,,,0.98783,0.11856,0.10061,-0.00450,
8.18750,-37.66520,46.53767,38.15105,-0.04048,-0.28355,-0.48654,,,0.98781,0.11629,0.10345,-0.00130,
8.19531,43.50442,51.72834,-0.51060,-0.02887,-0.13848,-0.52786,,,0.98709,0.11922,0.10693,-0.00123,
8.20313,76.81006,52.76648,-22.59799,-0.06176,0.19484,-0.47341,,,0.98606,0.12423,0.11066,-0.00288,
8.21094,108.50191,49.90266,-37.00887,-0.05112,0.68341,-0.34022,,,0.98472,0.13125,0.11430,-0.00577,
8.21875,111.45479,43.60225,-19.49249,0.07464,0.70573,-0.31300,,,0.98334,0.13860,0.11736,-0.00755,
8.22656,110.25304,40.84583,-7.10541,0.13123,0.66012,-0.30522,,,0.98194,0.14595,0.12010,-0.00853,
8.23438,107.74653,37.58823,17.59896,0.13026,0.61160,-0.27898,,,0.98054,0.15333,0.12238,-0.00785,
8.24219,106.64779,36.33531,28.69499,0.11672,0.59317,-0.26585,,,0.97910,0.16072,0.12445,-0.00645,
8.25000,106.13275,34.33064,43.80374,0.05964,0.51748,-0.25807,,,0.97763,0.16819,0.12621,-0.00405,
8.25781,110.04702,32.79133,46.76966,-0.02887,0.46314,-0.26974,,,0.97607,0.17593,0.12782,-0.00150,
8.26563,113.78961,31.64581,44.53650,-0.07144,0.44422,-0.27606,,,0.97440,0.18389,0.12938,0.00085,
8.27344,124.63970,27.88704,36.44128,-0.13722,0.40055,-0.30182,,,0.97254,0.19248,0.13078,0.00252,
8.28125,140.77748,22.48158,28.72989,-0.13577,0.32729,-0.32564,,,0.97044,0.20206,0.13191,0.00347,
8.28906,151.38721,19.76096,27.08991,-0.11255,0.30982,-0.33682,,,0.96812,0.21231,0.13287,0.00417,
8.29688,176.21193,15.53682,29.63711,-0.04580,0.32147,-0.33342,,,0.96535,0.22419,0.13351,0.00476,
8.30469,202.34141,14.17651,37.87190,0.00885,0.41947,-0.30328,,,0.96202,0.23782,0.13392,0.00562,
8.31250,214.08422,14.21230,42.89652,0.02965,0.51602,-0.27752,,,0.95829,0.25223,0.13422,0.00671,
8.32031,232.04180,16.03799,52.73640,0.05432,0.71398,-0.22356,,,0.95400,0.26783,0.13445,0.00831,
8.32813,237.94754,17.97107,56.67933,0.05626,0.80131,-0.19002,,,0.94933,0.28378,0.13470,0.01014,
8.33594,244.60866,22.33839,61.91330,0.03739,0.93473,-0.11954,,,0.94420,0.30012,0.13509,0.01233,
8.34375,247.66454,27.13529,64.84433,0.02336,1.02158,-0.05878,,,0.93869,0.31660,0.13570,0.01478,
8.35156,248.45426,29.28316,65.61198,-0.00275,1.05845,-0.02280,,,0.93284,0.33303,0.13639,0.01731,
8.35938,249.20965,33.11351,66.10049,-0.05112,1.13268,0.02921,,,0.92665,0.34940,0.13727,0.01995,
8.36719,249.79336,35.26138,67.14728,-0.08305,1.18217,0.07344,,,0.92013,0.36571,0.13821,0.02269,
8.37500,250.82343,35.65515,68.08940,-0.09079,1.21516,0.10212,,,0.91329,0.38197,0.13912,0.02548,
8.38281,253.50161,36.47850,70.74128,-0.11013,1.28066,0.16337,,,0.90607,0.39830,0.13996,0.02843,
8.39063,256.14546,37.15866,72.34637,-0.13480,1.37673,0.23871,,,0.89846,0.41468,0.14077,0.03146,
8.39844,256.93518,37.26605,72.41615,-0.15318,1.42718,0.27469,,,0.89053,0.43096,0.14153,0.03448,
8.40625,257.10686,35.40457,72.90466,-0.22380,1.52616,0.34517,,,0.88232,0.44712,0.14212,0.03746,
8.41406,255.87078,31.93219,73.11402,-0.28619,1.60719,0.42343,,,0.87387,0.46307,0.14244,0.04034,
8.42188,255.18406,29.31895,72.27658,-0.31909,1.64406,0.47496,,,0.86519,0.47881,0.14258,0.04309,
8.42969,253.63896,22.87536,69.69448,-0.41679,1.68093,0.58919,,,0.85634,0.49431,0.14238,0.04547,
8.43750,253.05525,18.36484,67.84514,-0.46854,1.68627,0.65384,,,0.84729,0.50960,0.14193,0.04759,
8.44531,251.61315,7.26754,62.15756,-0.57302,1.69015,0.78946,,,0.83814,0.52463,0.14098,0.04899,
8.45313,250.44574,-7.51693,54.13212,-0.65476,1.65522,0.92605,,,0.82895,0.53941,0.13944,0.04940,
8.46094,249.96504,-16.00099,48.89815,-0.68185,1.64891,0.99216,,,0.81962,0.55397,0.13756,0.04919,
8.46875,248.14524,-34.11465,36.33660,-0.64557,1.64115,1.11222,,,0.81033,0.56820,0.13509,0.04759,
8.47656,244.19664,-50.58161,25.93843,-0.52417,1.63824,1.23618,,,0.80113,0.58201,0.13206,0.04481,
8.48438,241.17509,-56.81042,22.65847,-0.46661,1.63533,1.28430,,,0.79190,0.59547,0.12878,0.04162,
8.49219,232.79718,-66.54741,18.92490,-0.33069,1.60233,1.37131,,,0.78287,0.60831,0.12506,0.03789,
8.50000,222.56514,-70.73575,17.04067,-0.21461,1.52956,1.44763,,,0.77410,0.62043,0.12114,0.03396,
8.50781,217.20877,-71.02213,16.30791,-0.15173,1.48735,1.47680,,,0.76538,0.63211,0.11719,0.03002,
8.51563,205.63764,-68.65948,15.78451,-0.04097,1.42476,1.51957,,,0.75695,0.64303,0.11333,0.02624,
8.52344,199.31986,-65.65247,15.95898,-0.01436,1.38983,1.54047,,,0.74862,0.65349,0.10959,0.02264,
8.53125,185.72292,-58.95829,17.98279,0.00982,1.33355,1.59929,,,0.74070,0.66313,0.10605,0.01955,
8.53906,169.92850,-51.01119,20.80913,0.00934,1.27290,1.64741,,,0.73331,0.67187,0.10275,0.01706,
8.54688,161.41324,-46.42908,21.75125,-0.02113,1.22681,1.66880,,,0.72617,0.68009,0.09962,0.01489,
8.55469,142.97497,-38.05240,23.07719,-0.09998,1.15840,1.69116,,,0.71975,0.68732,0.09680,0.01330,
8.56250,122.47655,-30.85706,23.07719,-0.19381,1.07931,1.69651,,,0.71417,0.69348,0.09431,0.01218,
8.57031,111.86681,-27.92164,21.96061,-0.24218,1.04632,1.68484,,,0.70903,0.69906,0.09200,0.01121,
8.57813,88.72455,-23.48272,16.34281,-0.34811,0.91969,1.64790,,,0.70493,0.70345,0.09016,0.01032,
8.58594,70.21760,-20.36832,7.51483,-0.40373,0.85080,1.63672,,,0.70168,0.70687,0.08886,0.00927,
8.59375,60.80961,-20.26092,1.96681,-0.41969,0.85322,1.63818,,,0.69887,0.70979,0.08784,0.00802,
8.60156,41.30693,-20.51151,-9.72240,-0.37664,0.78724,1.61679,,,0.69700,0.71170,0.08735,0.00631,
8.60938,32.37965,-20.61890,-15.86360,-0.34569,0.77462,1.60755,,,0.69557,0.71314,0.08716,0.00437,
8.61719,14.28473,-20.65470,-26.78517,-0.29442,0.75328,1.58617,,,0.69501,0.71366,0.08749,0.00200,
8.62500,-2.81445,-21.19167,-33.86848,-0.26249,0.72659,1.53464,,,0.69528,0.71331,0.08813,-0.00062,
8.63281,-10.84901,-21.65704,-36.45058,-0.24024,0.70233,1.49770,,,0.69594,0.71257,0.08887,-0.00333,
8.64063,-24.37728,-23.12474,-40.84712,-0.19575,0.69797,1.41749,,,0.69726,0.71115,0.08977,-0.00625,
8.64844,-36.18876,-24.55665,-43.74326,-0.16382,0.70185,1.33340,,,0.69915,0.70914,0.09073,-0.00929,
8.65625,-41.44213,-25.66638,-44.19687,-0.14060,0.69505,1.28430,,,0.70128,0.70686,0.09167,-0.01239,
8.66406,-49.06465,-28.17223,-44.09219,-0.09369,0.65381,1.18076,,,0.70378,0.70420,0.09249,-0.01555,
8.67188,-52.42955,-30.53488,-41.16116,-0.02017,0.60530,1.07528,,,0.70644,0.70138,0.09305,-0.01866,
8.67969,-54.00900,-30.03371,-37.11355,-0.17640,3.67161,2.12087,,,0.70917,0.69849,0.09345,-0.02154,
8.68750,-163.67725,-32.93333,4.30466,-0.63348,4.27177,1.55700,,,0.71714,0.69050,0.09188,-0.02185,
8.69531,-250.20324,-41.16681,-43.21986,0.84176,1.65134,0.06178,,,0.72900,0.67783,0.09226,-0.02433,
8.70313,-255.86863,-25.55899,-62.89961,0.33486,1.14578,-0.68875,,,0.74077,0.66456,0.09430,-0.02702,
8.71094,-266.13501,-37.80182,-88.44142,0.13703,1.84735,-1.29540,,,0.75277,0.65036,0.09687,-0.03148,
8.71875,-268.81319,-40.34346,-94.89666,-0.06128,1.95748,-0.77819,,,0.76460,0.63573,0.09956,-0.03635,
8.72656,-267.19941,-60.42599,-99.95617,-0.40905,1.14821,0.15559,,,0.77618,0.62086,0.10139,-0.04236,
8.73438,-244.70952,-64.36375,-72.39056,-0.63058,0.45538,0.76467,,,0.78664,0.60713,0.10174,-0.04722,
8.74219,-223.66173,-59.53105,-54.35078,-0.61607,0.36222,0.70488,,,0.79604,0.59449,0.10150,-0.05104,
8.75000,-174.32132,-49.22130,-19.10867,-0.02017,0.39813,0.59988,,,0.80332,0.58468,0.10021,-0.05286,
8.75781,-120.99796,-8.62666,-5.15140,0.34066,0.58152,0.71071,,,0.80815,0.57796,0.10037,-0.05266,
8.76563,-99.12612,11.38428,-3.86035,0.17379,0.74697,0.62516,,,0.81195,0.57250,0.10150,-0.05174,
8.77344,-67.91496,27.77965,2.07149,-0.32344,0.87069,0.47155,,,0.81441,0.56884,0.10319,-0.05007,
8.78125,-45.80276,23.41233,13.55135,-0.31280,0.68389,0.50169,,,0.81606,0.56647,0.10412,-0.04809,
8.78906,-32.58351,19.54617,15.43558,-0.23492,0.63829,0.53086,,,0.81723,0.56483,0.10472,-0.04625,
8.79688,-17.57881,11.24109,11.21351,-0.04919,0.73241,0.53620,,,0.81786,0.56396,0.10497,-0.04506,
8.80469,-11.63873,9.84498,7.96844,-0.01581,0.80664,0.46669,,,0.81826,0.56340,0.10525,-0.04415,
8.81250,-10.84901,9.16482,1.44342,-0.05886,0.88088,0.45405,,,0.81862,0.56283,0.10574,-0.04364,
8.82031,-10.12796,9.05743,-1.24336,-0.14834,0.82702,0.48759,,,0.81894,0.56228,0.10632,-0.04329,
8.82813,-9.71593,6.58738,-2.81355,-0.08885,0.75230,0.48176,,,0.81926,0.56174,0.10682,-0.04313,
8.83594,-3.74152,3.54458,-7.07052,-0.08305,0.89883,0.41468,,,0.81935,0.56149,0.10730,-0.04336,
8.84375,-3.26082,3.18660,-8.25689,-0.15318,0.97160,0.35440,,,0.81943,0.56125,0.10780,-0.04367,
8.85156,-4.66858,2.36325,-8.22200,-0.15125,0.92648,0.40058,,,0.81957,0.56094,0.10826,-0.04401,
8.85938,-0.99466,1.00294,-5.01182,-0.20735,0.92842,0.39524,,,0.81958,0.56085,0.10852,-0.04424,
8.86719,1.82087,-0.64376,-0.71996,-0.17930,0.96093,0.33836,,,0.81952,0.56094,0.10850,-0.04432,
8.87500,2.40457,-0.67956,0.50130,-0.16237,0.97791,0.37288,,,0.81943,0.56108,0.10844,-0.04434,
8.88281,1.78653,0.03640,3.71147,-0.19236,0.96384,0.39767,,,0.81937,0.56121,0.10829,-0.04414,
8.89063,0.65345,-0.28578,5.73528,-0.15802,0.88476,0.46378,,,0.81937,0.56128,0.10805,-0.04383,
8.89844,2.91961,0.39437,6.36336,-0.20784,0.96918,0.42975,,,0.81927,0.56149,0.10782,-0.04349,
8.90625,2.12989,-0.24998,8.80588,-0.16527,0.90756,0.35003,,,0.81922,0.56168,0.10746,-0.04302,
8.91406,3.29730,-0.28578,8.21269,-0.14931,0.97937,0.38211,,,0.81912,0.56192,0.10712,-0.04259,
8.92188,2.02688,-0.57216,8.80588,-0.17350,0.91241,0.35246,,,0.81907,0.56210,0.10675,-0.04214,
8.92969,0.34443,-2.03987,8.73609,-0.07434,0.87457,0.42003,,,0.81910,0.56217,0.10630,-0.04173,
8.93750,2.06122,-1.14493,7.86376,-0.16576,0.94346,0.41128,,,0.81905,0.56234,0.10593,-0.04135,
8.94531,2.54192,-2.25466,7.37526,-0.11400,0.89301,0.38794,,,0.81899,0.56253,0.10551,-0.04104,
8.95313,3.05695,-2.82742,5.87485,-0.04097,0.88670,0.39961,,,0.81891,0.56273,0.10512,-0.04085,
8.96094,3.84667,-2.18306,4.79316,-0.10481,0.91435,0.35197,,,0.81879,0.56298,0.10480,-0.04069,
8.96875,2.06122,-2.86322,1.44342,-0.03661,0.80034,0.43850,,,0.81874,0.56309,0.10458,-0.04073,
8.97656,5.28877,-1.89668,-1.10379,-0.11884,0.92551,0.43218,,,0.81854,0.56338,0.10450,-0.04090,
8.98438,3.22863,-2.46944,0.01280,-0.07869,0.84400,0.40058,,,0.81844,0.56355,0.10435,-0.04102,
8.99219,4.12136,-2.18306,-1.13868,-0.07724,0.94395,0.39961,,,0.81829,0.56376,0.10426,-0.04120,
9.00000,2.50758,-2.00407,-0.44082,-0.10626,0.86050,0.36899,,,0.81821,0.56389,0.10416,-0.04132,
9.00781,2.78227,-2.21886,-1.66208,-0.08595,0.90222,0.41419,1021.635,24.7,0.81811,0.56403,0.10409,-0.04151,
9.01563,3.74367,-1.53870,-2.32505,-0.17833,0.92018,0.41614,,,0.81797,0.56422,0.10408,-0.04173,
9.02344,2.74793,-2.32625,-1.45272,-0.13625,0.84740,0.37190,,,0.81788,0.56436,0.10400,-0.04192,
9.03125,3.98402,-2.21886,0.32683,-0.10868,0.92163,0.38163,,,0.81774,0.56457,0.10385,-0.04201,
9.03906,4.39604,-1.86088,-0.12678,-0.14447,0.95656,0.36267,,,0.81759,0.56481,0.10374,-0.04212,
9.04688,2.64492,-2.18306,-0.33614,-0.09030,0.90611,0.44239,,,0.81750,0.56495,0.10362,-0.04224,
9.05469,4.46472,-1.71769,-0.89443,-0.15753,0.93570,0.40496,,,0.81734,0.56519,0.10355,-0.04239,
9.06250,3.15996,-1.43131,0.43151,-0.12803,0.89640,0.34031,,,0.81723,0.56536,0.10344,-0.04244,
9.07031,4.01835,-1.28812,-1.41782,-0.11497,0.98470,0.36899,,,0.81708,0.56557,0.10341,-0.04260,
9.07813,2.30157,-1.03753,-1.80165,-0.11642,0.93910,0.34906,,,0.81699,0.56569,0.10342,-0.04276,
9.08594,2.02688,-1.35971,-3.16248,-0.07482,0.93958,0.39183,,,0.81692,0.56577,0.10346,-0.04300,
9.09375,2.09555,-0.57216,-4.66289,-0.16044,0.92697,0.39669,,,0.81682,0.56585,0.10360,-0.04330,
9.10156,2.06122,-0.53637,-3.16248,-0.13480,0.90077,0.35440,,,0.81674,0.56594,0.10368,-0.04351,
9.10938,3.33164,-0.57216,-3.47652,-0.12706,0.97597,0.36024,,,0.81661,0.56610,0.10378,-0.04375,
9.11719,2.43891,-0.21419,-4.27907,-0.14593,0.94832,0.34517,,,0.81650,0.56621,0.10392,-0.04401,
9.12500,-0.54830,-0.67956,-4.06971,-0.12658,0.79063,0.43267,,,0.81651,0.56615,0.10404,-0.04426,
9.13281,2.54192,-0.39318,-4.27907,-0.18317,0.91096,0.39086,,,0.81641,0.56626,0.10418,-0.04453,
9.14063,1.47751,-0.67956,-2.32505,-0.14206,0.82799,0.33156,,,0.81635,0.56632,0.10422,-0.04469,
9.14844,2.09555,-1.10913,-1.94122,-0.07579,0.93036,0.36899,,,0.81627,0.56642,0.10423,-0.04486,
9.15625,0.89380,-0.75115,-1.20847,-0.12948,0.85516,0.34371,,,0.81624,0.56646,0.10423,-0.04496,
9.16406,1.23716,-1.10913,-2.18547,-0.10675,0.90174,0.39815,,,0.81619,0.56651,0.10425,-0.04513,
9.17188,2.74793,-1.00174,-2.15058,-0.15415,0.96045,0.38406,,,0.81608,0.56664,0.10427,-0.04531,
9.17969,1.54618,-1.39551,0.04769,-0.12416,0.88476,0.36267,,,0.81603,0.56672,0.10418,-0.04537,
9.18750,2.43891,-1.46711,-0.19656,-0.10578,0.95123,0.36753,,,0.81595,0.56685,0.10410,-0.04546,
9.19531,1.30583,-1.43131,-0.16167,-0.10820,0.90902,0.34954,,,0.81591,0.56692,0.10402,-0.04553,
9.20313,0.75646,-1.61030,-0.85953,-0.09707,0.89786,0.43267,,,0.81589,0.56695,0.10396,-0.04565,
9.21094,3.29730,-1.64610,-1.38293,-0.15753,0.95220,0.42003,,,0.81577,0.56712,0.10391,-0.04581,
9.21875,2.33590,-1.75349,-0.26635,-0.13577,0.86147,0.40204,,,0.81569,0.56724,0.10382,-0.04591,
9.22656,4.70507,-1.78929,0.43151,-0.12416,0.99053,0.40739,,,0.81552,0.56750,0.10369,-0.04599,
9.23438,4.56772,-1.43131,0.32683,-0.13819,0.91969,0.36072,,,0.81536,0.56775,0.10358,-0.04606,
9.24219,5.08276,-1.68189,-0.40592,-0.10288,0.95074,0.40107,,,0.81517,0.56803,0.10349,-0.04618,
9.25000,4.29304,-1.07333,-0.58039,-0.16576,0.92551,0.37239,,,0.81501,0.56826,0.10344,-0.04628,
9.25781,3.15996,-0.75115,0.29194,-0.15125,0.91824,0.34760,,,0.81489,0.56843,0.10337,-0.04632,
9.26563,3.81234,-0.64376,0.11748,-0.15802,0.97597,0.35538,,,0.81475,0.56864,0.10332,-0.04636,
9.27344,1.85520,-0.35738,1.23406,-0.15028,0.98276,0.31649,,,0.81469,0.56875,0.10325,-0.04632,
9.28125,1.20282,-0.39318,0.92002,-0.12464,1.02449,0.39329,,,0.81465,0.56883,0.10318,-0.04629,
9.28906,-0.58263,0.46597,0.18726,-0.17253,0.91484,0.37531,,,0.81467,0.56880,0.10320,-0.04626,
9.29688,-0.03326,-0.14259,2.00171,-0.13577,0.95220,0.33642,,,0.81467,0.56881,0.10312,-0.04615,
9.30469,0.34443,-0.10679,1.89703,-0.12029,0.99974,0.32524,,,0.81467,0.56884,0.10304,-0.04606,
9.31250,-1.44103,-0.39318,0.67577,-0.08305,0.92697,0.34225,,,0.81473,0.56876,0.10299,-0.04602,
9.32031,-1.40669,-1.21652,-1.34804,-0.10723,0.94152,0.39767,,,0.81479,0.56867,0.10298,-0.04613,
9.32813,-1.09767,-1.00174,-1.41782,-0.16189,0.95947,0.40496,,,0.81483,0.56860,0.10298,-0.04624,
9.33594,-1.37235,-2.29046,-1.48761,-0.14738,0.95753,0.35100,,,0.81490,0.56850,0.10292,-0.04641,
9.34375,-1.99040,-3.54338,0.01280,-0.09514,1.03419,0.29413,,,0.81500,0.56838,0.10273,-0.04653,
9.35156,-3.94753,-3.72237,-0.92932,-0.18801,0.96772,0.34711,,,0.81518,0.56814,0.10257,-0.04670,
9.35938,-4.53124,-3.65077,-1.38293,-0.11497,0.91193,0.52551,,,0.81537,0.56787,0.10243,-0.04688,
9.36719,-13.14950,-7.15895,-1.48761,-0.20010,1.03710,0.59113,,,0.81593,0.56711,0.10213,-0.04715,
9.37500,-8.99488,-6.15661,-0.23146,-0.19236,1.01818,0.39815,,,0.81632,0.56658,0.10183,-0.04734,
9.38281,-14.69461,-8.84144,-0.96421,-0.08885,1.20934,0.31406,,,0.81694,0.56573,0.10142,-0.04763,
9.39063,-17.30412,-9.19942,0.60598,-0.16334,1.04632,0.48419,,,0.81767,0.56474,0.10094,-0.04783,
9.39844,-23.93092,-14.46169,0.92002,-0.14496,1.40293,0.37433,,,0.81870,0.56336,0.10017,-0.04817,
9.40625,-40.78975,-18.00567,4.86295,-0.01146,0.80664,0.78946,,,0.82040,0.56106,0.09911,-0.04831,
9.41406,-51.09046,-18.00567,4.40934,-0.00759,1.71732,0.86334,,,0.82248,0.55817,0.09811,-0.04841,
9.42188,-60.08642,-13.92472,-6.02372,-0.11739,1.19284,0.35878,,,0.82484,0.55471,0.09775,-0.04887,
9.42969,-66.23251,-11.09670,-2.35994,-0.27555,1.28454,0.44482,,,0.82740,0.55092,0.09743,-0.04898,
9.43750,-74.47308,-12.45702,-5.22118,-0.33456,1.20012,0.54447,,,0.83025,0.54664,0.09717,-0.04925,
9.44531,-76.87658,-11.49048,-1.80165,-0.26927,1.26999,0.37045,,,0.83317,0.54223,0.09685,-0.04927,
9.45313,-87.93268,-13.85313,-3.82545,-0.19768,1.38061,0.30823,,,0.83649,0.53715,0.09650,-0.04942,
9.46094,-93.80408,-14.46169,-0.23146,-0.19720,1.49511,0.36170,,,0.84000,0.53174,0.09599,-0.04934,
9.46875,-105.85592,-13.10138,1.37363,-0.19188,1.47182,0.38551,,,0.84390,0.52564,0.09555,-0.04904,
9.47656,-110.66292,-12.99398,2.00171,-0.18269,1.49317,0.36947,,,0.84793,0.51923,0.09509,-0.04867,
9.48438,-124.25986,-14.39009,6.11910,-0.28039,1.50239,0.44044,,,0.85241,0.51202,0.09445,-0.04802,
9.49219,-135.24728,-16.53796,9.11992,-0.37084,1.56158,0.40885,,,0.85723,0.50414,0.09361,-0.04719,
9.50000,-140.84400,-19.22279,8.98034,-0.36117,1.64406,0.36413,,,0.86218,0.49589,0.09263,-0.04643,
9.50781,-158.08053,-25.70218,11.87648,-0.23057,1.66589,0.32718,,,0.86767,0.48656,0.09121,-0.04560,
9.51563,-176.20978,-26.27495,13.76071,-0.22283,1.84832,0.45162,,,0.87366,0.47611,0.08974,-0.04455,
9.52344,-186.81952,-27.70686,14.84240,-0.17930,1.87258,0.45308,,,0.87986,0.46496,0.08817,-0.04342,
9.53125,-206.76857,-28.42281,19.16915,-0.24170,2.11225,0.44385,,,0.88655,0.45254,0.08646,-0.04192,
9.53906,-233.37874,-31.89519,20.59977,-0.11497,2.24228,0.34371,,,0.89388,0.43842,0.08455,-0.04028,
9.54688,-250.68394,-32.18157,17.73853,-0.00759,2.09770,0.31066,,,0.90147,0.42310,0.08273,-0.03871,
9.55469,-279.42293,-28.56600,11.73691,0.23183,2.12390,0.39669,,,0.90955,0.40585,0.08136,-0.03723,
9.56250,-292.40182,-24.73564,15.99387,0.24586,2.04336,0.42537,,,0.91763,0.38767,0.08010,-0.03529,
9.57031,-307.20051,-17.11072,26.53162,0.08866,1.97543,0.41808,,,0.92570,0.36849,0.07905,-0.03239,
9.57813,-319.63004,-15.75041,28.62521,-0.15415,1.83376,0.31357,,,0.93365,0.34836,0.07803,-0.02925,
9.58594,-324.47138,-17.07492,26.18268,-0.21558,1.90266,0.30677,,,0.94126,0.32774,0.07694,-0.02626,
9.59375,-340.16279,-23.05315,29.11371,0.00112,1.93225,0.32864,,,0.94878,0.30595,0.07540,-0.02311,
9.60156,-360.00883,-19.29439,30.19540,-0.03081,1.69064,0.30239,,,0.95614,0.28271,0.07407,-0.01970,
9.60938,-367.21933,-17.11072,25.69418,-0.07482,1.72508,0.34663,,,0.96303,0.25880,0.07293,-0.01650,
9.61719,-381.57166,-13.74573,8.52673,-0.06708,1.52859,0.20323,,,0.96951,0.23371,0.07228,-0.01428,
9.62500,-393.48615,-10.30915,-16.14275,-0.13190,1.22244,0.04525,,,0.97546,0.20755,0.07221,-0.01356,
9.63281,-390.94531,-11.13250,-26.54092,-0.01678,1.12832,0.01560,,,0.98067,0.18135,0.07218,-0.01356,
9.64063,-370.10353,-6.47879,-27.37835,0.14864,0.56794,-0.21141,,,0.98494,0.15642,0.07240,-0.01364,
9.64844,-319.49270,4.97649,-4.45353,0.31841,-0.19524,-0.56188,,,0.98808,0.13492,0.07306,-0.01231,
9.65625,-282.61615,10.66833,11.42287,0.98010,-0.77406,-0.93569,,,0.99045,0.11593,0.07389,-0.01003,
9.66406,-181.84084,57.34859,30.85837,0.58541,-1.24468,-0.59105,,,0.99154,0.10383,0.07764,-0.00657,
9.67188,-119.31551,65.08090,18.61086,0.22990,-1.18597,-0.55410,,,0.99200,0.09588,0.08195,-0.00422,
9.67969,2.40457,72.99220,31.34687,0.10462,-0.38980,-0.57501,,,0.99158,0.09623,0.08668,-0.00164,
9.68750,77.18775,81.51207,8.21269,0.15251,0.09198,-0.53369,,,0.99056,0.10150,0.09213,-0.00101,
9.69531,100.74204,86.05838,-5.36075,0.02965,0.38891,-0.46272,,,0.98928,0.10827,0.09797,-0.00141,
9.70313,121.96151,85.30663,-8.01264,-0.01098,0.70573,-0.35772,,,0.98776,0.11645,0.10376,-0.00213,
9.71094,123.74697,81.15409,7.61951,0.06738,0.67807,-0.33245,,,0.98615,0.12485,0.10914,-0.00185,
9.71875,123.06026,79.22101,15.64494,0.07318,0.67565,-0.32029,,,0.98447,0.13325,0.11432,-0.00104,
9.72656,119.86703,73.74396,30.19540,0.02288,0.69263,-0.28432,,,0.98276,0.14153,0.11898,0.00072,
9.73438,115.50640,66.26223,40.10506,-0.05209,0.62470,-0.26877,,,0.98106,0.14959,0.12303,0.00311,
9.74219,114.75101,62.03809,42.23355,-0.09417,0.56163,-0.27314,,,0.97931,0.15761,0.12677,0.00561,
9.75000,119.59235,51.76414,42.19865,-0.18946,0.41171,-0.30085,,,0.97752,0.16594,0.12981,0.00795,
9.75781,125.97879,45.67852,40.76803,-0.23444,0.33699,-0.31884,,,0.97563,0.17466,0.13246,0.01007,
9.76563,146.27119,31.57421,34.10344,-0.28474,0.25597,-0.34168,,,0.97352,0.18467,0.13425,0.01139,
9.77344,173.36207,16.82554,26.21758,-0.28523,0.25791,-0.37571,,,0.97109,0.19639,0.13517,0.01176,
9.78125,187.81740,9.37961,23.18187,-0.27072,0.29575,-0.37717,,,0.96839,0.20902,0.13562,0.01168,
9.78906,215.38898,-4.50992,21.26274,-0.22718,0.41656,-0.38106,,,0.96524,0.22342,0.13518,0.01103,
9.79688,238.46257,-16.68115,23.67037,-0.19526,0.54319,-0.37619,,,0.96161,0.23932,0.13388,0.01014,
9.80469,248.48860,-22.01501,25.86864,-0.18075,0.61646,-0.36550,,,0.95760,0.25582,0.13217,0.00920,
9.81250,264.11135,-31.71620,30.36987,-0.15560,0.80034,-0.33099,,,0.95310,0.27332,0.12972,0.00825,
9.82031,272.83262,-38.76836,32.18431,-0.12464,0.90368,-0.29988,,,0.94817,0.29131,0.12673,0.00721,
