Gait Up - Physilog data export
Created on: YYYY-MM-DD hh:mm:ss
Total data points: 19655

Time [128 hz],Gyro [128 hz],,,Accel [128 hz],,,Baro [1 hz],,Event [128 hz],Quaternion [128 hz],,,,
Time,Gyro X,Gyro Y,Gyro Z,Accel X,Accel Y,Accel Z,Pressure,Temperature,Quat W,Quat X,Quat Y,Quat Z,
[s],[deg/s],[deg/s],[deg/s],[g],[g],[g],[mBar],[degree C],[],[],[],[],
0.00781,-0.07161,-0.01978,-0.60818,-0.19034,0.96560,0.13929,1022.056,26.8,0.00000,0.00000,0.00000,0.00000,
0.01563,0.06621,0.08623,-0.67788,-0.19420,0.96657,0.14076,,,0.00000,0.00000,0.00000,0.00000,
0.02344,-0.00270,0.01556,-0.64303,-0.19130,0.96898,0.13880,,,0.00000,0.00000,0.00000,0.00000,
0.03125,0.10067,0.15691,-0.46878,-0.18937,0.96753,0.14272,,,0.00000,0.00000,0.00000,0.00000,
0.03906,0.03176,0.33360,-0.57333,-0.19517,0.96850,0.14076,,,0.00000,0.00000,0.00000,0.00000,
0.04688,-0.10607,0.40427,-0.78243,-0.19179,0.96705,0.14174,,,0.75509,0.64304,0.12786,0.00000,
0.05469,-0.03715,0.29826,-0.78243,-0.19468,0.96512,0.13831,,,0.75508,0.64303,0.12791,-0.00003,
0.06250,-0.20943,0.43961,-0.85213,-0.19517,0.96609,0.13684,,,0.75509,0.64301,0.12797,-0.00005,
0.07031,0.03176,0.43961,-0.71273,-0.19130,0.96464,0.13538,,,0.75508,0.64301,0.12803,-0.00007,
0.07813,-0.03715,0.33360,-0.74758,-0.19517,0.96802,0.13831,,,0.75508,0.64300,0.12808,-0.00009,
0.08594,-0.00270,0.05090,-0.64303,-0.19468,0.96657,0.13831,,,0.75508,0.64299,0.12811,-0.00012,
0.09375,0.06621,0.29826,-0.71273,-0.19855,0.96560,0.14027,,,0.75508,0.64299,0.12815,-0.00015,
0.10156,-0.14052,0.22758,-0.71273,-0.18792,0.96609,0.13635,,,0.75508,0.64298,0.12820,-0.00017,
0.10938,-0.07161,0.15691,-0.81728,-0.19952,0.96512,0.14418,,,0.75508,0.64296,0.12824,-0.00021,
0.11719,-0.17498,0.15691,-0.78243,-0.19082,0.96512,0.14418,,,0.75509,0.64295,0.12828,-0.00024,
0.12500,-0.03715,0.12157,-0.85213,-0.19372,0.96512,0.14027,,,0.75509,0.64294,0.12833,-0.00028,
0.13281,0.13513,-0.33782,-0.78243,-0.19855,0.96609,0.14418,,,0.75509,0.64294,0.12834,-0.00033,
0.14063,-0.00270,-0.40849,-0.64303,-0.19420,0.96512,0.14125,,,0.75509,0.64293,0.12835,-0.00038,
0.14844,-0.00270,-0.37315,-0.71273,-0.19565,0.96753,0.14027,,,0.75509,0.64293,0.12836,-0.00044,
0.15625,0.03176,-0.47917,-0.71273,-0.19420,0.97236,0.13733,,,0.75510,0.64292,0.12837,-0.00049,
0.16406,-0.10607,-0.30248,-0.74758,-0.18889,0.96560,0.13831,,,0.75510,0.64291,0.12839,-0.00055,
0.17188,-0.07161,-0.19647,-0.64303,-0.19420,0.96898,0.13782,,,0.75511,0.64290,0.12840,-0.00059,
0.17969,0.03176,-0.05512,-0.64303,-0.19855,0.96078,0.13733,,,0.75511,0.64290,0.12843,-0.00062,
0.18750,0.06621,-0.05512,-0.64303,-0.19275,0.96464,0.14125,,,0.75511,0.64290,0.12845,-0.00066,
0.19531,0.06621,-0.16113,-0.57333,-0.19710,0.95981,0.14614,,,0.75510,0.64289,0.12847,-0.00070,
0.20313,0.16958,-0.33782,-0.36424,-0.19323,0.96657,0.14320,,,0.75510,0.64290,0.12847,-0.00073,
0.21094,0.16958,-0.44383,-0.43393,-0.19468,0.96657,0.13391,,,0.75510,0.64290,0.12847,-0.00077,
0.21875,0.20404,-0.54984,-0.46878,-0.19034,0.96464,0.14027,,,0.75509,0.64291,0.12846,-0.00082,
0.22656,0.06621,-0.58518,-0.39909,-0.19082,0.96464,0.14125,,,0.75509,0.64291,0.12845,-0.00087,
0.23438,0.10067,-0.62052,-0.32939,-0.19468,0.97043,0.13440,,,0.75510,0.64291,0.12843,-0.00092,
0.24219,0.16958,-0.44383,-0.57333,-0.18792,0.96657,0.13782,,,0.75509,0.64292,0.12843,-0.00097,
0.25000,0.06621,-0.12579,-0.67788,-0.19323,0.96705,0.13293,,,0.75509,0.64291,0.12845,-0.00101,
0.25781,-0.14052,0.01556,-0.71273,-0.19662,0.97139,0.13929,,,0.75510,0.64290,0.12849,-0.00104,
0.26563,-0.07161,0.12157,-0.67788,-0.19034,0.96802,0.14223,,,0.75510,0.64289,0.12852,-0.00107,
0.27344,-0.10607,0.01556,-0.67788,-0.19179,0.97139,0.13538,,,0.75510,0.64288,0.12855,-0.00110,
0.28125,-0.10607,0.33360,-0.71273,-0.19855,0.96319,0.13684,,,0.75510,0.64287,0.12860,-0.00113,
0.28906,-0.20943,0.29826,-0.81728,-0.19565,0.96657,0.14076,,,0.75511,0.64285,0.12865,-0.00115,
0.29688,-0.00270,0.29826,-0.88698,-0.19420,0.96753,0.14174,,,0.75511,0.64284,0.12871,-0.00118,
0.30469,-0.03715,0.05090,-0.81728,-0.19130,0.96464,0.13489,,,0.75511,0.64283,0.12874,-0.00122,
0.31250,-0.03715,0.43961,-0.78243,-0.19662,0.96560,0.14956,,,0.75511,0.64282,0.12880,-0.00124,
0.32031,-0.07161,0.33360,-0.64303,-0.19807,0.96512,0.14369,,,0.75511,0.64281,0.12885,-0.00126,
0.32813,0.03176,0.26292,-0.74758,-0.19179,0.96174,0.13929,,,0.75510,0.64281,0.12889,-0.00129,
0.33594,0.10067,0.26292,-0.71273,-0.19565,0.96271,0.13831,,,0.75510,0.64281,0.12894,-0.00132,
0.34375,0.13513,0.01556,-0.78243,-0.19855,0.95788,0.14712,,,0.75509,0.64281,0.12897,-0.00136,
0.35156,-0.00270,0.01556,-0.60818,-0.19227,0.96705,0.14369,,,0.75509,0.64280,0.12900,-0.00139,
0.35938,0.06621,-0.33782,-0.67788,-0.19807,0.96753,0.14467,,,0.75509,0.64280,0.12901,-0.00144,
0.36719,-0.14052,-0.33782,-0.60818,-0.19372,0.96367,0.13831,,,0.75510,0.64279,0.12902,-0.00148,
0.37500,-0.07161,-0.23180,-0.71273,-0.19034,0.95740,0.13929,,,0.75510,0.64278,0.12904,-0.00153,
0.38281,-0.07161,-0.05512,-0.64303,-0.19613,0.96898,0.14125,,,0.75511,0.64277,0.12907,-0.00156,
0.39063,-0.07161,-0.01978,-0.60818,-0.19179,0.96560,0.14516,,,0.75511,0.64276,0.12909,-0.00160,
0.39844,-0.17498,0.15691,-0.57333,-0.19420,0.96705,0.13978,,,0.75512,0.64275,0.12912,-0.00162,
0.40625,0.06621,-0.05512,-0.57333,-0.19710,0.96850,0.13733,,,0.75512,0.64274,0.12915,-0.00165,
0.41406,0.06621,0.08623,-0.50363,-0.19807,0.96367,0.13880,,,0.75511,0.64274,0.12917,-0.00167,
0.42188,-0.00270,-0.05512,-0.57333,-0.19952,0.96416,0.14369,,,0.75511,0.64274,0.12920,-0.00170,
0.42969,0.10067,-0.30248,-0.39909,-0.19179,0.96753,0.14174,,,0.75511,0.64274,0.12920,-0.00174,
0.43750,0.13513,-0.23180,-0.36424,-0.19710,0.96560,0.14076,,,0.75511,0.64274,0.12920,-0.00177,
0.44531,0.20404,-0.12579,-0.50363,-0.20048,0.96271,0.14467,,,0.75510,0.64275,0.12922,-0.00180,
0.45313,0.30741,0.15691,-0.64303,-0.20097,0.95836,0.14272,,,0.75508,0.64276,0.12925,-0.00183,
0.46094,0.23849,-0.26714,-0.67788,-0.18889,0.96367,0.14418,,,0.75508,0.64277,0.12927,-0.00188,
0.46875,0.27295,-0.51451,-0.53848,-0.19034,0.96946,0.13635,,,0.75507,0.64277,0.12927,-0.00193,
0.47656,0.37632,-0.23180,-0.74758,-0.19758,0.96271,0.14663,,,0.75505,0.64279,0.12929,-0.00198,
0.48438,0.37632,-0.40849,-0.64303,-0.19275,0.96657,0.13635,,,0.75504,0.64280,0.12929,-0.00204,
0.49219,0.51414,-0.51451,-0.64303,-0.19565,0.96657,0.14125,,,0.75502,0.64282,0.12930,-0.00210,
0.50000,0.30741,-0.26714,-0.78243,-0.19565,0.97091,0.13635,,,0.75501,0.64283,0.12932,-0.00215,
0.50781,0.30741,-0.09045,-0.81728,-0.19082,0.96609,0.14027,,,0.75500,0.64284,0.12935,-0.00220,
0.51563,0.37632,0.01556,-0.81728,-0.19179,0.96222,0.13880,,,0.75498,0.64285,0.12938,-0.00225,
0.52344,0.27295,0.05090,-0.81728,-0.19468,0.96560,0.14125,,,0.75497,0.64286,0.12942,-0.00229,
0.53125,0.16958,0.08623,-0.99152,-0.19855,0.96850,0.14467,,,0.75496,0.64286,0.12947,-0.00234,
0.53906,0.23849,0.05090,-0.85213,-0.19468,0.96898,0.13880,,,0.75495,0.64286,0.12951,-0.00238,
0.54688,0.20404,0.05090,-0.88698,-0.19758,0.96802,0.13635,,,0.75494,0.64287,0.12955,-0.00243,
0.55469,0.03176,-0.01978,-0.85213,-0.18889,0.96560,0.14223,,,0.75494,0.64286,0.12959,-0.00247,
0.56250,0.03176,0.15691,-0.81728,-0.19565,0.96898,0.14125,,,0.75494,0.64285,0.12963,-0.00251,
0.57031,0.16958,0.08623,-0.78243,-0.20145,0.96126,0.14320,,,0.75493,0.64286,0.12967,-0.00254,
0.57813,0.06621,-0.16113,-0.64303,-0.19807,0.96416,0.14174,,,0.75493,0.64285,0.12969,-0.00259,
0.58594,0.16958,-0.30248,-0.53848,-0.20000,0.96319,0.14223,,,0.75492,0.64286,0.12970,-0.00263,
0.59375,0.16958,-0.30248,-0.46878,-0.19903,0.96705,0.14223,,,0.75492,0.64286,0.12970,-0.00267,
0.60156,0.06621,-0.44383,-0.29454,-0.20048,0.96222,0.13635,,,0.75492,0.64286,0.12969,-0.00270,
0.60938,0.13513,-0.44383,-0.25969,-0.20097,0.96222,0.14027,,,0.75491,0.64287,0.12968,-0.00274,
0.61719,-0.03715,-0.33782,-0.12029,-0.19468,0.96319,0.14369,,,0.75492,0.64286,0.12967,-0.00276,
0.62500,0.06621,-0.23180,-0.01574,-0.20290,0.95981,0.13929,,,0.75492,0.64287,0.12966,-0.00277,
0.63281,0.13513,-0.58518,0.12366,-0.18889,0.96416,0.13684,,,0.75492,0.64288,0.12962,-0.00279,
0.64063,0.10067,-0.65586,0.19335,-0.19323,0.96802,0.13880,,,0.75492,0.64288,0.12958,-0.00281,
0.64844,-0.10607,-0.65586,0.22820,-0.19613,0.96705,0.13880,,,0.75493,0.64288,0.12954,-0.00282,
0.65625,-0.27834,-0.54984,0.36760,-0.19710,0.96464,0.13635,,,0.75495,0.64287,0.12949,-0.00283,
0.66406,-0.31280,-0.47917,0.33275,-0.19323,0.96705,0.13831,,,0.75496,0.64285,0.12945,-0.00283,
0.67188,-0.17498,-0.72653,0.54185,-0.19179,0.96367,0.13929,,,0.75498,0.64285,0.12939,-0.00283,
0.67969,-0.31280,-0.54984,0.22820,-0.19227,0.96560,0.13782,,,0.75500,0.64284,0.12935,-0.00284,
0.68750,-0.17498,-0.51451,0.36760,-0.19323,0.96753,0.13831,,,0.75501,0.64283,0.12931,-0.00284,
0.69531,-0.34726,-0.30248,0.26305,-0.19179,0.96174,0.14027,,,0.75503,0.64281,0.12928,-0.00284,
0.70313,-0.27834,-0.37315,0.29790,-0.18937,0.96898,0.14467,,,0.75504,0.64280,0.12925,-0.00284,
0.71094,-0.31280,-0.33782,0.19335,-0.19130,0.96995,0.14174,,,0.75506,0.64279,0.12923,-0.00284,
0.71875,-0.41617,-0.26714,0.05396,-0.18937,0.96367,0.14467,,,0.75508,0.64277,0.12921,-0.00285,
0.72656,-0.51954,-0.26714,-0.12029,-0.19613,0.96367,0.14810,,,0.75511,0.64274,0.12920,-0.00286,
0.73438,-0.41617,-0.23180,-0.05059,-0.19034,0.96802,0.14174,,,0.75513,0.64272,0.12919,-0.00287,
0.74219,-0.31280,0.01556,-0.25969,-0.19323,0.96319,0.14027,,,0.75514,0.64270,0.12921,-0.00288,
0.75000,-0.41617,0.12157,-0.32939,-0.18744,0.96416,0.13587,,,0.75516,0.64267,0.12923,-0.00289,
0.75781,-0.48508,0.01556,-0.32939,-0.19855,0.96657,0.13929,,,0.75518,0.64265,0.12924,-0.00290,
0.76563,-0.34726,0.08623,-0.43393,-0.19227,0.97091,0.14223,,,0.75519,0.64263,0.12926,-0.00291,
0.77344,-0.34726,0.15691,-0.50363,-0.18889,0.96657,0.14174,,,0.75521,0.64260,0.12929,-0.00293,
0.78125,-0.27834,-0.01978,-0.50363,-0.18937,0.96657,0.14663,,,0.75522,0.64258,0.12932,-0.00295,
0.78906,-0.24389,0.29826,-0.74758,-0.19903,0.95981,0.14565,,,0.75523,0.64257,0.12936,-0.00298,
0.79688,-0.20943,0.33360,-0.71273,-0.19227,0.96609,0.14663,,,0.75523,0.64255,0.12941,-0.00300,
0.80469,-0.24389,0.26292,-0.78243,-0.19517,0.96174,0.14614,,,0.75524,0.64253,0.12946,-0.00302,
0.81250,-0.24389,0.19225,-0.92183,-0.19468,0.96657,0.14027,,,0.75525,0.64251,0.12951,-0.00306,
0.82031,-0.17498,0.43961,-0.95667,-0.19227,0.96657,0.14565,,,0.75525,0.64249,0.12958,-0.00309,
0.82813,-0.31280,0.15691,-1.06122,-0.18985,0.96657,0.14174,,,0.75526,0.64247,0.12963,-0.00313,
0.83594,-0.24389,0.54562,-1.02637,-0.19613,0.96367,0.14418,,,0.75527,0.64244,0.12970,-0.00316,
0.84375,-0.03715,0.58096,-0.99152,-0.18889,0.96222,0.13782,,,0.75527,0.64243,0.12978,-0.00319,
0.85156,-0.14052,0.82832,-1.06122,-0.19855,0.96222,0.14810,,,0.75527,0.64242,0.12987,-0.00320,
0.85938,-0.03715,0.82832,-0.99152,-0.19468,0.96464,0.14516,,,0.75526,0.64241,0.12995,-0.00322,
0.86719,-0.00270,0.51029,-0.81728,-0.19227,0.96367,0.14272,,,0.75525,0.64240,0.13001,-0.00324,
0.87500,0.16958,0.29826,-0.81728,-0.19420,0.95933,0.14516,,,0.75524,0.64240,0.13006,-0.00327,
0.88281,0.13513,0.12157,-0.78243,-0.20097,0.96416,0.14272,,,0.75524,0.64240,0.13011,-0.00330,
0.89063,0.10067,0.01556,-0.81728,-0.19903,0.96512,0.13978,,,0.75523,0.64240,0.13014,-0.00335,
0.89844,0.27295,-0.23180,-0.67788,-0.19468,0.96222,0.14467,,,0.75522,0.64241,0.13016,-0.00339,
0.90625,0.34186,-0.40849,-0.53848,-0.19903,0.96126,0.15054,,,0.75521,0.64242,0.13016,-0.00344,
0.91406,0.47969,-0.16113,-0.64303,-0.18792,0.96802,0.14712,,,0.75519,0.64244,0.13018,-0.00349,
0.92188,0.47969,0.01556,-0.71273,-0.19420,0.96657,0.14320,,,0.75517,0.64246,0.13021,-0.00353,
0.92969,0.41077,0.08623,-0.74758,-0.19952,0.96416,0.14320,,,0.75515,0.64247,0.13025,-0.00357,
0.93750,0.44523,0.26292,-0.78243,-0.19227,0.96850,0.14174,,,0.75513,0.64249,0.13030,-0.00360,
0.94531,0.34186,0.05090,-0.67788,-0.19034,0.96657,0.14223,,,0.75511,0.64250,0.13033,-0.00363,
0.95313,0.37632,-0.12579,-0.85213,-0.19179,0.95788,0.14223,,,0.75510,0.64251,0.13036,-0.00369,
0.96094,0.20404,0.15691,-0.64303,-0.19372,0.96753,0.13782,,,0.75509,0.64252,0.13040,-0.00371,
0.96875,0.27295,0.05090,-0.64303,-0.19323,0.96367,0.14320,,,0.75507,0.64252,0.13043,-0.00375,
0.97656,0.27295,-0.09045,-0.64303,-0.18792,0.96464,0.13587,,,0.75506,0.64253,0.13045,-0.00379,
0.98438,0.20404,0.08623,-0.64303,-0.18985,0.96657,0.14223,,,0.75505,0.64254,0.13048,-0.00382,
0.99219,0.06621,0.01556,-0.50363,-0.19613,0.96416,0.14125,,,0.75505,0.64254,0.13051,-0.00384,
1.00000,0.03176,0.19225,-0.43393,-0.19275,0.96078,0.14174,,,0.75505,0.64253,0.13054,-0.00386,
1.00781,-0.03715,0.26292,-0.39909,-0.20097,0.96512,0.14223,1022.100,26.8,0.75505,0.64253,0.13057,-0.00387,
1.01563,-0.00270,0.15691,-0.43393,-0.19613,0.96898,0.13831,,,0.75505,0.64252,0.13059,-0.00388,
1.02344,-0.10607,0.15691,-0.32939,-0.19710,0.96657,0.13782,,,0.75505,0.64252,0.13062,-0.00389,
1.03125,-0.27834,-0.19647,-0.43393,-0.19565,0.96657,0.13538,,,0.75506,0.64250,0.13063,-0.00392,
1.03906,-0.24389,-0.19647,-0.25969,-0.19517,0.97043,0.13635,,,0.75507,0.64248,0.13063,-0.00394,
1.04688,-0.51954,-0.09045,-0.43393,-0.19517,0.96367,0.14320,,,0.75510,0.64245,0.13064,-0.00396,
1.05469,-0.72627,0.12157,-0.36424,-0.19227,0.96946,0.13880,,,0.75513,0.64241,0.13066,-0.00397,
1.06250,-0.93301,0.15691,-0.32939,-0.18889,0.96126,0.14174,,,0.75517,0.64236,0.13069,-0.00397,
1.07031,-0.93301,0.36894,-0.39909,-0.19420,0.96560,0.14174,,,0.75521,0.64231,0.13072,-0.00397,
1.07813,-1.03637,0.40427,-0.43393,-0.18647,0.96995,0.14467,,,0.75525,0.64225,0.13076,-0.00396,
1.08594,-0.96746,0.54562,-0.50363,-0.18744,0.96657,0.14125,,,0.75528,0.64220,0.13081,-0.00396,
1.09375,-1.41539,0.96967,-0.53848,-0.18937,0.96319,0.13831,,,0.75534,0.64212,0.13089,-0.00393,
1.10156,-1.55321,1.11103,-0.57333,-0.19710,0.96464,0.14027,,,0.75540,0.64204,0.13097,-0.00389,
1.10938,-1.62212,0.89900,-0.67788,-0.20145,0.95885,0.14516,,,0.75546,0.64195,0.13105,-0.00388,
1.11719,-1.55321,0.54562,-0.64303,-0.19903,0.96609,0.14565,,,0.75552,0.64186,0.13110,-0.00387,
1.12500,-1.86332,0.08623,-0.74758,-0.17777,0.96657,0.15103,,,0.75560,0.64176,0.13114,-0.00389,
1.13281,-1.75995,1.39373,-0.74758,-0.17680,0.94919,0.12951,,,0.75567,0.64166,0.13125,-0.00385,
1.14063,-1.31202,1.95913,-0.78243,-0.19710,0.96705,0.14418,,,0.75571,0.64159,0.13138,-0.00379,
1.14844,-1.07083,2.10048,-0.81728,-0.20822,0.96126,0.14320,,,0.75573,0.64152,0.13153,-0.00373,
1.15625,-1.10529,0.96967,-0.85213,-0.20242,0.96560,0.14956,,,0.75577,0.64146,0.13161,-0.00373,
1.16406,-0.82964,0.58096,-0.67788,-0.19082,0.96802,0.14810,,,0.75580,0.64141,0.13167,-0.00373,
1.17188,-0.82964,0.12157,-0.67788,-0.19855,0.96029,0.15299,,,0.75584,0.64136,0.13171,-0.00375,
1.17969,-0.82964,-0.19647,-0.74758,-0.20000,0.95788,0.14810,,,0.75588,0.64131,0.13173,-0.00379,
1.18750,-0.62290,0.29826,-0.78243,-0.19710,0.96560,0.15250,,,0.75590,0.64127,0.13178,-0.00381,
1.19531,-0.58845,-0.01978,-0.64303,-0.19323,0.96222,0.14418,,,0.75593,0.64124,0.13181,-0.00384,
1.20313,-0.51954,0.61630,-0.71273,-0.19372,0.96464,0.14663,,,0.75594,0.64121,0.13187,-0.00385,
1.21094,-0.34726,1.14636,-0.74758,-0.19034,0.96512,0.14908,,,0.75595,0.64118,0.13196,-0.00383,
1.21875,-0.31280,1.04035,-0.74758,-0.19372,0.96222,0.14859,,,0.75595,0.64116,0.13205,-0.00382,
1.22656,-0.17498,0.51029,-0.78243,-0.19710,0.96464,0.14223,,,0.75596,0.64114,0.13211,-0.00384,
1.23438,-0.34726,0.68697,-0.92183,-0.19517,0.96126,0.14712,,,0.75596,0.64112,0.13219,-0.00385,
1.24219,-0.34726,0.89900,-0.95667,-0.19323,0.96560,0.15495,,,0.75597,0.64109,0.13228,-0.00386,
1.25000,-0.34726,0.54562,-1.06122,-0.19227,0.96271,0.15152,,,0.75598,0.64106,0.13235,-0.00389,
1.25781,-0.07161,0.54562,-1.09607,-0.19710,0.95885,0.14908,,,0.75598,0.64105,0.13243,-0.00392,
1.26563,0.13513,0.58096,-1.20062,-0.20193,0.95402,0.15054,,,0.75597,0.64105,0.13251,-0.00396,
1.27344,0.10067,0.75765,-1.37487,-0.19179,0.96319,0.14810,,,0.75596,0.64104,0.13261,-0.00400,
1.28125,0.03176,0.93434,-1.30517,-0.19807,0.96029,0.14908,,,0.75595,0.64103,0.13271,-0.00402,
1.28906,0.10067,0.93434,-1.44457,-0.20242,0.96319,0.14418,,,0.75593,0.64102,0.13282,-0.00406,
1.29688,0.20404,0.89900,-1.58396,-0.19903,0.96078,0.14761,,,0.75591,0.64102,0.13294,-0.00410,
1.30469,0.47969,1.00501,-1.58396,-0.19952,0.96512,0.14859,,,0.75588,0.64103,0.13306,-0.00414,
1.31250,0.41077,0.96967,-1.58396,-0.20000,0.96126,0.14810,,,0.75586,0.64104,0.13318,-0.00419,
1.32031,0.54860,0.51029,-1.68851,-0.20145,0.96850,0.14810,,,0.75583,0.64105,0.13328,-0.00426,
1.32813,0.47969,0.72231,-1.61881,-0.19662,0.96416,0.14418,,,0.75580,0.64106,0.13339,-0.00431,
1.33594,0.58305,0.75765,-1.54911,-0.19227,0.96464,0.14859,,,0.75577,0.64107,0.13349,-0.00436,
1.34375,0.58305,0.82832,-1.65366,-0.19082,0.96367,0.14369,,,0.75573,0.64109,0.13361,-0.00442,
1.35156,0.51414,0.82832,-1.75821,-0.20532,0.96512,0.14076,,,0.75570,0.64110,0.13373,-0.00448,
1.35938,0.44523,0.54562,-1.68851,-0.20145,0.96319,0.14761,,,0.75568,0.64111,0.13383,-0.00454,
1.36719,0.61751,0.33360,-1.61881,-0.19903,0.96560,0.14320,,,0.75565,0.64113,0.13392,-0.00462,
1.37500,0.72088,0.19225,-1.51426,-0.20048,0.96802,0.14614,,,0.75561,0.64115,0.13399,-0.00469,
1.38281,0.75533,0.22758,-1.51426,-0.19807,0.96657,0.14369,,,0.75558,0.64117,0.13407,-0.00477,
1.39063,0.68642,0.12157,-1.61881,-0.20242,0.96512,0.14223,,,0.75555,0.64119,0.13415,-0.00485,
1.39844,0.65196,-0.09045,-1.51426,-0.19710,0.96464,0.14027,,,0.75552,0.64121,0.13421,-0.00494,
1.40625,0.41077,0.01556,-1.47942,-0.19952,0.96657,0.14027,,,0.75550,0.64122,0.13427,-0.00502,
1.41406,0.51414,-0.16113,-1.54911,-0.19903,0.96609,0.13831,,,0.75548,0.64123,0.13433,-0.00511,
1.42188,0.44523,-0.05512,-1.51426,-0.19758,0.96560,0.13733,,,0.75546,0.64124,0.13440,-0.00520,
1.42969,0.37632,-0.01978,-1.34002,-0.19758,0.96367,0.14859,,,0.75544,0.64125,0.13445,-0.00527,
1.43750,0.16958,0.08623,-1.30517,-0.20242,0.96367,0.13978,,,0.75543,0.64125,0.13452,-0.00534,
1.44531,-0.07161,0.26292,-1.37487,-0.20290,0.96174,0.14320,,,0.75543,0.64123,0.13459,-0.00539,
1.45313,0.20404,0.01556,-1.34002,-0.19807,0.96995,0.14076,,,0.75542,0.64123,0.13465,-0.00546,
1.46094,0.13513,-0.33782,-1.13092,-0.19662,0.96753,0.13733,,,0.75542,0.64123,0.13468,-0.00554,
1.46875,0.20404,-0.40849,-1.16577,-0.20145,0.97043,0.14712,,,0.75542,0.64123,0.13471,-0.00562,
1.47656,0.06621,-0.47917,-1.02637,-0.19952,0.96512,0.14125,,,0.75542,0.64122,0.13473,-0.00569,
1.48438,0.13513,-0.12579,-1.09607,-0.19468,0.96174,0.14614,,,0.75541,0.64122,0.13477,-0.00576,
1.49219,0.20404,-0.12579,-1.20062,-0.20000,0.96802,0.14272,,,0.75540,0.64122,0.13482,-0.00583,
1.50000,-0.07161,0.01556,-1.06122,-0.19662,0.96319,0.14418,,,0.75541,0.64120,0.13487,-0.00588,
1.50781,0.16958,-0.23180,-1.06122,-0.20193,0.95981,0.14320,,,0.75540,0.64120,0.13490,-0.00594,
1.51563,0.27295,-0.30248,-0.99152,-0.20290,0.96222,0.14516,,,0.75539,0.64121,0.13493,-0.00601,
1.52344,0.06621,-0.12579,-0.92183,-0.19952,0.96319,0.14516,,,0.75539,0.64120,0.13496,-0.00607,
1.53125,0.13513,-0.26714,-1.06122,-0.20193,0.96029,0.14174,,,0.75538,0.64120,0.13499,-0.00613,
1.53906,0.16958,-0.19647,-0.92183,-0.20000,0.96367,0.14174,,,0.75538,0.64120,0.13502,-0.00619,
1.54688,0.37632,-0.23180,-0.81728,-0.19710,0.96560,0.14320,,,0.75536,0.64121,0.13505,-0.00625,
1.55469,0.34186,-0.26714,-0.92183,-0.20000,0.96174,0.13831,,,0.75535,0.64122,0.13507,-0.00631,
1.56250,0.16958,-0.12579,-1.02637,-0.19758,0.96753,0.14272,,,0.75534,0.64122,0.13511,-0.00637,
1.57031,0.23849,0.05090,-1.13092,-0.19565,0.96464,0.14369,,,0.75533,0.64122,0.13516,-0.00643,
1.57813,0.13513,0.15691,-1.20062,-0.20048,0.95692,0.14908,,,0.75532,0.64122,0.13522,-0.00648,
1.58594,0.27295,0.05090,-1.23547,-0.19807,0.97139,0.14418,,,0.75531,0.64122,0.13528,-0.00655,
1.59375,0.20404,0.47495,-1.30517,-0.19323,0.96464,0.14320,,,0.75530,0.64122,0.13536,-0.00659,
1.60156,0.20404,0.79299,-1.65366,-0.19710,0.96753,0.13929,,,0.75528,0.64121,0.13548,-0.00665,
1.60938,0.13513,0.93434,-1.65366,-0.19952,0.96222,0.14810,,,0.75527,0.64120,0.13560,-0.00669,
1.61719,0.23849,0.93434,-1.86276,-0.19613,0.96464,0.14076,,,0.75525,0.64120,0.13573,-0.00675,
1.62500,0.20404,1.25238,-1.86276,-0.19710,0.96271,0.14125,,,0.75522,0.64119,0.13587,-0.00679,
1.63281,0.06621,1.32305,-2.00216,-0.20338,0.95643,0.15054,,,0.75521,0.64118,0.13603,-0.00684,
1.64063,-0.00270,1.32305,-2.14155,-0.20242,0.96464,0.14418,,,0.75519,0.64116,0.13619,-0.00689,
1.64844,-0.00270,1.21704,-2.21125,-0.20387,0.96464,0.14810,,,0.75518,0.64114,0.13635,-0.00695,
1.65625,0.23849,0.93434,-2.31580,-0.19807,0.96319,0.13880,,,0.75516,0.64113,0.13650,-0.00703,
1.66406,0.51414,1.18170,-2.28095,-0.20097,0.96126,0.13489,,,0.75513,0.64114,0.13666,-0.00710,
1.67188,0.58305,1.07569,-2.31580,-0.20145,0.96078,0.14516,,,0.75509,0.64115,0.13681,-0.00718,
1.67969,0.47969,1.14636,-2.28095,-0.20870,0.96512,0.15054,,,0.75506,0.64115,0.13697,-0.00725,
1.68750,0.68642,0.89900,-2.21125,-0.20145,0.96271,0.13978,,,0.75502,0.64116,0.13711,-0.00733,
1.69531,0.68642,1.04035,-2.21125,-0.20628,0.96657,0.14272,,,0.75498,0.64118,0.13726,-0.00741,
1.70313,0.85870,1.07569,-2.24610,-0.19952,0.96367,0.13684,,,0.75493,0.64120,0.13742,-0.00748,
1.71094,0.65196,1.32305,-2.24610,-0.20725,0.96029,0.14272,,,0.75489,0.64122,0.13758,-0.00755,
1.71875,0.68642,1.49974,-2.31580,-0.20677,0.96078,0.14663,,,0.75484,0.64123,0.13776,-0.00761,
1.72656,0.58305,1.00501,-2.24610,-0.20483,0.96946,0.13684,,,0.75481,0.64124,0.13791,-0.00769,
1.73438,0.61751,0.93434,-2.17640,-0.20338,0.96657,0.14712,,,0.75477,0.64125,0.13805,-0.00776,
1.74219,0.72088,0.82832,-2.03700,-0.20435,0.96319,0.14369,,,0.75473,0.64127,0.13819,-0.00784,
1.75000,0.75533,0.86366,-2.00216,-0.20387,0.96029,0.13831,,,0.75469,0.64129,0.13832,-0.00791,
1.75781,0.68642,0.86366,-1.93246,-0.20628,0.96222,0.13489,,,0.75465,0.64131,0.13845,-0.00798,
1.76563,0.44523,1.07569,-1.75821,-0.20193,0.95402,0.14174,,,0.75462,0.64132,0.13858,-0.00803,
1.77344,0.65196,0.75765,-1.51426,-0.20628,0.96657,0.14369,,,0.75458,0.64134,0.13868,-0.00808,
1.78125,0.78979,0.61630,-1.44457,-0.20918,0.96946,0.13880,,,0.75454,0.64136,0.13878,-0.00813,
1.78906,0.75533,0.33360,-1.23547,-0.20870,0.96946,0.14125,,,0.75450,0.64139,0.13885,-0.00819,
1.79688,0.75533,0.08623,-1.02637,-0.21257,0.96416,0.14956,,,0.75447,0.64142,0.13890,-0.00824,
1.80469,0.61751,0.19225,-1.02637,-0.20145,0.96609,0.14125,,,0.75444,0.64144,0.13895,-0.00829,
1.81250,0.82424,0.08623,-0.99152,-0.21401,0.95740,0.14908,,,0.75440,0.64147,0.13900,-0.00835,
1.82031,0.75533,0.05090,-0.92183,-0.19903,0.96319,0.13880,,,0.75437,0.64150,0.13904,-0.00840,
1.82813,0.85870,0.01556,-0.92183,-0.21643,0.96174,0.14614,,,0.75433,0.64154,0.13908,-0.00846,
1.83594,0.96207,-0.16113,-1.06122,-0.20580,0.96850,0.13782,,,0.75429,0.64158,0.13912,-0.00853,
1.84375,0.85870,0.12157,-0.99152,-0.20048,0.96126,0.13195,,,0.75425,0.64161,0.13917,-0.00858,
1.85156,1.13435,0.22758,-0.92183,-0.21401,0.95885,0.13391,,,0.75420,0.64166,0.13922,-0.00863,
1.85938,1.03098,0.01556,-1.09607,-0.20193,0.96946,0.13146,,,0.75415,0.64171,0.13927,-0.00870,
1.86719,0.65196,0.43961,-0.99152,-0.20677,0.95836,0.14125,,,0.75412,0.64173,0.13933,-0.00873,
1.87500,0.54860,0.54562,-1.16577,-0.20000,0.95788,0.13782,,,0.75409,0.64175,0.13941,-0.00877,
1.88281,0.82424,0.29826,-0.95667,-0.21353,0.96560,0.13831,,,0.75405,0.64178,0.13947,-0.00882,
1.89063,0.65196,-0.19647,-1.09607,-0.20580,0.96512,0.13587,,,0.75402,0.64180,0.13951,-0.00889,
1.89844,0.34186,-0.23180,-1.09607,-0.19807,0.96416,0.14418,,,0.75401,0.64181,0.13954,-0.00896,
1.90625,0.44523,0.19225,-1.13092,-0.20532,0.96416,0.14223,,,0.75398,0.64182,0.13960,-0.00901,
1.91406,0.51414,0.29826,-1.23547,-0.20773,0.96946,0.13929,,,0.75396,0.64184,0.13967,-0.00907,
1.92188,0.51414,0.43961,-1.37487,-0.20532,0.96464,0.14516,,,0.75393,0.64185,0.13975,-0.00912,
1.92969,0.75533,0.29826,-1.30517,-0.20967,0.96512,0.14369,,,0.75389,0.64188,0.13982,-0.00919,
1.93750,0.68642,0.19225,-1.44457,-0.20822,0.96512,0.14761,,,0.75386,0.64190,0.13990,-0.00926,
1.94531,0.68642,-0.09045,-1.37487,-0.21208,0.96609,0.14125,,,0.75383,0.64192,0.13995,-0.00934,
1.95313,0.72088,-0.44383,-1.44457,-0.20967,0.97043,0.13635,,,0.75380,0.64195,0.13999,-0.00944,
1.96094,0.75533,-0.72653,-1.27032,-0.20918,0.96802,0.13440,,,0.75378,0.64197,0.14001,-0.00954,
1.96875,0.58305,-0.51451,-1.20062,-0.21063,0.96609,0.13831,,,0.75375,0.64199,0.14004,-0.00963,
1.97656,0.68642,-0.47917,-0.92183,-0.21112,0.96271,0.13978,,,0.75373,0.64202,0.14005,-0.00971,
1.98438,0.65196,-0.58518,-1.06122,-0.20773,0.96609,0.13635,,,0.75370,0.64204,0.14007,-0.00980,
1.99219,0.61751,-0.44383,-0.88698,-0.21788,0.96753,0.14125,,,0.75368,0.64206,0.14008,-0.00987,
2.00000,0.61751,-0.86788,-0.92183,-0.20145,0.96174,0.13733,,,0.75366,0.64208,0.14008,-0.00996,
2.00781,0.65196,-1.68065,-0.71273,-0.20483,0.96512,0.13684,1022.074,26.8,0.75365,0.64211,0.14002,-0.01007,
2.01563,1.09989,-1.25660,-0.67788,-0.20677,0.96995,0.13880,,,0.75361,0.64216,0.13999,-0.01017,
2.02344,0.58305,-0.76187,-0.81728,-0.20967,0.96512,0.14076,,,0.75359,0.64218,0.13998,-0.01026,
2.03125,0.65196,-1.36261,-0.57333,-0.20870,0.96705,0.13978,,,0.75358,0.64221,0.13994,-0.01035,
2.03906,0.58305,-1.50396,-0.53848,-0.21160,0.96512,0.13538,,,0.75357,0.64223,0.13988,-0.01045,
2.04688,0.58305,-1.64531,-0.36424,-0.20097,0.96174,0.13440,,,0.75356,0.64226,0.13981,-0.01055,
2.05469,0.61751,-1.89267,-0.29454,-0.20725,0.96850,0.13635,,,0.75355,0.64228,0.13973,-0.01065,
2.06250,0.58305,-1.39795,-0.22484,-0.20387,0.96367,0.13146,,,0.75353,0.64231,0.13967,-0.01073,
2.07031,0.47969,-1.11525,-0.18999,-0.20242,0.96416,0.13440,,,0.75352,0.64233,0.13962,-0.01079,
2.07813,0.20404,-1.15058,-0.22484,-0.20773,0.96850,0.13635,,,0.75353,0.64234,0.13957,-0.01086,
2.08594,0.30741,-1.11525,-0.08544,-0.20918,0.96946,0.13733,,,0.75352,0.64236,0.13951,-0.01091,
2.09375,0.27295,-1.00923,-0.25969,-0.20725,0.97043,0.13244,,,0.75352,0.64237,0.13947,-0.01097,
2.10156,0.16958,-1.07991,-0.08544,-0.20725,0.96560,0.14174,,,0.75352,0.64237,0.13942,-0.01102,
2.10938,0.23849,-1.07991,-0.18999,-0.20048,0.96222,0.13831,,,0.75352,0.64238,0.13937,-0.01108,
2.11719,0.23849,-1.00923,-0.08544,-0.20532,0.96705,0.14125,,,0.75352,0.64239,0.13933,-0.01113,
2.12500,0.23849,-1.15058,-0.08544,-0.19952,0.96222,0.14027,,,0.75352,0.64240,0.13927,-0.01119,
2.13281,0.10067,-0.54984,-0.36424,-0.20435,0.96174,0.13733,,,0.75352,0.64241,0.13926,-0.01124,
2.14063,0.16958,-0.58518,-0.36424,-0.20580,0.96512,0.13929,,,0.75352,0.64241,0.13924,-0.01128,
2.14844,0.23849,-0.83254,-0.57333,-0.20048,0.96174,0.13684,,,0.75352,0.64242,0.13923,-0.01135,
2.15625,0.41077,-0.72653,-0.60818,-0.19710,0.95885,0.13684,,,0.75351,0.64243,0.13922,-0.01142,
2.16406,0.41077,-0.40849,-0.74758,-0.19903,0.96174,0.13831,,,0.75349,0.64244,0.13923,-0.01148,
2.17188,0.20404,-0.12579,-0.95667,-0.20628,0.96367,0.13635,,,0.75348,0.64245,0.13926,-0.01153,
2.17969,0.06621,-0.16113,-0.95667,-0.20580,0.96319,0.13880,,,0.75348,0.64244,0.13930,-0.01159,
2.18750,-0.03715,0.05090,-1.02637,-0.20290,0.95692,0.13929,,,0.75348,0.64243,0.13934,-0.01164,
2.19531,-0.07161,-0.09045,-1.06122,-0.20677,0.96319,0.13587,,,0.75348,0.64241,0.13938,-0.01170,
2.20313,-0.10607,0.58096,-1.16577,-0.20242,0.96416,0.13244,,,0.75348,0.64240,0.13947,-0.01173,
2.21094,-0.34726,0.96967,-1.34002,-0.20290,0.96174,0.13880,,,0.75349,0.64237,0.13957,-0.01175,
2.21875,-0.20943,0.72231,-1.30517,-0.19758,0.96271,0.13684,,,0.75349,0.64235,0.13967,-0.01179,
2.22656,0.06621,0.61630,-1.40972,-0.20580,0.96464,0.13684,,,0.75348,0.64234,0.13976,-0.01183,
2.23438,-0.07161,0.89900,-1.68851,-0.20822,0.96995,0.13342,,,0.75347,0.64232,0.13988,-0.01188,
2.24219,-0.07161,0.47495,-1.65366,-0.21401,0.96078,0.14369,,,0.75347,0.64230,0.13998,-0.01194,
2.25000,-0.14052,0.47495,-1.65366,-0.21353,0.96560,0.14956,,,0.75347,0.64228,0.14008,-0.01201,
2.25781,0.03176,0.05090,-1.47942,-0.20580,0.97139,0.13440,,,0.75347,0.64226,0.14014,-0.01208,
2.26563,-0.24389,0.33360,-1.79306,-0.20580,0.96271,0.13684,,,0.75347,0.64223,0.14024,-0.01216,
2.27344,0.06621,-0.01978,-1.75821,-0.20193,0.96222,0.12657,,,0.75347,0.64222,0.14032,-0.01225,
2.28125,-0.24389,0.22758,-1.68851,-0.20967,0.96657,0.14027,,,0.75348,0.64219,0.14040,-0.01232,
2.28906,-0.07161,0.58096,-1.51426,-0.21160,0.96222,0.13195,,,0.75347,0.64217,0.14050,-0.01237,
2.29688,-0.38171,0.58096,-1.61881,-0.21063,0.97429,0.14125,,,0.75348,0.64214,0.14060,-0.01243,
2.30469,0.03176,-0.97389,-1.37487,-0.20822,0.95499,0.11042,,,0.75349,0.64213,0.14061,-0.01254,
2.31250,-0.65736,1.67643,-1.54911,-0.21450,0.96753,0.14418,,,0.75350,0.64208,0.14076,-0.01254,
2.32031,-1.17420,1.99447,-1.37487,-0.20580,0.95788,0.13293,,,0.75353,0.64201,0.14093,-0.01251,
2.32813,-0.58845,0.36894,-0.81728,-0.21981,0.96705,0.13097,,,0.75355,0.64197,0.14098,-0.01253,
2.33594,-0.86409,0.79299,-0.53848,-0.21305,0.96222,0.13342,,,0.75358,0.64192,0.14105,-0.01252,
2.34375,-1.00192,0.93434,-0.53848,-0.21595,0.96319,0.14320,,,0.75362,0.64187,0.14112,-0.01250,
2.35156,-0.76073,0.26292,0.01911,-0.21401,0.96464,0.13782,,,0.75365,0.64183,0.14113,-0.01248,
2.35938,-0.82964,0.29826,0.29790,-0.21401,0.96512,0.13684,,,0.75368,0.64179,0.14114,-0.01244,
2.36719,-0.82964,0.22758,0.43730,-0.21401,0.96802,0.14516,,,0.75372,0.64175,0.14113,-0.01240,
2.37500,-0.72627,-0.05512,0.82064,-0.21885,0.96319,0.14320,,,0.75375,0.64172,0.14109,-0.01235,
2.38281,-1.00192,-0.62052,0.99489,-0.21353,0.96029,0.14223,,,0.75380,0.64168,0.14102,-0.01232,
2.39063,-0.82964,-0.90322,1.13429,-0.21595,0.95933,0.14761,,,0.75384,0.64165,0.14092,-0.01229,
2.39844,-0.58845,-1.18592,1.34338,-0.20628,0.96319,0.14369,,,0.75388,0.64163,0.14080,-0.01227,
2.40625,-0.48508,-1.25660,1.44793,-0.21112,0.96078,0.14272,,,0.75392,0.64161,0.14067,-0.01225,
2.41406,-0.58845,-1.57463,1.62218,-0.20387,0.95885,0.14174,,,0.75396,0.64160,0.14052,-0.01223,
2.42188,-0.65736,-1.18592,1.62218,-0.20290,0.96029,0.14223,,,0.75400,0.64158,0.14039,-0.01219,
2.42969,-0.27834,-1.43328,1.58733,-0.20048,0.95981,0.14320,,,0.75403,0.64158,0.14025,-0.01217,
2.43750,-0.24389,-1.39795,1.44793,-0.20193,0.97091,0.14223,,,0.75405,0.64158,0.14011,-0.01215,
2.44531,-0.27834,-1.11525,1.41308,-0.19468,0.95885,0.14174,,,0.75408,0.64158,0.13999,-0.01212,
2.45313,-0.14052,-1.53930,1.34338,-0.19807,0.95981,0.13195,,,0.75410,0.64158,0.13986,-0.01212,
2.46094,-0.17498,-1.04457,0.99489,-0.20000,0.96850,0.14272,,,0.75412,0.64158,0.13976,-0.01211,
2.46875,-0.20943,-0.93856,0.85549,-0.20290,0.96078,0.14174,,,0.75414,0.64158,0.13967,-0.01211,
2.47656,-0.07161,-1.53930,0.85549,-0.19807,0.96078,0.13782,,,0.75416,0.64158,0.13956,-0.01213,
2.48438,0.03176,-0.97389,0.54185,-0.19903,0.96367,0.14712,,,0.75416,0.64159,0.13948,-0.01215,
2.49219,0.16958,-0.65586,0.54185,-0.20000,0.96078,0.15152,,,0.75416,0.64160,0.13943,-0.01215,
2.50000,0.10067,-0.58518,0.33275,-0.19952,0.96367,0.14614,,,0.75416,0.64161,0.13938,-0.01216,
2.50781,-0.03715,0.12157,-0.18999,-0.20435,0.95981,0.14027,,,0.75416,0.64160,0.13940,-0.01216,
2.51563,0.27295,-0.51451,-0.22484,-0.19952,0.96078,0.14125,,,0.75416,0.64162,0.13938,-0.01220,
2.52344,0.30741,-0.69119,-0.15514,-0.20483,0.96319,0.14076,,,0.75415,0.64163,0.13935,-0.01224,
2.53125,0.23849,-0.90322,-0.29454,-0.20387,0.95836,0.14516,,,0.75415,0.64164,0.13932,-0.01230,
2.53906,0.34186,-1.11525,-0.53848,-0.19710,0.96029,0.14418,,,0.75414,0.64165,0.13928,-0.01238,
2.54688,0.51414,-1.15058,-0.46878,-0.20193,0.95933,0.14223,,,0.75413,0.64167,0.13924,-0.01246,
2.55469,0.47969,-1.39795,-0.67788,-0.19323,0.95933,0.13929,,,0.75412,0.64169,0.13920,-0.01256,
2.56250,0.72088,-0.86788,-0.78243,-0.20145,0.96319,0.13978,,,0.75410,0.64172,0.13919,-0.01264,
2.57031,0.65196,-0.83254,-0.81728,-0.19952,0.96126,0.13831,,,0.75408,0.64174,0.13918,-0.01273,
2.57813,0.58305,-0.58518,-0.88698,-0.20290,0.96946,0.14076,,,0.75406,0.64176,0.13919,-0.01280,
2.58594,0.44523,-0.37315,-0.88698,-0.20532,0.96753,0.14027,,,0.75404,0.64178,0.13921,-0.01287,
2.59375,0.61751,-0.40849,-1.06122,-0.19903,0.96560,0.14272,,,0.75402,0.64180,0.13923,-0.01295,
2.60156,0.68642,-0.54984,-0.95667,-0.20532,0.97091,0.13831,,,0.75399,0.64182,0.13925,-0.01303,
2.60938,0.47969,-0.47917,-1.02637,-0.20435,0.97236,0.13391,,,0.75397,0.64184,0.13927,-0.01311,
2.61719,0.54860,-0.86788,-1.09607,-0.20338,0.97091,0.13489,,,0.75396,0.64186,0.13927,-0.01320,
2.62500,0.51414,-1.04457,-1.09607,-0.20532,0.96946,0.13587,,,0.75394,0.64187,0.13926,-0.01331,
2.63281,0.27295,-0.86788,-1.06122,-0.20628,0.96657,0.13293,,,0.75394,0.64187,0.13927,-0.01341,
2.64063,0.20404,-1.11525,-0.92183,-0.20628,0.96560,0.13587,,,0.75394,0.64188,0.13925,-0.01350,
2.64844,0.37632,-1.07991,-0.78243,-0.19855,0.96416,0.13684,,,0.75393,0.64189,0.13923,-0.01360,
2.65625,0.30741,-0.76187,-0.78243,-0.20338,0.96416,0.13538,,,0.75393,0.64189,0.13922,-0.01367,
2.66406,-0.03715,-0.51451,-0.85213,-0.19903,0.95643,0.14125,,,0.75393,0.64188,0.13923,-0.01374,
2.67188,0.10067,-0.05512,-0.67788,-0.20967,0.96271,0.13635,,,0.75393,0.64188,0.13926,-0.01378,
2.67969,0.13513,-0.09045,-0.78243,-0.20290,0.96753,0.14174,,,0.75392,0.64188,0.13929,-0.01382,
2.68750,0.16958,-0.23180,-0.81728,-0.20628,0.97188,0.13391,,,0.75391,0.64188,0.13931,-0.01388,
2.69531,0.30741,-0.69119,-0.78243,-0.20628,0.96850,0.13489,,,0.75391,0.64189,0.13931,-0.01395,
2.70313,0.10067,-0.69119,-0.85213,-0.20967,0.96946,0.13782,,,0.75391,0.64189,0.13931,-0.01402,
2.71094,-0.00270,-0.47917,-0.99152,-0.20677,0.96319,0.14272,,,0.75391,0.64188,0.13933,-0.01410,
2.71875,-0.10607,-0.51451,-0.99152,-0.20338,0.96609,0.14320,,,0.75392,0.64186,0.13935,-0.01417,
2.72656,-0.10607,-0.37315,-1.02637,-0.20000,0.96078,0.13978,,,0.75393,0.64185,0.13937,-0.01424,
2.73438,-0.03715,-0.12579,-1.09607,-0.19855,0.96367,0.13489,,,0.75393,0.64183,0.13942,-0.01430,
2.74219,-0.20943,0.33360,-1.20062,-0.20097,0.95595,0.13440,,,0.75393,0.64181,0.13948,-0.01434,
2.75000,-0.24389,0.33360,-1.30517,-0.20290,0.96271,0.13635,,,0.75394,0.64179,0.13956,-0.01439,
2.75781,-0.20943,0.43961,-1.13092,-0.20048,0.96271,0.13538,,,0.75394,0.64177,0.13963,-0.01443,
2.76563,-0.14052,0.40427,-1.16577,-0.19855,0.96222,0.13782,,,0.75395,0.64175,0.13970,-0.01447,
2.77344,-0.27834,0.58096,-1.27032,-0.20290,0.96126,0.13538,,,0.75395,0.64172,0.13979,-0.01451,
2.78125,-0.17498,0.19225,-1.13092,-0.20145,0.95643,0.13538,,,0.75396,0.64170,0.13985,-0.01456,
2.78906,-0.17498,0.08623,-1.16577,-0.20145,0.95933,0.13978,,,0.75396,0.64168,0.13990,-0.01461,
2.79688,-0.14052,0.22758,-1.09607,-0.20773,0.97139,0.13978,,,0.75396,0.64166,0.13996,-0.01466,
2.80469,-0.10607,0.43961,-1.13092,-0.20532,0.96174,0.13880,,,0.75396,0.64165,0.14004,-0.01469,
2.81250,-0.10607,0.33360,-1.13092,-0.20870,0.96319,0.14467,,,0.75396,0.64163,0.14010,-0.01474,
2.82031,-0.10607,0.26292,-1.02637,-0.19952,0.96367,0.13782,,,0.75396,0.64162,0.14016,-0.01478,
2.82813,-0.03715,0.47495,-0.95667,-0.20193,0.96367,0.14027,,,0.75396,0.64161,0.14023,-0.01480,
2.83594,-0.03715,0.54562,-1.06122,-0.19952,0.96416,0.14125,,,0.75396,0.64160,0.14030,-0.01483,
2.84375,-0.00270,0.29826,-1.09607,-0.20242,0.96174,0.13635,,,0.75395,0.64159,0.14037,-0.01488,
2.85156,-0.07161,0.29826,-1.06122,-0.20725,0.96560,0.13929,,,0.75395,0.64157,0.14043,-0.01492,
2.85938,-0.20943,0.33360,-1.02637,-0.19952,0.95981,0.13978,,,0.75396,0.64155,0.14049,-0.01495,
2.86719,-0.07161,0.47495,-1.16577,-0.20532,0.96222,0.13489,,,0.75395,0.64154,0.14057,-0.01499,
2.87500,-0.07161,0.26292,-1.06122,-0.20193,0.96464,0.13587,,,0.75395,0.64152,0.14063,-0.01504,
2.88281,-0.17498,0.36894,-1.09607,-0.20822,0.96319,0.14272,,,0.75396,0.64150,0.14069,-0.01507,
2.89063,-0.00270,0.29826,-1.02637,-0.20628,0.96464,0.14467,,,0.75395,0.64149,0.14075,-0.01511,
2.89844,-0.00270,0.22758,-1.06122,-0.20725,0.96802,0.13782,,,0.75395,0.64148,0.14081,-0.01516,
2.90625,0.06621,0.36894,-1.09607,-0.20628,0.96802,0.14223,,,0.75394,0.64148,0.14088,-0.01520,
2.91406,0.13513,0.29826,-1.06122,-0.20677,0.96464,0.13929,,,0.75393,0.64148,0.14094,-0.01524,
2.92188,0.03176,0.33360,-0.99152,-0.20483,0.96753,0.14663,,,0.75393,0.64147,0.14100,-0.01528,
2.92969,0.16958,0.26292,-0.99152,-0.20870,0.96367,0.14418,,,0.75392,0.64147,0.14106,-0.01532,
2.93750,0.20404,0.22758,-0.99152,-0.20290,0.96464,0.13782,,,0.75390,0.64147,0.14111,-0.01536,
2.94531,0.27295,0.29826,-0.99152,-0.20967,0.96898,0.13587,,,0.75389,0.64147,0.14117,-0.01540,
2.95313,0.30741,0.19225,-1.09607,-0.20725,0.96271,0.13978,,,0.75387,0.64148,0.14123,-0.01545,
2.96094,0.13513,-0.12579,-0.92183,-0.20677,0.96609,0.14320,,,0.75387,0.64148,0.14126,-0.01551,
2.96875,0.23849,-0.09045,-0.85213,-0.20000,0.96802,0.13782,,,0.75385,0.64148,0.14129,-0.01556,
2.97656,0.27295,-0.01978,-0.88698,-0.20532,0.96753,0.14027,,,0.75384,0.64149,0.14133,-0.01561,
2.98438,0.30741,-0.19647,-0.74758,-0.19903,0.96367,0.13440,,,0.75383,0.64149,0.14135,-0.01566,
2.99219,0.20404,-0.05512,-0.74758,-0.20918,0.96657,0.13684,,,0.75382,0.64150,0.14138,-0.01570,
3.00000,0.37632,0.08623,-0.71273,-0.20918,0.96367,0.14810,,,0.75380,0.64151,0.14142,-0.01574,
3.00781,0.06621,-0.01978,-0.71273,-0.21063,0.96416,0.13733,1022.095,26.8,0.75380,0.64151,0.14145,-0.01577,
3.01563,0.03176,0.12157,-0.67788,-0.20773,0.96367,0.14320,,,0.75380,0.64150,0.14148,-0.01580,
3.02344,0.16958,-0.26714,-0.67788,-0.21063,0.96367,0.14076,,,0.75379,0.64150,0.14150,-0.01585,
3.03125,0.13513,-0.37315,-0.64303,-0.20338,0.96657,0.14272,,,0.75379,0.64150,0.14151,-0.01590,
3.03906,0.10067,-0.37315,-0.71273,-0.20097,0.96464,0.13391,,,0.75379,0.64150,0.14152,-0.01596,
3.04688,0.16958,-0.40849,-0.67788,-0.20193,0.96802,0.14320,,,0.75378,0.64150,0.14153,-0.01601,
3.05469,0.27295,-0.33782,-0.67788,-0.20773,0.96560,0.13782,,,0.75377,0.64151,0.14154,-0.01606,
3.06250,0.30741,-0.44383,-0.78243,-0.20677,0.96560,0.13489,,,0.75376,0.64152,0.14155,-0.01613,
3.07031,0.23849,-0.62052,-0.71273,-0.20338,0.95981,0.13587,,,0.75376,0.64152,0.14155,-0.01619,
3.07813,0.23849,-0.54984,-0.81728,-0.20193,0.96802,0.14125,,,0.75375,0.64153,0.14156,-0.01626,
3.08594,0.10067,-0.47917,-0.85213,-0.20338,0.95933,0.13684,,,0.75375,0.64152,0.14157,-0.01633,
3.09375,-0.03715,-0.33782,-0.88698,-0.20725,0.96512,0.13635,,,0.75375,0.64151,0.14159,-0.01639,
3.10156,-0.00270,-0.40849,-0.95667,-0.20725,0.96850,0.13635,,,0.75376,0.64150,0.14161,-0.01645,
3.10938,-0.17498,-0.26714,-0.92183,-0.20918,0.97043,0.13489,,,0.75377,0.64148,0.14164,-0.01651,
3.11719,-0.31280,0.05090,-0.88698,-0.20677,0.96464,0.13684,,,0.75378,0.64146,0.14168,-0.01655,
3.12500,-0.34726,-0.01978,-0.85213,-0.20773,0.96174,0.14125,,,0.75379,0.64143,0.14172,-0.01659,
3.13281,-0.24389,0.01556,-0.99152,-0.21063,0.96705,0.14125,,,0.75380,0.64141,0.14176,-0.01664,
3.14063,-0.00270,-0.44383,-0.71273,-0.20193,0.96464,0.13782,,,0.75381,0.64140,0.14177,-0.01670,
3.14844,-0.07161,-0.33782,-0.78243,-0.20483,0.96657,0.13929,,,0.75381,0.64139,0.14179,-0.01675,
3.15625,-0.10607,-0.19647,-0.95667,-0.20483,0.96416,0.14272,,,0.75382,0.64138,0.14182,-0.01681,
3.16406,-0.07161,-0.12579,-1.13092,-0.20773,0.96078,0.13880,,,0.75382,0.64136,0.14186,-0.01687,
3.17188,-0.07161,-0.12579,-0.95667,-0.20435,0.96319,0.13684,,,0.75382,0.64135,0.14190,-0.01692,
3.17969,-0.03715,0.01556,-0.95667,-0.20483,0.96705,0.13342,,,0.75382,0.64134,0.14194,-0.01697,
3.18750,-0.10607,-0.01978,-0.81728,-0.20435,0.96174,0.13733,,,0.75383,0.64133,0.14197,-0.01701,
3.19531,-0.20943,-0.05512,-0.78243,-0.20387,0.96222,0.13880,,,0.75384,0.64131,0.14201,-0.01705,
3.20313,-0.31280,0.36894,-0.81728,-0.20773,0.96753,0.14027,,,0.75385,0.64128,0.14206,-0.01708,
3.21094,-0.14052,0.79299,-0.57333,-0.20918,0.96512,0.14125,,,0.75384,0.64127,0.14213,-0.01707,
3.21875,-0.24389,0.82832,-0.71273,-0.20822,0.96319,0.13782,,,0.75384,0.64125,0.14220,-0.01707,
3.22656,-0.17498,0.54562,-0.60818,-0.20773,0.96753,0.13929,,,0.75385,0.64124,0.14226,-0.01707,
3.23438,-0.14052,0.40427,-0.64303,-0.20628,0.96367,0.14272,,,0.75385,0.64123,0.14231,-0.01709,
3.24219,-0.03715,0.40427,-0.67788,-0.20628,0.97139,0.13440,,,0.75384,0.64122,0.14236,-0.01711,
3.25000,-0.10607,0.29826,-0.74758,-0.21257,0.96416,0.14272,,,0.75385,0.64121,0.14240,-0.01713,
3.25781,0.03176,-0.09045,-0.60818,-0.20967,0.97043,0.13587,,,0.75384,0.64120,0.14243,-0.01717,
3.26563,0.13513,-0.05512,-0.60818,-0.20532,0.96174,0.13880,,,0.75384,0.64120,0.14245,-0.01720,
3.27344,0.20404,0.05090,-0.53848,-0.20677,0.96367,0.13782,,,0.75383,0.64121,0.14248,-0.01723,
3.28125,0.10067,0.22758,-0.57333,-0.20145,0.95981,0.13782,,,0.75382,0.64121,0.14251,-0.01725,
3.28906,0.06621,0.51029,-0.57333,-0.20918,0.96609,0.14223,,,0.75381,0.64121,0.14256,-0.01726,
3.29688,0.06621,0.33360,-0.43393,-0.20483,0.96222,0.14027,,,0.75381,0.64121,0.14260,-0.01726,
3.30469,-0.00270,0.12157,-0.36424,-0.21112,0.96560,0.13880,,,0.75380,0.64120,0.14262,-0.01728,
3.31250,-0.03715,-0.09045,-0.25969,-0.21063,0.96174,0.14076,,,0.75381,0.64120,0.14263,-0.01729,
3.32031,-0.24389,-0.12579,-0.32939,-0.20870,0.96464,0.13978,,,0.75382,0.64118,0.14264,-0.01731,
3.32813,-0.24389,-0.23180,-0.25969,-0.21257,0.96078,0.14027,,,0.75383,0.64117,0.14264,-0.01734,
3.33594,-0.07161,-0.54984,-0.32939,-0.21257,0.95933,0.13440,,,0.75384,0.64116,0.14262,-0.01738,
3.34375,-0.00270,-0.86788,-0.25969,-0.20677,0.96753,0.13684,,,0.75385,0.64115,0.14259,-0.01743,
3.35156,-0.07161,-0.79721,-0.29454,-0.20483,0.96512,0.13635,,,0.75386,0.64115,0.14256,-0.01748,
3.35938,-0.10607,-0.40849,-0.25969,-0.19855,0.96367,0.13635,,,0.75387,0.64114,0.14255,-0.01751,
3.36719,-0.14052,-0.26714,-0.25969,-0.21208,0.96609,0.13733,,,0.75387,0.64113,0.14255,-0.01753,
3.37500,-0.07161,-0.26714,-0.18999,-0.20483,0.96560,0.13538,,,0.75388,0.64112,0.14254,-0.01755,
3.38281,-0.14052,-0.30248,-0.08544,-0.20918,0.95643,0.13538,,,0.75389,0.64111,0.14253,-0.01757,
3.39063,-0.38171,-0.12579,0.08881,-0.20773,0.96560,0.13978,,,0.75391,0.64110,0.14252,-0.01756,
3.39844,-0.31280,-0.05512,0.01911,-0.21063,0.96271,0.14614,,,0.75392,0.64108,0.14252,-0.01756,
3.40625,-0.38171,-0.37315,0.08881,-0.20580,0.96898,0.14272,,,0.75394,0.64106,0.14250,-0.01757,
3.41406,-0.31280,-0.47917,0.12366,-0.20628,0.97091,0.13342,,,0.75396,0.64105,0.14247,-0.01758,
3.42188,-0.34726,-0.30248,0.19335,-0.20773,0.96753,0.13342,,,0.75398,0.64103,0.14244,-0.01758,
3.42969,-0.31280,-0.44383,0.05396,-0.20628,0.96753,0.13880,,,0.75400,0.64101,0.14242,-0.01760,
3.43750,-0.34726,-0.40849,0.05396,-0.20435,0.96271,0.13489,,,0.75402,0.64100,0.14240,-0.01761,
3.44531,-0.48508,-0.62052,0.15850,-0.20387,0.96029,0.13538,,,0.75404,0.64097,0.14236,-0.01762,
3.45313,-0.41617,-0.23180,-0.01574,-0.20580,0.96609,0.14467,,,0.75406,0.64095,0.14235,-0.01763,
3.46094,-0.69182,-0.33782,0.01911,-0.20097,0.96367,0.13440,,,0.75410,0.64091,0.14233,-0.01764,
3.46875,-0.62290,-0.23180,-0.05059,-0.20918,0.96560,0.13587,,,0.75413,0.64088,0.14232,-0.01764,
3.47656,-0.69182,-0.47917,0.05396,-0.19952,0.96174,0.14223,,,0.75416,0.64084,0.14229,-0.01765,
3.48438,-0.69182,-0.51451,-0.12029,-0.19807,0.96319,0.13831,,,0.75420,0.64081,0.14227,-0.01768,
3.49219,-0.79518,-0.40849,-0.43393,-0.20918,0.96174,0.13880,,,0.75423,0.64076,0.14227,-0.01771,
3.50000,-0.65736,-0.79721,-0.50363,-0.21208,0.96078,0.14859,,,0.75427,0.64072,0.14225,-0.01776,
3.50781,-0.58845,-1.18592,-0.60818,-0.20435,0.96271,0.14320,,,0.75431,0.64068,0.14222,-0.01784,
3.51563,-0.41617,-0.83254,-0.57333,-0.20580,0.96029,0.14223,,,0.75433,0.64066,0.14220,-0.01790,
3.52344,-0.07161,-1.75132,-0.99152,-0.20097,0.96560,0.14125,,,0.75435,0.64064,0.14216,-0.01803,
3.53125,-0.17498,-0.93856,-1.27032,-0.19034,0.97091,0.14467,,,0.75437,0.64062,0.14216,-0.01813,
3.53906,0.03176,0.36894,-1.47942,-0.19517,0.96271,0.14076,,,0.75436,0.64061,0.14225,-0.01819,
3.54688,-0.03715,0.01556,-2.00216,-0.19807,0.96609,0.13587,,,0.75436,0.64059,0.14234,-0.01830,
3.55469,0.03176,0.12157,-2.14155,-0.19903,0.96416,0.14076,,,0.75435,0.64057,0.14243,-0.01840,
3.56250,-0.03715,0.47495,-2.42035,-0.19952,0.95499,0.13880,,,0.75435,0.64054,0.14257,-0.01850,
3.57031,-0.03715,0.79299,-2.59459,-0.20000,0.96078,0.13733,,,0.75434,0.64052,0.14272,-0.01860,
3.57813,0.13513,1.04035,-2.69914,-0.20580,0.96319,0.14174,,,0.75432,0.64050,0.14289,-0.01870,
3.58594,-0.45062,1.46440,-3.01279,-0.19903,0.96174,0.13880,,,0.75432,0.64045,0.14310,-0.01878,
3.59375,-0.31280,2.06514,-2.80369,-0.20725,0.96319,0.14076,,,0.75431,0.64041,0.14333,-0.01883,
3.60156,-0.45062,2.10048,-2.97794,-0.21353,0.96222,0.14467,,,0.75431,0.64036,0.14357,-0.01889,
3.60938,-0.38171,2.70122,-3.43098,-0.20822,0.97139,0.13293,,,0.75429,0.64031,0.14385,-0.01895,
3.61719,-0.27834,1.74710,-3.11733,-0.20193,0.96126,0.14908,,,0.75428,0.64026,0.14408,-0.01903,
3.62500,-0.07161,1.88845,-2.97794,-0.20435,0.95692,0.12853,,,0.75426,0.64023,0.14431,-0.01910,
3.63281,-0.41617,2.41852,-3.36128,-0.21160,0.96464,0.14076,,,0.75425,0.64018,0.14458,-0.01916,
3.64063,-0.51954,1.81778,-3.11733,-0.21015,0.96078,0.14320,,,0.75425,0.64013,0.14481,-0.01924,
3.64844,-0.14052,2.55987,-2.97794,-0.22271,0.96367,0.14027,,,0.75423,0.64009,0.14507,-0.01928,
3.65625,-0.20943,1.07569,-2.55975,-0.21208,0.96222,0.14418,,,0.75423,0.64006,0.14524,-0.01936,
3.66406,0.06621,1.32305,-2.38550,-0.22078,0.96126,0.13978,,,0.75421,0.64004,0.14541,-0.01942,
3.67188,0.03176,0.75765,-2.14155,-0.23093,0.95692,0.14908,,,0.75419,0.64002,0.14554,-0.01950,
3.67969,0.10067,0.58096,-1.75821,-0.21208,0.96657,0.14467,,,0.75418,0.64001,0.14565,-0.01957,
3.68750,0.10067,0.93434,-1.61881,-0.21498,0.96560,0.14369,,,0.75417,0.64000,0.14577,-0.01961,
3.69531,-0.00270,1.07569,-1.20062,-0.21353,0.96319,0.13929,,,0.75415,0.63999,0.14588,-0.01963,
3.70313,0.06621,0.33360,-0.92183,-0.22755,0.96222,0.14223,,,0.75415,0.63998,0.14593,-0.01966,
3.71094,0.13513,-0.19647,-0.57333,-0.22175,0.95547,0.13342,,,0.75414,0.63999,0.14595,-0.01970,
3.71875,0.16958,-0.05512,-0.08544,-0.22078,0.96319,0.14272,,,0.75413,0.63999,0.14595,-0.01971,
3.72656,0.27295,-1.07991,0.40245,-0.22126,0.96898,0.13489,,,0.75413,0.64001,0.14587,-0.01974,
3.73438,0.34186,-1.25660,0.64640,-0.21981,0.96271,0.13489,,,0.75413,0.64003,0.14578,-0.01976,
3.74219,0.16958,-0.93856,0.64640,-0.21788,0.96319,0.14174,,,0.75414,0.64005,0.14570,-0.01977,
3.75000,0.03176,-1.18592,1.27368,-0.22175,0.96078,0.13929,,,0.75415,0.64006,0.14559,-0.01976,
3.75781,0.13513,-1.53930,1.34338,-0.21933,0.96319,0.14076,,,0.75416,0.64008,0.14545,-0.01976,
3.76563,0.03176,-1.85734,1.34338,-0.21353,0.96126,0.14076,,,0.75418,0.64009,0.14530,-0.01977,
3.77344,0.16958,-2.10470,1.72673,-0.21160,0.96802,0.13684,,,0.75419,0.64011,0.14511,-0.01977,
3.78125,0.34186,-1.89267,1.69188,-0.21595,0.96512,0.13880,,,0.75420,0.64014,0.14494,-0.01977,
3.78906,0.13513,-1.99869,1.65703,-0.20580,0.96271,0.13880,,,0.75422,0.64017,0.14477,-0.01978,
3.79688,0.13513,-1.85734,1.69188,-0.20870,0.96512,0.13880,,,0.75423,0.64019,0.14460,-0.01977,
3.80469,0.20404,-1.75132,1.69188,-0.20532,0.96609,0.14467,,,0.75424,0.64021,0.14443,-0.01976,
3.81250,0.06621,-1.46862,1.69188,-0.20483,0.96222,0.13831,,,0.75425,0.64023,0.14428,-0.01974,
3.82031,0.34186,-1.36261,1.62218,-0.20435,0.96464,0.14076,,,0.75426,0.64026,0.14414,-0.01972,
3.82813,0.30741,-1.57463,1.51763,-0.20290,0.96271,0.13782,,,0.75426,0.64029,0.14399,-0.01971,
3.83594,0.06621,-1.57463,1.30853,-0.19807,0.96174,0.13733,,,0.75427,0.64030,0.14385,-0.01972,
3.84375,0.16958,-1.50396,1.27368,-0.20097,0.96416,0.13587,,,0.75428,0.64032,0.14372,-0.01972,
3.85156,0.06621,-1.15058,1.09944,-0.20242,0.96464,0.13244,,,0.75429,0.64034,0.14361,-0.01971,
3.85938,0.06621,-1.29193,0.82064,-0.20483,0.96319,0.13880,,,0.75430,0.64034,0.14351,-0.01973,
3.86719,-0.00270,-1.46862,0.71609,-0.20580,0.96802,0.13929,,,0.75432,0.64035,0.14341,-0.01975,
3.87500,-0.10607,-1.18592,0.40245,-0.20435,0.96464,0.13587,,,0.75434,0.64035,0.14333,-0.01978,
3.88281,-0.10607,-0.86788,0.01911,-0.19710,0.96464,0.14076,,,0.75435,0.64034,0.14328,-0.01982,
3.89063,-0.14052,-0.58518,-0.08544,-0.19758,0.96078,0.13880,,,0.75436,0.64033,0.14326,-0.01985,
3.89844,-0.41617,-0.01978,-0.39909,-0.20242,0.96271,0.13929,,,0.75438,0.64031,0.14327,-0.01987,
3.90625,-0.17498,0.15691,-0.53848,-0.19517,0.96222,0.13831,,,0.75438,0.64029,0.14330,-0.01988,
3.91406,-0.17498,0.26292,-0.67788,-0.20000,0.96802,0.14223,,,0.75439,0.64028,0.14335,-0.01991,
3.92188,-0.27834,0.51029,-0.88698,-0.19952,0.95740,0.14369,,,0.75439,0.64025,0.14341,-0.01993,
3.92969,-0.34726,0.54562,-0.99152,-0.20532,0.95788,0.14027,,,0.75440,0.64023,0.14348,-0.01995,
3.93750,-0.17498,0.51029,-1.23547,-0.20483,0.96416,0.13880,,,0.75440,0.64021,0.14356,-0.01999,
3.94531,-0.38171,0.33360,-1.34002,-0.20918,0.96802,0.14761,,,0.75441,0.64018,0.14364,-0.02004,
3.95313,-0.24389,0.26292,-1.30517,-0.20532,0.96705,0.14174,,,0.75442,0.64015,0.14371,-0.02009,
3.96094,-0.27834,0.19225,-1.34002,-0.20435,0.96560,0.13978,,,0.75443,0.64012,0.14378,-0.02015,
3.96875,-0.27834,0.36894,-1.58396,-0.20725,0.96126,0.14272,,,0.75444,0.64009,0.14387,-0.02021,
3.97656,-0.34726,0.26292,-1.51426,-0.20773,0.96705,0.13733,,,0.75445,0.64006,0.14395,-0.02028,
3.98438,-0.24389,0.15691,-1.47942,-0.21015,0.96609,0.13831,,,0.75445,0.64003,0.14402,-0.02034,
3.99219,-0.34726,0.22758,-1.47942,-0.20677,0.96367,0.14174,,,0.75446,0.64000,0.14410,-0.02041,
4.00000,-0.34726,0.33360,-1.37487,-0.20580,0.96029,0.13978,,,0.75447,0.63997,0.14418,-0.02046,
4.00781,-0.17498,0.40427,-1.30517,-0.21305,0.96126,0.14125,1022.057,26.8,0.75448,0.63995,0.14425,-0.02051,
4.01563,-0.10607,0.51029,-1.30517,-0.20918,0.96078,0.14369,,,0.75447,0.63993,0.14434,-0.02055,
4.02344,-0.07161,0.47495,-1.37487,-0.21595,0.95933,0.14467,,,0.75447,0.63992,0.14442,-0.02060,
4.03125,0.16958,0.12157,-0.99152,-0.20967,0.96319,0.14712,,,0.75446,0.63992,0.14447,-0.02065,
4.03906,0.13513,0.08623,-1.09607,-0.20290,0.96174,0.13684,,,0.75445,0.63991,0.14452,-0.02070,
4.04688,0.10067,-0.01978,-1.09607,-0.21015,0.96898,0.14076,,,0.75445,0.63991,0.14457,-0.02076,
4.05469,0.13513,-0.09045,-0.99152,-0.21691,0.96029,0.14810,,,0.75444,0.63990,0.14461,-0.02082,
4.06250,0.13513,-0.19647,-0.99152,-0.20822,0.95740,0.14223,,,0.75443,0.63990,0.14464,-0.02088,
4.07031,0.23849,-0.26714,-0.95667,-0.20822,0.96319,0.13733,,,0.75443,0.63990,0.14467,-0.02094,
4.07813,0.27295,-0.19647,-0.85213,-0.20580,0.95933,0.13880,,,0.75441,0.63991,0.14470,-0.02100,
4.08594,0.23849,0.08623,-0.92183,-0.21546,0.96850,0.13782,,,0.75440,0.63991,0.14474,-0.02104,
4.09375,0.10067,-0.12579,-0.95667,-0.20870,0.96367,0.14272,,,0.75440,0.63991,0.14477,-0.02110,
4.10156,0.23849,-0.26714,-0.85213,-0.20967,0.96078,0.13489,,,0.75439,0.63991,0.14480,-0.02115,
4.10938,0.23849,-0.37315,-0.78243,-0.20918,0.96319,0.13831,,,0.75438,0.63991,0.14481,-0.02121,
4.11719,0.30741,-0.44383,-0.71273,-0.21740,0.95836,0.14369,,,0.75437,0.63992,0.14482,-0.02127,
4.12500,0.20404,-0.58518,-0.64303,-0.21015,0.95933,0.13440,,,0.75437,0.63993,0.14482,-0.02133,
4.13281,0.23849,-0.54984,-0.57333,-0.20967,0.96222,0.13391,,,0.75436,0.63993,0.14481,-0.02139,
4.14063,0.44523,-0.37315,-0.74758,-0.20725,0.96512,0.13782,,,0.75434,0.63995,0.14483,-0.02145,
4.14844,0.44523,-0.26714,-0.74758,-0.21063,0.96367,0.14565,,,0.75433,0.63996,0.14485,-0.02150,
4.15625,0.34186,-0.12579,-0.67788,-0.20290,0.96174,0.13782,,,0.75431,0.63997,0.14487,-0.02155,
4.16406,0.27295,-0.12579,-0.71273,-0.21015,0.96898,0.14027,,,0.75430,0.63998,0.14489,-0.02159,
4.17188,0.27295,0.08623,-0.67788,-0.20822,0.96271,0.13978,,,0.75429,0.63999,0.14493,-0.02163,
4.17969,0.10067,0.12157,-0.64303,-0.20822,0.96367,0.14125,,,0.75428,0.63999,0.14496,-0.02165,
4.18750,0.16958,-0.19647,-0.53848,-0.21208,0.96609,0.13880,,,0.75427,0.63999,0.14497,-0.02169,
4.19531,0.23849,-0.12579,-0.50363,-0.21112,0.96946,0.14027,,,0.75426,0.64000,0.14499,-0.02173,
4.20313,0.13513,-0.19647,-0.53848,-0.20918,0.96367,0.13733,,,0.75426,0.64000,0.14500,-0.02176,
4.21094,0.03176,-0.16113,-0.43393,-0.20773,0.96271,0.13831,,,0.75426,0.63999,0.14501,-0.02179,
4.21875,-0.00270,-0.01978,-0.53848,-0.20967,0.96367,0.13587,,,0.75426,0.63999,0.14503,-0.02182,
4.22656,-0.07161,-0.09045,-0.46878,-0.21063,0.96609,0.13880,,,0.75426,0.63998,0.14505,-0.02185,
4.23438,-0.00270,-0.12579,-0.53848,-0.21015,0.96995,0.14027,,,0.75426,0.63997,0.14507,-0.02188,
4.24219,-0.00270,0.12157,-0.39909,-0.21112,0.96222,0.14516,,,0.75426,0.63997,0.14509,-0.02190,
4.25000,-0.14052,0.26292,-0.53848,-0.20483,0.96319,0.13733,,,0.75426,0.63996,0.14513,-0.02191,
4.25781,-0.17498,0.54562,-0.64303,-0.20918,0.96657,0.14027,,,0.75426,0.63994,0.14518,-0.02192,
4.26563,-0.17498,0.36894,-0.71273,-0.21450,0.96222,0.14516,,,0.75427,0.63993,0.14523,-0.02194,
4.27344,-0.17498,0.26292,-0.60818,-0.20483,0.95981,0.13733,,,0.75427,0.63991,0.14527,-0.02196,
4.28125,-0.24389,0.26292,-0.74758,-0.20338,0.96416,0.13587,,,0.75428,0.63989,0.14532,-0.02198,
4.28906,-0.31280,0.26292,-0.81728,-0.21305,0.96609,0.13880,,,0.75429,0.63987,0.14537,-0.02201,
4.29688,-0.34726,0.29826,-0.81728,-0.20918,0.96126,0.13831,,,0.75430,0.63985,0.14542,-0.02203,
4.30469,-0.20943,0.01556,-0.78243,-0.20677,0.96802,0.14223,,,0.75431,0.63983,0.14546,-0.02207,
4.31250,-0.34726,0.19225,-0.85213,-0.20918,0.96657,0.13684,,,0.75432,0.63980,0.14551,-0.02210,
4.32031,-0.27834,0.40427,-0.85213,-0.20677,0.96222,0.13782,,,0.75432,0.63978,0.14556,-0.02213,
4.32813,-0.51954,0.51029,-0.88698,-0.21015,0.96416,0.13587,,,0.75434,0.63974,0.14563,-0.02214,
4.33594,-0.51954,0.29826,-0.85213,-0.21015,0.96512,0.13635,,,0.75436,0.63971,0.14568,-0.02217,
4.34375,-0.48508,0.15691,-0.81728,-0.21063,0.96416,0.14174,,,0.75438,0.63968,0.14573,-0.02220,
4.35156,-0.24389,-0.05512,-0.71273,-0.21353,0.95836,0.14174,,,0.75439,0.63966,0.14576,-0.02224,
4.35938,-0.20943,0.01556,-0.57333,-0.21305,0.96319,0.14663,,,0.75440,0.63964,0.14578,-0.02226,
4.36719,-0.24389,-0.09045,-0.60818,-0.21063,0.96416,0.14320,,,0.75441,0.63962,0.14580,-0.02230,
4.37500,-0.34726,-0.05512,-0.43393,-0.20870,0.96512,0.14663,,,0.75442,0.63960,0.14582,-0.02232,
4.38281,-0.24389,-0.26714,-0.46878,-0.21257,0.96512,0.13880,,,0.75443,0.63958,0.14583,-0.02235,
4.39063,-0.07161,-0.30248,-0.39909,-0.21546,0.96126,0.14810,,,0.75444,0.63957,0.14583,-0.02238,
4.39844,-0.14052,-0.44383,-0.39909,-0.21305,0.96126,0.14859,,,0.75445,0.63956,0.14582,-0.02242,
4.40625,-0.20943,-0.47917,-0.39909,-0.21063,0.96512,0.14320,,,0.75446,0.63955,0.14582,-0.02246,
4.41406,-0.14052,-0.65586,-0.22484,-0.21208,0.96029,0.14418,,,0.75447,0.63954,0.14579,-0.02250,
4.42188,-0.14052,-0.69119,-0.15514,-0.20580,0.96416,0.14027,,,0.75449,0.63953,0.14576,-0.02254,
4.42969,-0.14052,-0.47917,-0.12029,-0.20870,0.95836,0.13831,,,0.75450,0.63952,0.14575,-0.02256,
4.43750,-0.10607,-0.30248,-0.01574,-0.20532,0.95692,0.14369,,,0.75451,0.63951,0.14573,-0.02258,
4.44531,0.10067,-0.19647,0.08881,-0.20773,0.96174,0.13538,,,0.75450,0.63952,0.14572,-0.02258,
4.45313,-0.10607,0.05090,0.05396,-0.21160,0.96222,0.14467,,,0.75451,0.63951,0.14572,-0.02257,
4.46094,-0.03715,-0.26714,0.12366,-0.20580,0.96367,0.14565,,,0.75451,0.63951,0.14570,-0.02258,
4.46875,-0.10607,-0.26714,0.15850,-0.21643,0.95933,0.14614,,,0.75452,0.63951,0.14568,-0.02258,
4.47656,-0.03715,-0.65586,0.33275,-0.20918,0.96174,0.14467,,,0.75453,0.63951,0.14563,-0.02259,
4.48438,-0.00270,-0.69119,0.12366,-0.21063,0.96464,0.14174,,,0.75454,0.63951,0.14559,-0.02262,
4.49219,0.16958,-0.58518,0.15850,-0.20918,0.96464,0.14272,,,0.75453,0.63952,0.14555,-0.02264,
4.50000,0.03176,-0.83254,0.08881,-0.20387,0.96126,0.13733,,,0.75454,0.63952,0.14550,-0.02267,
4.50781,0.16958,-0.62052,0.12366,-0.21112,0.96898,0.14027,,,0.75454,0.63953,0.14547,-0.02269,
4.51563,0.10067,-0.69119,0.01911,-0.20677,0.96222,0.13929,,,0.75454,0.63953,0.14543,-0.02272,
4.52344,0.23849,-0.97389,0.15850,-0.20918,0.96802,0.14223,,,0.75454,0.63954,0.14537,-0.02276,
4.53125,0.20404,-1.18592,-0.08544,-0.21208,0.96560,0.13929,,,0.75454,0.63955,0.14531,-0.02281,
4.53906,0.13513,-1.25660,-0.08544,-0.20870,0.97043,0.13440,,,0.75455,0.63955,0.14525,-0.02288,
4.54688,0.13513,-1.11525,-0.05059,-0.20097,0.96126,0.13880,,,0.75456,0.63956,0.14520,-0.02293,
4.55469,0.10067,-0.90322,-0.15514,-0.20580,0.96705,0.13733,,,0.75456,0.63956,0.14516,-0.02298,
4.56250,-0.00270,-0.65586,-0.18999,-0.20580,0.96512,0.14565,,,0.75457,0.63956,0.14513,-0.02301,
4.57031,0.03176,-0.65586,-0.22484,-0.20628,0.96271,0.13391,,,0.75457,0.63956,0.14511,-0.02306,
4.57813,0.13513,-0.40849,-0.32939,-0.20725,0.96464,0.13978,,,0.75457,0.63956,0.14510,-0.02309,
4.58594,-0.00270,-0.33782,-0.39909,-0.21112,0.96416,0.14369,,,0.75457,0.63956,0.14510,-0.02313,
4.59375,-0.00270,-0.37315,-0.39909,-0.20628,0.96319,0.14663,,,0.75458,0.63955,0.14510,-0.02316,
4.60156,0.13513,-0.44383,-0.50363,-0.21160,0.96609,0.13880,,,0.75457,0.63955,0.14510,-0.02321,
4.60938,0.06621,-0.19647,-0.46878,-0.21063,0.96464,0.14369,,,0.75457,0.63955,0.14511,-0.02324,
4.61719,-0.03715,-0.40849,-0.50363,-0.20773,0.96512,0.14076,,,0.75458,0.63954,0.14511,-0.02329,
4.62500,0.10067,-0.54984,-0.46878,-0.20822,0.96753,0.14076,,,0.75458,0.63954,0.14510,-0.02334,
4.63281,0.06621,-0.40849,-0.46878,-0.20580,0.96416,0.13978,,,0.75458,0.63954,0.14510,-0.02338,
4.64063,0.03176,-0.19647,-0.50363,-0.21063,0.96464,0.14369,,,0.75458,0.63954,0.14511,-0.02341,
4.64844,-0.00270,-0.09045,-0.57333,-0.20580,0.96464,0.13342,,,0.75458,0.63953,0.14513,-0.02345,
4.65625,-0.07161,0.05090,-0.53848,-0.19710,0.96512,0.13733,,,0.75458,0.63952,0.14516,-0.02347,
4.66406,0.10067,0.08623,-0.50363,-0.21160,0.96367,0.13489,,,0.75457,0.63952,0.14519,-0.02349,
4.67188,-0.03715,0.22758,-0.60818,-0.20387,0.96464,0.13782,,,0.75457,0.63952,0.14522,-0.02351,
4.67969,-0.38171,0.68697,-0.64303,-0.20870,0.96512,0.14076,,,0.75458,0.63949,0.14529,-0.02351,
4.68750,-0.41617,0.61630,-0.64303,-0.20725,0.96464,0.14467,,,0.75459,0.63946,0.14535,-0.02352,
4.69531,-0.34726,0.54562,-0.53848,-0.20580,0.96657,0.13929,,,0.75460,0.63944,0.14540,-0.02352,
4.70313,-0.31280,0.68697,-0.57333,-0.20725,0.96271,0.14076,,,0.75461,0.63942,0.14546,-0.02351,
4.71094,-0.27834,0.58096,-0.46878,-0.21112,0.96367,0.14467,,,0.75461,0.63940,0.14551,-0.02351,
4.71875,-0.27834,0.58096,-0.50363,-0.20773,0.96464,0.14516,,,0.75462,0.63938,0.14556,-0.02351,
4.72656,-0.27834,0.58096,-0.60818,-0.21208,0.96512,0.14223,,,0.75462,0.63936,0.14562,-0.02351,
4.73438,-0.24389,0.54562,-0.60818,-0.20918,0.96319,0.13782,,,0.75463,0.63935,0.14568,-0.02352,
4.74219,-0.17498,0.29826,-0.53848,-0.20532,0.96029,0.13342,,,0.75463,0.63933,0.14572,-0.02353,
4.75000,-0.00270,0.47495,-0.50363,-0.20822,0.96367,0.14516,,,0.75462,0.63933,0.14576,-0.02353,
4.75781,-0.00270,0.33360,-0.36424,-0.20967,0.96078,0.14125,,,0.75462,0.63933,0.14579,-0.02354,
4.76563,-0.07161,0.12157,-0.36424,-0.20918,0.96416,0.13782,,,0.75462,0.63932,0.14582,-0.02355,
4.77344,-0.20943,0.36894,-0.43393,-0.20967,0.96319,0.14174,,,0.75463,0.63930,0.14585,-0.02355,
4.78125,-0.17498,0.08623,-0.43393,-0.20532,0.96367,0.14174,,,0.75463,0.63929,0.14588,-0.02357,
4.78906,-0.14052,-0.09045,-0.36424,-0.20725,0.95933,0.14174,,,0.75464,0.63928,0.14589,-0.02359,
4.79688,-0.10607,0.01556,-0.22484,-0.20338,0.96705,0.14223,,,0.75464,0.63927,0.14590,-0.02360,
4.80469,-0.14052,0.12157,-0.22484,-0.20870,0.96126,0.13929,,,0.75465,0.63926,0.14592,-0.02361,
4.81250,-0.00270,0.08623,-0.01574,-0.21305,0.96319,0.14076,,,0.75465,0.63926,0.14592,-0.02360,
4.82031,0.10067,0.05090,0.08881,-0.20822,0.96319,0.14565,,,0.75464,0.63927,0.14592,-0.02360,
4.82813,-0.00270,0.08623,0.15850,-0.20918,0.96753,0.13733,,,0.75464,0.63927,0.14592,-0.02359,
4.83594,-0.03715,-0.23180,0.15850,-0.21112,0.96271,0.14663,,,0.75465,0.63927,0.14590,-0.02359,
4.84375,0.06621,-0.33782,0.40245,-0.21015,0.96657,0.13880,,,0.75465,0.63928,0.14586,-0.02358,
4.85156,0.06621,-0.37315,0.43730,-0.21595,0.96416,0.14174,,,0.75465,0.63928,0.14583,-0.02358,
4.85938,0.03176,-0.97389,0.47215,-0.21208,0.96753,0.13929,,,0.75466,0.63929,0.14575,-0.02360,
4.86719,0.23849,-1.11525,0.47215,-0.20580,0.96319,0.13635,,,0.75466,0.63930,0.14568,-0.02362,
4.87500,0.10067,-1.22126,0.61155,-0.20773,0.96657,0.14027,,,0.75467,0.63931,0.14559,-0.02364,
4.88281,0.03176,-1.00923,0.57670,-0.20048,0.96078,0.14027,,,0.75468,0.63932,0.14551,-0.02366,
4.89063,0.06621,-0.69119,0.68124,-0.20338,0.96319,0.13684,,,0.75468,0.63933,0.14544,-0.02365,
4.89844,-0.00270,-0.58518,0.75094,-0.20048,0.96078,0.14174,,,0.75469,0.63933,0.14538,-0.02364,
4.90625,-0.00270,-0.30248,0.54185,-0.20628,0.96560,0.13978,,,0.75469,0.63934,0.14534,-0.02363,
4.91406,-0.00270,-0.40849,0.57670,-0.20580,0.96850,0.14320,,,0.75470,0.63934,0.14530,-0.02361,
4.92188,-0.03715,-0.76187,0.61155,-0.20725,0.96271,0.14223,,,0.75471,0.63935,0.14523,-0.02362,
4.92969,0.06621,-1.00923,0.57670,-0.20435,0.95981,0.13929,,,0.75472,0.63935,0.14515,-0.02363,
4.93750,0.10067,-1.43328,0.54185,-0.21063,0.96609,0.14956,,,0.75473,0.63936,0.14506,-0.02367,
4.94531,0.03176,-1.68065,0.50700,-0.20483,0.96271,0.14272,,,0.75474,0.63937,0.14495,-0.02371,
4.95313,0.10067,-1.92801,0.57670,-0.19130,0.95740,0.14223,,,0.75476,0.63937,0.14482,-0.02377,
4.96094,-0.14052,-0.65586,0.47215,-0.21257,0.96464,0.13978,,,0.75477,0.63937,0.14477,-0.02377,
4.96875,-0.14052,-0.47917,0.33275,-0.21546,0.96609,0.15103,,,0.75478,0.63937,0.14473,-0.02377,
4.97656,-0.03715,-2.24605,0.61155,-0.19758,0.96802,0.13391,,,0.75481,0.63937,0.14459,-0.02384,
4.98438,0.23849,-1.99869,0.78579,-0.19952,0.96609,0.13342,,,0.75482,0.63938,0.14445,-0.02389,
4.99219,-0.03715,-1.04457,0.50700,-0.20870,0.96464,0.14565,,,0.75483,0.63938,0.14437,-0.02391,
5.00000,-0.14052,-1.46862,0.50700,-0.20532,0.96802,0.13538,,,0.75485,0.63938,0.14428,-0.02395,
5.00781,-0.14052,-1.57463,0.54185,-0.20822,0.96512,0.14223,1022.041,26.8,0.75488,0.63938,0.14417,-0.02398,
5.01563,-0.17498,-1.64531,0.68124,-0.20000,0.96319,0.14272,,,0.75490,0.63937,0.14406,-0.02402,
5.02344,-0.24389,-1.39795,0.61155,-0.20000,0.96126,0.13978,,,0.75493,0.63936,0.14396,-0.02405,
5.03125,-0.14052,-1.60997,0.61155,-0.19952,0.96367,0.13782,,,0.75495,0.63936,0.14385,-0.02408,
5.03906,-0.17498,-1.32727,0.47215,-0.20048,0.96464,0.13587,,,0.75497,0.63935,0.14376,-0.02412,
5.04688,-0.07161,-1.11525,0.43730,-0.19952,0.96367,0.14467,,,0.75499,0.63935,0.14368,-0.02414,
5.05469,-0.17498,-1.22126,0.40245,-0.20000,0.96029,0.13684,,,0.75501,0.63934,0.14360,-0.02417,
5.06250,0.06621,-1.04457,0.64640,-0.20725,0.96512,0.15641,,,0.75501,0.63935,0.14352,-0.02418,
5.07031,-0.17498,-2.10470,0.19335,-0.20628,0.96464,0.14614,,,0.75504,0.63934,0.14341,-0.02426,
5.07813,-0.03715,-2.42274,0.33275,-0.19613,0.96029,0.14076,,,0.75507,0.63934,0.14327,-0.02435,
5.08594,-0.34726,-2.03402,0.22820,-0.19565,0.96029,0.13489,,,0.75510,0.63932,0.14315,-0.02443,
5.09375,0.06621,-1.32727,-0.01574,-0.20242,0.96946,0.14516,,,0.75511,0.63932,0.14308,-0.02449,
5.10156,-0.24389,-1.57463,-0.12029,-0.20048,0.96271,0.14369,,,0.75514,0.63930,0.14301,-0.02456,
5.10938,-0.10607,-1.00923,-0.01574,-0.19179,0.96416,0.14125,,,0.75515,0.63930,0.14296,-0.02460,
5.11719,-0.03715,-0.47917,-0.32939,-0.19807,0.96416,0.13782,,,0.75516,0.63929,0.14295,-0.02464,
5.12500,-0.14052,-0.26714,-0.46878,-0.20145,0.96029,0.14320,,,0.75517,0.63928,0.14295,-0.02467,
5.13281,-0.03715,-0.51451,-0.46878,-0.19758,0.96609,0.13195,,,0.75517,0.63927,0.14295,-0.02472,
5.14063,-0.07161,-0.51451,-0.39909,-0.19372,0.96319,0.14174,,,0.75518,0.63926,0.14294,-0.02476,
5.14844,-0.14052,-0.23180,-0.67788,-0.19807,0.96512,0.14223,,,0.75519,0.63925,0.14296,-0.02481,
5.15625,-0.17498,0.01556,-0.85213,-0.20145,0.97091,0.14174,,,0.75520,0.63923,0.14300,-0.02485,
5.16406,-0.17498,-0.01978,-0.78243,-0.20193,0.95981,0.14272,,,0.75520,0.63921,0.14303,-0.02489,
5.17188,-0.31280,-0.05512,-0.95667,-0.19903,0.96657,0.13831,,,0.75521,0.63919,0.14307,-0.02493,
5.17969,-0.34726,0.05090,-1.09607,-0.19855,0.96078,0.14369,,,0.75523,0.63916,0.14312,-0.02499,
5.18750,-0.20943,0.19225,-1.06122,-0.19710,0.96560,0.14027,,,0.75523,0.63914,0.14318,-0.02503,
5.19531,-0.10607,0.36894,-1.09607,-0.20145,0.96367,0.14125,,,0.75523,0.63912,0.14324,-0.02507,
5.20313,-0.07161,0.58096,-1.27032,-0.19952,0.96367,0.14223,,,0.75523,0.63911,0.14333,-0.02511,
5.21094,-0.00270,0.79299,-1.30517,-0.19903,0.96657,0.14369,,,0.75522,0.63910,0.14343,-0.02514,
5.21875,-0.00270,0.58096,-1.34002,-0.20097,0.96367,0.14125,,,0.75521,0.63908,0.14351,-0.02518,
5.22656,0.10067,0.51029,-1.37487,-0.20290,0.96802,0.14565,,,0.75520,0.63908,0.14360,-0.02523,
5.23438,0.27295,0.33360,-1.40972,-0.20677,0.96464,0.15005,,,0.75518,0.63908,0.14368,-0.02529,
5.24219,0.23849,0.12157,-1.44457,-0.20532,0.96319,0.14663,,,0.75517,0.63908,0.14375,-0.02537,
5.25000,0.44523,0.22758,-1.40972,-0.20532,0.96464,0.14614,,,0.75514,0.63909,0.14382,-0.02543,
5.25781,0.41077,0.12157,-1.37487,-0.20193,0.96946,0.14125,,,0.75512,0.63909,0.14388,-0.02550,
5.26563,0.58305,0.33360,-1.20062,-0.20048,0.96657,0.14272,,,0.75509,0.63911,0.14395,-0.02556,
5.27344,0.51414,0.54562,-1.30517,-0.20677,0.96753,0.14908,,,0.75506,0.63913,0.14404,-0.02560,
5.28125,0.37632,0.75765,-1.13092,-0.20290,0.96753,0.14320,,,0.75503,0.63914,0.14412,-0.02563,
5.28906,0.47969,0.68697,-0.99152,-0.20290,0.96560,0.13684,,,0.75500,0.63915,0.14420,-0.02566,
5.29688,0.65196,0.65164,-0.99152,-0.20145,0.96319,0.13733,,,0.75497,0.63918,0.14428,-0.02569,
5.30469,0.58305,0.61630,-0.95667,-0.20628,0.96753,0.14712,,,0.75493,0.63920,0.14435,-0.02572,
5.31250,0.58305,0.26292,-0.81728,-0.21015,0.96222,0.14810,,,0.75491,0.63922,0.14440,-0.02575,
5.32031,0.61751,0.01556,-0.71273,-0.20435,0.96464,0.14174,,,0.75488,0.63925,0.14443,-0.02579,
5.32813,0.68642,-0.23180,-0.50363,-0.20435,0.96512,0.14614,,,0.75485,0.63928,0.14444,-0.02584,
5.33594,0.54860,-0.16113,-0.46878,-0.19952,0.96416,0.13978,,,0.75483,0.63930,0.14445,-0.02587,
5.34375,0.54860,0.01556,-0.39909,-0.20628,0.96319,0.13929,,,0.75480,0.63932,0.14447,-0.02590,
5.35156,0.30741,-0.23180,-0.43393,-0.20532,0.96753,0.14467,,,0.75479,0.63934,0.14447,-0.02593,
5.35938,0.51414,-0.44383,-0.46878,-0.20338,0.95788,0.13831,,,0.75477,0.63936,0.14447,-0.02598,
5.36719,0.44523,-0.33782,-0.39909,-0.19952,0.96367,0.13831,,,0.75475,0.63937,0.14447,-0.02602,
5.37500,0.30741,-0.23180,-0.46878,-0.20048,0.96512,0.14076,,,0.75474,0.63939,0.14448,-0.02606,
5.38281,0.30741,-0.01978,-0.50363,-0.20290,0.96705,0.14369,,,0.75473,0.63940,0.14450,-0.02609,
5.39063,0.44523,0.12157,-0.53848,-0.20242,0.96464,0.13684,,,0.75471,0.63941,0.14453,-0.02612,
5.39844,0.23849,-0.19647,-0.60818,-0.20242,0.96319,0.13733,,,0.75470,0.63942,0.14454,-0.02616,
5.40625,0.03176,0.01556,-0.78243,-0.20483,0.96609,0.13684,,,0.75469,0.63941,0.14458,-0.02620,
5.41406,0.20404,-0.09045,-0.81728,-0.20580,0.96705,0.14223,,,0.75468,0.63942,0.14461,-0.02625,
5.42188,0.10067,-0.26714,-0.74758,-0.20242,0.96367,0.13782,,,0.75468,0.63941,0.14463,-0.02630,
5.42969,-0.00270,-0.26714,-0.88698,-0.20338,0.97188,0.14027,,,0.75468,0.63940,0.14465,-0.02635,
5.43750,-0.10607,-0.19647,-0.88698,-0.19807,0.96560,0.13391,,,0.75469,0.63939,0.14468,-0.02641,
5.44531,-0.00270,-0.01978,-0.78243,-0.20483,0.96174,0.13733,,,0.75469,0.63938,0.14471,-0.02645,
5.45313,-0.20943,0.22758,-0.85213,-0.19758,0.95933,0.13733,,,0.75469,0.63936,0.14476,-0.02648,
5.46094,-0.24389,0.36894,-0.95667,-0.20290,0.96319,0.13391,,,0.75470,0.63934,0.14482,-0.02651,
5.46875,-0.20943,0.43961,-0.74758,-0.20290,0.96416,0.13929,,,0.75470,0.63932,0.14488,-0.02653,
5.47656,-0.27834,0.22758,-0.71273,-0.20580,0.96319,0.14027,,,0.75471,0.63930,0.14492,-0.02655,
5.48438,-0.24389,0.22758,-0.64303,-0.20048,0.96946,0.14174,,,0.75472,0.63929,0.14496,-0.02657,
5.49219,-0.17498,0.22758,-0.60818,-0.20773,0.96174,0.14272,,,0.75472,0.63927,0.14500,-0.02659,
5.50000,-0.07161,0.47495,-0.60818,-0.20628,0.95981,0.14223,,,0.75472,0.63926,0.14505,-0.02660,
5.50781,-0.10607,0.36894,-0.50363,-0.20580,0.96850,0.14565,,,0.75472,0.63925,0.14509,-0.02661,
5.51563,-0.20943,-0.12579,-0.46878,-0.20290,0.96416,0.13929,,,0.75473,0.63924,0.14511,-0.02664,
5.52344,-0.17498,-0.26714,-0.39909,-0.20338,0.95981,0.13782,,,0.75474,0.63922,0.14511,-0.02667,
5.53125,-0.10607,-0.30248,-0.29454,-0.20677,0.96464,0.14565,,,0.75474,0.63921,0.14511,-0.02670,
5.53906,-0.14052,-0.47917,-0.29454,-0.20387,0.96560,0.14076,,,0.75475,0.63920,0.14510,-0.02673,
5.54688,-0.24389,-0.51451,-0.32939,-0.20048,0.96512,0.14027,,,0.75477,0.63919,0.14508,-0.02677,
5.55469,-0.27834,-0.23180,-0.50363,-0.20048,0.96319,0.14125,,,0.75478,0.63917,0.14509,-0.02680,
5.56250,-0.17498,-0.37315,-0.32939,-0.20435,0.96657,0.13635,,,0.75479,0.63915,0.14509,-0.02683,
5.57031,-0.20943,-0.26714,-0.39909,-0.20387,0.96126,0.13684,,,0.75480,0.63914,0.14509,-0.02686,
5.57813,-0.17498,-0.54984,-0.39909,-0.19662,0.96319,0.14663,,,0.75482,0.63912,0.14508,-0.02690,
5.58594,-0.07161,-0.09045,-0.46878,-0.20338,0.96078,0.13929,,,0.75482,0.63912,0.14510,-0.02693,
5.59375,-0.17498,-0.09045,-0.46878,-0.20048,0.95981,0.14467,,,0.75483,0.63910,0.14511,-0.02696,
5.60156,-0.07161,-0.30248,-0.50363,-0.20483,0.96560,0.14712,,,0.75483,0.63909,0.14512,-0.02700,
5.60938,-0.03715,-0.37315,-0.53848,-0.20097,0.96850,0.14174,,,0.75484,0.63908,0.14513,-0.02704,
5.61719,0.03176,-0.23180,-0.57333,-0.20532,0.96512,0.13880,,,0.75484,0.63908,0.14514,-0.02708,
5.62500,0.13513,-0.47917,-0.67788,-0.20242,0.96222,0.14418,,,0.75483,0.63908,0.14514,-0.02714,
5.63281,0.10067,-0.79721,-0.71273,-0.20290,0.96126,0.14418,,,0.75484,0.63908,0.14513,-0.02721,
5.64063,0.06621,-0.51451,-0.85213,-0.20677,0.96512,0.14614,,,0.75484,0.63907,0.14514,-0.02728,
5.64844,0.13513,-0.33782,-0.95667,-0.19758,0.96512,0.14027,,,0.75483,0.63907,0.14517,-0.02734,
5.65625,-0.07161,-0.01978,-1.02637,-0.19807,0.96319,0.13929,,,0.75483,0.63905,0.14521,-0.02739,
5.66406,-0.00270,-0.12579,-1.16577,-0.19662,0.96367,0.13880,,,0.75483,0.63904,0.14526,-0.02746,
5.67188,0.03176,0.47495,-1.20062,-0.20483,0.96753,0.13782,,,0.75482,0.63903,0.14533,-0.02750,
5.67969,0.06621,0.43961,-1.06122,-0.20242,0.96029,0.14125,,,0.75482,0.63903,0.14540,-0.02754,
5.68750,0.06621,0.29826,-1.27032,-0.19952,0.96078,0.14125,,,0.75481,0.63902,0.14547,-0.02759,
5.69531,0.03176,0.26292,-1.30517,-0.20242,0.96271,0.14027,,,0.75480,0.63901,0.14554,-0.02765,
5.70313,-0.00270,0.36894,-1.20062,-0.20048,0.96319,0.13635,,,0.75480,0.63900,0.14561,-0.02769,
5.71094,0.03176,0.29826,-1.34002,-0.20822,0.96222,0.13978,,,0.75479,0.63898,0.14569,-0.02775,
5.71875,-0.03715,0.12157,-1.34002,-0.20628,0.96078,0.13929,,,0.75479,0.63897,0.14575,-0.02781,
5.72656,-0.24389,0.05090,-1.27032,-0.20097,0.96416,0.13587,,,0.75479,0.63894,0.14581,-0.02787,
5.73438,-0.14052,0.19225,-1.16577,-0.20097,0.96898,0.14369,,,0.75480,0.63893,0.14587,-0.02792,
5.74219,-0.14052,0.47495,-1.06122,-0.20435,0.96609,0.13929,,,0.75480,0.63891,0.14594,-0.02795,
5.75000,-0.17498,0.65164,-1.09607,-0.20145,0.96367,0.13929,,,0.75479,0.63889,0.14602,-0.02798,
5.75781,-0.27834,0.89900,-1.09607,-0.19903,0.96609,0.13391,,,0.75480,0.63887,0.14612,-0.02800,
5.76563,-0.34726,1.00501,-1.02637,-0.20725,0.96464,0.13684,,,0.75480,0.63884,0.14621,-0.02800,
5.77344,-0.24389,0.82832,-0.95667,-0.20532,0.96222,0.14174,,,0.75480,0.63882,0.14630,-0.02801,
5.78125,-0.07161,0.40427,-0.88698,-0.20628,0.96898,0.13733,,,0.75480,0.63881,0.14636,-0.02804,
5.78906,-0.03715,0.61630,-0.78243,-0.20773,0.96802,0.13782,,,0.75479,0.63880,0.14642,-0.02805,
5.79688,-0.00270,0.58096,-0.64303,-0.20532,0.96416,0.13880,,,0.75478,0.63879,0.14648,-0.02806,
5.80469,-0.07161,0.61630,-0.43393,-0.20822,0.96657,0.13635,,,0.75478,0.63879,0.14653,-0.02805,
5.81250,-0.24389,0.58096,-0.12029,-0.20773,0.95933,0.14516,,,0.75478,0.63877,0.14657,-0.02803,
5.82031,-0.38171,0.26292,-0.08544,-0.19952,0.97236,0.15446,,,0.75480,0.63875,0.14659,-0.02802,
5.82813,-0.38171,1.99447,0.15850,-0.18647,0.95836,0.12657,,,0.75479,0.63874,0.14668,-0.02792,
5.83594,-0.20943,1.57041,0.50700,-0.19468,0.97043,0.12804,,,0.75479,0.63874,0.14674,-0.02783,
5.84375,-0.48508,2.63054,0.40245,-0.22271,0.96464,0.10945,,,0.75478,0.63872,0.14686,-0.02769,
5.85156,-0.55399,0.26292,0.99489,-0.21498,0.96946,0.12461,,,0.75481,0.63870,0.14683,-0.02762,
5.85938,-0.58845,-0.37315,1.16914,-0.20435,0.96995,0.11776,,,0.75484,0.63868,0.14676,-0.02757,
5.86719,-0.10607,-0.05512,1.65703,-0.20677,0.97670,0.11434,,,0.75485,0.63870,0.14669,-0.02748,
5.87500,-0.62290,0.29826,1.65703,-0.19855,0.96995,0.13244,,,0.75488,0.63868,0.14663,-0.02738,
5.88281,-0.72627,1.18170,2.00552,-0.20145,0.96609,0.13635,,,0.75490,0.63867,0.14661,-0.02722,
5.89063,-0.93301,1.46440,2.52826,-0.20145,0.96174,0.11336,,,0.75493,0.63865,0.14657,-0.02701,
5.89844,-0.65736,2.20649,2.52826,-0.21257,0.96609,0.10651,,,0.75494,0.63864,0.14658,-0.02678,
5.90625,-0.65736,2.17115,2.42371,-0.21305,0.96271,0.09819,,,0.75495,0.63864,0.14659,-0.02656,
5.91406,-0.27834,0.54562,3.15555,-0.18309,0.95257,0.12168,,,0.75496,0.63865,0.14648,-0.02637,
5.92188,-0.62290,2.91324,3.29495,-0.19130,0.95450,0.15299,,,0.75497,0.63866,0.14648,-0.02606,
5.92969,-0.55399,5.10418,3.46919,-0.20725,0.94919,0.16816,,,0.75495,0.63867,0.14660,-0.02566,
5.93750,0.72088,3.30196,4.20103,-0.22561,0.93954,0.16131,,,0.75489,0.63876,0.14658,-0.02530,
5.94531,2.30585,3.12527,4.68892,-0.22561,0.95547,0.20192,,,0.75477,0.63893,0.14654,-0.02495,
5.95313,2.61595,3.16061,5.28136,-0.21740,0.95692,0.21708,,,0.75463,0.63912,0.14646,-0.02457,
5.96094,4.40766,1.14636,6.29199,-0.22948,0.95933,0.20974,,,0.75444,0.63941,0.14624,-0.02424,
5.96875,6.75066,-2.52875,6.53594,-0.25847,0.95064,0.19653,,,0.75418,0.63982,0.14581,-0.02408,
5.97656,7.81879,-5.70914,6.74503,-0.27007,0.94340,0.19066,,,0.75391,0.64028,0.14521,-0.02406,
5.98438,10.67863,-14.15483,6.98898,-0.25992,0.94340,0.19849,,,0.75359,0.64088,0.14416,-0.02442,
5.99219,13.22836,-20.37425,7.89506,-0.24639,0.93810,0.18724,,,0.75322,0.64160,0.14275,-0.02504,
6.00000,14.53769,-23.27194,8.17386,-0.22610,0.94533,0.19849,,,0.75283,0.64238,0.14117,-0.02578,
6.00781,15.67473,-25.14483,8.31325,-0.18647,0.93134,0.19996,1022.034,26.8,0.75240,0.64322,0.13949,-0.02660,
6.01563,16.22602,-24.65011,8.24355,-0.17584,0.93858,0.19947,,,0.75193,0.64409,0.13783,-0.02741,
6.02344,17.22525,-22.70654,8.06931,-0.18115,0.93616,0.19751,,,0.75140,0.64500,0.13628,-0.02816,
6.03125,18.43120,-21.04567,8.13901,-0.20290,0.95161,0.20387,,,0.75080,0.64598,0.13481,-0.02884,
6.03906,19.08586,-21.11634,8.10416,-0.20532,0.95016,0.20387,,,0.75017,0.64699,0.13334,-0.02953,
6.04688,20.60192,-23.05991,8.45265,-0.19903,0.95209,0.17892,,,0.74949,0.64807,0.13174,-0.03030,
6.05469,21.67005,-25.42754,8.73145,-0.21015,0.96222,0.15984,,,0.74877,0.64920,0.13001,-0.03117,
6.06250,22.04907,-27.61847,8.87084,-0.21933,0.96416,0.14663,,,0.74806,0.65035,0.12816,-0.03214,
6.07031,22.32472,-33.97924,8.97539,-0.20725,0.97236,0.08743,,,0.74738,0.65149,0.12598,-0.03338,
6.07813,21.87679,-38.53780,8.24355,-0.20048,0.98877,0.04193,,,0.74676,0.65258,0.12360,-0.03486,
6.08594,21.22213,-40.02198,7.82536,-0.18937,1.00855,0.03116,,,0.74617,0.65363,0.12116,-0.03642,
6.09375,19.18923,-42.35426,6.81473,-0.15796,1.02737,0.01893,,,0.74567,0.65455,0.11866,-0.03812,
6.10156,16.70841,-40.34002,5.66470,-0.10045,1.02014,0.01110,,,0.74527,0.65534,0.11631,-0.03977,
6.10938,15.15789,-36.66490,5.00256,-0.07290,1.00952,0.00817,,,0.74489,0.65605,0.11418,-0.04127,
6.11719,12.09132,-25.42754,3.53889,-0.05116,1.02400,-0.00993,,,0.74455,0.65662,0.11270,-0.04232,
6.12500,8.57682,-10.79776,2.73736,-0.05502,1.02834,-0.00308,,,0.74426,0.65704,0.11200,-0.04273,
6.13281,6.57838,-3.30618,2.07522,-0.06614,1.03172,0.01649,,,0.74400,0.65738,0.11172,-0.04283,
6.14063,2.16802,8.24923,1.97067,-0.10963,1.02158,0.04535,,,0.74384,0.65753,0.11205,-0.04237,
6.14844,-0.69182,15.52878,2.45856,-0.13959,0.99359,0.06982,,,0.74376,0.65756,0.11272,-0.04155,
6.15625,-1.24311,17.75505,3.32980,-0.17632,0.99215,0.08988,,,0.74369,0.65757,0.11348,-0.04057,
6.16406,-0.72627,16.34154,5.17681,-0.22900,0.99649,0.10798,,,0.74361,0.65762,0.11408,-0.03957,
6.17188,-0.69182,11.32360,7.79051,-0.25316,0.99118,0.12217,,,0.74357,0.65768,0.11430,-0.03866,
6.17969,-0.82964,8.10788,9.21934,-0.25123,0.96319,0.13538,,,0.74357,0.65773,0.11430,-0.03783,
6.18750,0.06621,0.12157,12.35578,-0.25364,0.96898,0.16326,,,0.74360,0.65783,0.11376,-0.03720,
6.19531,0.37632,-4.43698,13.74975,-0.25702,0.95499,0.15739,,,0.74365,0.65794,0.11291,-0.03670,
6.20313,1.13435,-14.36686,15.73617,-0.21740,0.96029,0.15544,,,0.74375,0.65808,0.11148,-0.03656,
6.21094,0.65196,-20.90432,18.00137,-0.19275,0.93858,0.14076,,,0.74392,0.65820,0.10961,-0.03659,
6.21875,1.16880,-23.09525,18.45441,-0.17390,0.96174,0.13440,,,0.74409,0.65834,0.10760,-0.03669,
6.22656,1.09989,-23.30728,18.34987,-0.12220,0.96319,0.10798,,,0.74425,0.65847,0.10559,-0.03682,
6.23438,0.65196,-19.06676,18.10592,-0.08354,0.97815,0.11874,,,0.74441,0.65858,0.10381,-0.03676,
6.24219,-0.14052,-16.91117,17.58318,-0.07484,0.96271,0.12559,,,0.74458,0.65866,0.10216,-0.03662,
6.25000,-0.82964,-11.75187,14.93463,-0.08982,0.95113,0.10357,,,0.74473,0.65869,0.10090,-0.03639,
6.25781,-0.27834,-12.38795,11.86789,-0.12606,0.94919,0.07128,,,0.74486,0.65872,0.09974,-0.03634,
6.26563,0.54860,-13.51875,10.05572,-0.14249,0.94823,0.05612,,,0.74495,0.65879,0.09860,-0.03644,
6.27344,1.16880,-15.85104,6.74503,-0.14201,0.96802,0.06786,,,0.74502,0.65885,0.09749,-0.03682,
6.28125,1.06544,-18.04197,3.64344,-0.10093,0.97091,0.04731,,,0.74510,0.65888,0.09640,-0.03745,
6.28906,1.23771,-18.04197,2.38886,-0.08402,0.97429,0.06150,,,0.74517,0.65892,0.09538,-0.03815,
6.29688,0.75533,-15.10895,-0.39909,-0.07000,0.97574,0.08694,,,0.74523,0.65891,0.09463,-0.03885,
6.30469,1.06544,-11.39850,-2.59459,-0.06082,0.99215,0.11532,,,0.74525,0.65892,0.09416,-0.03950,
6.31250,0.96207,-9.34891,-3.50068,-0.06662,0.99021,0.12902,,,0.74526,0.65892,0.09384,-0.04010,
6.32031,0.99652,-6.34521,-5.45224,-0.06614,0.97574,0.14369,,,0.74524,0.65892,0.09376,-0.04067,
6.32813,0.61751,-2.77611,-7.29926,-0.10673,0.97574,0.14320,,,0.74521,0.65890,0.09394,-0.04117,
6.33594,0.72088,-2.06936,-7.99624,-0.10915,0.98780,0.12070,,,0.74517,0.65888,0.09420,-0.04168,
6.34375,1.03098,-1.53930,-8.06594,-0.13669,1.02351,0.10749,,,0.74511,0.65887,0.09448,-0.04216,
6.35156,0.78979,-1.00923,-7.85685,-0.14298,1.02786,0.09428,,,0.74506,0.65886,0.09478,-0.04261,
6.35938,0.03176,-1.50396,-6.60227,-0.15312,1.01386,0.08351,,,0.74504,0.65881,0.09500,-0.04301,
6.36719,-0.38171,-3.05881,-4.54616,-0.15941,0.99601,0.05025,,,0.74507,0.65876,0.09505,-0.04338,
6.37500,-0.62290,-2.88213,-3.18703,-0.16956,0.99601,0.04633,,,0.74511,0.65869,0.09504,-0.04367,
6.38281,-1.48430,-2.98814,0.01911,-0.16376,0.99070,0.06150,,,0.74519,0.65861,0.09490,-0.04379,
6.39063,-3.58611,1.25238,3.26010,-0.16521,1.00517,0.07813,,,0.74535,0.65845,0.09482,-0.04355,
6.39844,-4.55087,2.66588,5.56015,-0.18695,1.00904,0.08841,,,0.74556,0.65827,0.09472,-0.04311,
6.40625,-5.55009,4.60945,10.47391,-0.22755,1.00469,0.08107,,,0.74581,0.65806,0.09450,-0.04234,
6.41406,-6.51486,2.41852,15.80586,-0.25751,1.00083,0.10162,,,0.74613,0.65784,0.09394,-0.04138,
6.42188,-6.48040,-0.05512,18.59381,-0.25944,0.99504,0.10309,,,0.74647,0.65763,0.09312,-0.04040,
6.42969,-6.37704,-7.22866,25.18034,-0.29037,1.00711,0.08449,,,0.74687,0.65744,0.09164,-0.03940,
6.43750,-6.23921,-17.79461,31.55777,-0.29858,1.00421,0.09183,,,0.74734,0.65727,0.08933,-0.03855,
6.44531,-5.96357,-23.58998,34.97301,-0.28747,1.01869,0.10357,,,0.74784,0.65712,0.08658,-0.03779,
6.45313,-5.44673,-32.49506,41.55954,-0.23721,0.99987,0.10651,,,0.74838,0.65700,0.08308,-0.03710,
6.46094,-5.82574,-39.42124,47.83242,-0.18019,1.00566,0.11923,,,0.74898,0.65687,0.07894,-0.03639,
6.46875,-6.58377,-39.88063,50.89916,-0.17825,0.99794,0.13195,,,0.74961,0.65670,0.07464,-0.03554,
6.47656,-8.82340,-40.90542,56.68415,-0.15119,1.01772,0.12902,,,0.75034,0.65643,0.07003,-0.03443,
6.48438,-10.23610,-39.77461,63.23583,-0.11156,1.00180,0.11336,,,0.75113,0.65611,0.06519,-0.03293,
6.49219,-10.33946,-37.83104,66.61622,-0.10577,1.00711,0.11287,,,0.75190,0.65578,0.06029,-0.03116,
6.50000,-11.47651,-37.15963,74.66642,-0.14394,1.00904,0.08988,,,0.75271,0.65541,0.05507,-0.02895,
6.50781,-13.40604,-36.87693,81.35750,-0.15167,1.08384,0.04046,,,0.75359,0.65494,0.04957,-0.02637,
6.51563,-14.50863,-36.98294,86.65460,-0.21498,1.10845,0.01306,,,0.75450,0.65441,0.04383,-0.02352,
6.52344,-17.60966,-49.88118,95.29724,-0.23479,1.19435,-0.09507,,,0.75557,0.65369,0.03704,-0.02079,
6.53125,-20.09048,-56.31262,101.25648,-0.25268,1.22668,-0.18949,,,0.75673,0.65281,0.02965,-0.01803,
6.53906,-22.64021,-72.56794,111.18854,-0.24011,1.20111,-0.33236,,,0.75799,0.65175,0.02098,-0.01548,
6.54688,-17.71302,-72.49726,118.64630,-0.26717,1.28218,-0.21151,,,0.75897,0.65090,0.01199,-0.01254,
6.55469,-19.29799,-82.56848,122.51458,-0.21836,1.28121,-0.29762,,,0.75996,0.64990,0.00229,-0.00985,
6.56250,-19.78038,-89.17662,125.79042,-0.15506,1.33575,-0.45565,,,0.76089,0.64880,-0.00789,-0.00728,
6.57031,-6.99724,-91.22620,128.05563,0.14504,1.27591,-0.48598,,,0.76117,0.64828,-0.01828,-0.00468,
6.57813,-9.96045,-80.27154,125.65102,0.43886,1.40620,-0.35193,,,0.76151,0.64755,-0.02799,-0.00172,
6.58594,-24.36301,-18.14798,120.04028,0.37411,1.49597,-0.04859,,,0.76253,0.64603,-0.03423,0.00367,
6.59375,-37.21505,1.71177,112.93101,0.07884,1.53312,0.01649,,,0.76412,0.64381,-0.03913,0.00953,
6.60156,-33.18372,-5.24975,110.94460,0.23590,1.41441,-0.23108,,,0.76547,0.64177,-0.04429,0.01499,
6.60938,-29.63476,7.43646,107.59906,0.19772,1.30004,-0.38813,,,0.76665,0.63988,-0.04864,0.02084,
6.61719,-23.50161,37.50879,100.42009,0.11798,1.16925,-0.39645,,,0.76764,0.63825,-0.05109,0.02764,
6.62500,-15.88686,47.61535,94.39115,0.14504,1.09252,-0.35144,,,0.76830,0.63698,-0.05273,0.03460,
6.63281,-2.41461,53.97612,84.31969,0.03148,0.92362,-0.52415,,,0.76838,0.63641,-0.05357,0.04135,
6.64063,7.95661,55.07159,71.63453,-0.27442,0.79187,-0.51583,,,0.76802,0.63640,-0.05377,0.04752,
6.64844,12.36697,52.45660,64.69951,-0.34643,0.77546,-0.43901,,,0.76745,0.63663,-0.05379,0.05323,
6.65625,26.45942,24.75190,58.21753,-0.26621,0.74940,-0.33138,,,0.76617,0.63771,-0.05493,0.05744,
6.66406,41.79229,-0.58518,52.64163,-0.18067,0.70356,-0.30398,,,0.76414,0.63969,-0.05708,0.06032,
6.67188,48.92466,-8.71284,48.39001,-0.14733,0.74265,-0.28294,,,0.76176,0.64208,-0.05944,0.06265,
6.67969,58.88241,-15.07361,37.97005,-0.09852,0.65964,-0.25848,,,0.75895,0.64504,-0.06163,0.06420,
6.68750,68.35778,-15.63901,32.88205,-0.15119,0.62055,-0.23108,,,0.75572,0.64850,-0.06359,0.06550,
6.69531,72.04456,-21.71708,22.04390,-0.15264,0.62924,-0.18020,,,0.75233,0.65220,-0.06536,0.06599,
6.70313,78.45335,-26.66435,9.88147,-0.10625,0.64034,-0.09604,,,0.74867,0.65629,-0.06681,0.06566,
6.71094,80.86527,-26.13429,3.67829,-0.10577,0.64372,-0.06131,,,0.74490,0.66051,-0.06795,0.06504,
6.71875,84.65541,-27.40644,-8.58868,-0.18454,0.61428,-0.02265,,,0.74099,0.66496,-0.06857,0.06376,
6.72656,90.75411,-29.91541,-20.82081,-0.19227,0.65096,0.01698,,,0.73681,0.66976,-0.06875,0.06178,
6.73438,92.99374,-32.00033,-25.97851,-0.21160,0.66688,0.03899,,,0.73250,0.67467,-0.06877,0.05944,
6.74219,96.30150,-37.58368,-34.30751,-0.17197,0.68474,0.08988,,,0.72801,0.67977,-0.06868,0.05645,
6.75000,100.50512,-41.04677,-43.22894,-0.14974,0.70018,0.12951,,,0.72331,0.68510,-0.06832,0.05287,
6.75781,102.12455,-43.23770,-46.95782,-0.15941,0.73396,0.14320,,,0.71848,0.69049,-0.06789,0.04901,
6.76563,103.05486,-45.46397,-54.52013,-0.14201,0.76871,0.17305,,,0.71358,0.69591,-0.06720,0.04467,
6.77344,102.19346,-46.41809,-62.84913,-0.15651,0.81648,0.20143,,,0.70868,0.70129,-0.06617,0.03988,
6.78125,101.53880,-48.07896,-67.48409,-0.16569,0.83386,0.21561,,,0.70376,0.70660,-0.06498,0.03478,
6.78906,100.64295,-54.29838,-77.03281,-0.08644,0.89563,0.22246,,,0.69883,0.71187,-0.06363,0.02891,
6.79688,98.26549,-57.09005,-86.86033,-0.03473,0.95933,0.23714,,,0.69395,0.71700,-0.06194,0.02243,
6.80469,96.78389,-56.77201,-92.54077,-0.01201,0.99938,0.22980,,,0.68909,0.72202,-0.05995,0.01568,
6.81250,90.82302,-51.57738,-103.58802,0.04743,1.09108,0.22442,,,0.68448,0.72673,-0.05718,0.00865,
6.82031,80.79636,-38.71448,-112.26551,0.07111,1.12486,0.22149,,,0.68036,0.73093,-0.05337,0.00180,
6.82813,75.49015,-30.05677,-116.37773,0.09865,1.11858,0.21610,,,0.67647,0.73482,-0.04895,-0.00482,
6.83594,66.60053,-8.57149,-123.17335,0.06772,1.16250,0.23959,,,0.67304,0.73827,-0.04320,-0.01071,
6.84375,56.02257,3.79669,-127.00678,0.04404,1.19628,0.21904,,,0.67011,0.74118,-0.03667,-0.01618,
6.85156,51.47440,8.99132,-128.40076,0.05661,1.19724,0.21415,,,0.66736,0.74383,-0.02983,-0.02146,
6.85938,43.23944,20.40537,-130.77051,0.10252,1.20111,0.22246,,,0.66499,0.74606,-0.02233,-0.02628,
6.86719,39.00137,27.47290,-131.67660,0.10397,1.19580,0.21806,,,0.66278,0.74804,-0.01446,-0.03080,
6.87500,33.14386,38.81628,-133.59331,0.07546,1.21655,0.20289,,,0.66082,0.74971,-0.00596,-0.03482,
6.88281,27.69983,45.84847,-134.84789,0.04984,1.23875,0.16229,,,0.65907,0.75109,0.00293,-0.03854,
6.89063,25.59803,50.12432,-135.61457,0.03245,1.23682,0.17550,,,0.65736,0.75231,0.01206,-0.04207,
6.89844,21.08430,50.08898,-135.47518,0.02471,1.24599,0.12706,,,0.65582,0.75324,0.02119,-0.04558,
6.90625,18.84467,52.49194,-135.37063,0.05178,1.24888,0.10162,,,0.65432,0.75402,0.03043,-0.04896,
6.91406,17.67317,53.09268,-135.16153,0.05081,1.24888,0.09819,,,0.65282,0.75466,0.03969,-0.05230,
6.92188,15.46800,49.77094,-133.14027,0.07062,1.23971,0.07275,,,0.65138,0.75513,0.04869,-0.05570,
6.92969,14.95116,42.20869,-129.37654,0.08464,1.23971,0.05367,,,0.64996,0.75549,0.05717,-0.05932,
6.93750,13.77966,37.08473,-126.90224,0.11846,1.22186,0.04976,,,0.64856,0.75573,0.06529,-0.06308,
6.94531,12.40142,27.40222,-118.64294,0.18225,1.17070,0.07862,,,0.64727,0.75584,0.07256,-0.06697,
6.95313,14.08976,15.91749,-109.19876,0.23493,1.17649,0.05220,,,0.64595,0.75597,0.07882,-0.07103,
6.96094,14.22758,12.17170,-104.38955,0.26537,1.18904,0.03116,,,0.64463,0.75608,0.08466,-0.07508,
6.96875,13.22836,7.33045,-93.89990,0.27117,1.14416,-0.00602,,,0.64341,0.75614,0.08975,-0.07890,
6.97656,14.84779,0.61630,-83.20115,0.23155,1.08142,-0.03733,,,0.64218,0.75627,0.09399,-0.08261,
6.98438,17.22525,-5.32042,-78.07829,0.24943,1.07370,-0.06131,,,0.64088,0.75648,0.09768,-0.08641,
6.99219,22.25580,-14.04882,-67.34469,0.29292,1.08142,-0.05837,,,0.63942,0.75691,0.10041,-0.09022,
7.00000,26.18378,-18.96075,-57.09898,0.30983,1.06743,-0.04614,,,0.63784,0.75754,0.10236,-0.09386,
7.00781,28.45786,-21.15168,-52.70796,0.31563,1.05778,-0.04076,1022.030,26.9,0.63618,0.75827,0.10398,-0.09744,
7.01563,30.76641,-23.02458,-44.55322,0.28277,1.05922,-0.04663,,,0.63445,0.75913,0.10508,-0.10078,
7.02344,28.87133,-21.57573,-37.09545,0.26441,1.04330,-0.03489,,,0.63285,0.75996,0.10586,-0.10371,
7.03125,27.76875,-21.08101,-33.40142,0.25378,1.05488,-0.01678,,,0.63133,0.76076,0.10649,-0.10644,
7.03906,24.56435,-20.62162,-26.29215,0.25958,1.06309,-0.01483,,,0.63001,0.76147,0.10678,-0.10882,
7.04688,22.29026,-19.49081,-22.84207,0.27021,1.05633,-0.02902,,,0.62883,0.76212,0.10696,-0.11097,
7.05469,17.56980,-16.16908,-15.66310,0.26537,1.05295,-0.00749,,,0.62791,0.76263,0.10695,-0.11261,
7.06250,12.05686,-21.15168,-7.78715,0.30500,1.01676,-0.02902,,,0.62738,0.76293,0.10635,-0.11413,
7.07031,11.71230,-24.43808,-3.84917,0.32240,1.00855,-0.04516,,,0.62692,0.76321,0.10542,-0.11565,
7.07813,10.50635,-29.63271,3.95708,0.36251,1.01820,-0.07452,,,0.62661,0.76345,0.10386,-0.11709,
7.08594,8.43899,-31.47027,10.78756,0.37749,0.97574,-0.12491,,,0.62648,0.76363,0.10188,-0.11833,
7.09375,8.02552,-30.94021,13.81945,0.38377,0.95788,-0.14008,,,0.62639,0.76382,0.09978,-0.11940,
7.10156,7.71542,-27.44178,19.46505,0.36927,0.92458,-0.17579,,,0.62633,0.76406,0.09753,-0.12005,
7.10938,7.26749,-22.38850,24.41365,0.32723,0.92265,-0.19634,,,0.62630,0.76435,0.09524,-0.12022,
7.11719,7.26749,-20.30358,26.46977,0.30983,0.93568,-0.18998,,,0.62627,0.76466,0.09293,-0.12019,
7.12500,8.05998,-15.70969,30.23350,0.29485,0.93375,-0.18900,,,0.62619,0.76507,0.09061,-0.11977,
7.13281,6.95739,-10.51506,33.61388,0.27649,0.93713,-0.19145,,,0.62617,0.76548,0.08835,-0.11892,
7.14063,6.81957,-8.39480,35.11241,0.25474,0.94051,-0.19879,,,0.62615,0.76591,0.08611,-0.11790,
7.14844,7.06076,-6.38055,37.93520,0.23251,0.95933,-0.19341,,,0.62612,0.76638,0.08379,-0.11665,
7.15625,7.26749,-4.68435,41.48984,0.25523,0.96319,-0.19390,,,0.62609,0.76689,0.08137,-0.11517,
7.16406,7.09522,-2.84679,43.30200,0.26199,0.96078,-0.19683,,,0.62608,0.76741,0.07892,-0.11350,
7.17188,7.09522,0.19225,46.61269,0.26731,0.95113,-0.19781,,,0.62606,0.76796,0.07644,-0.11154,
7.17969,8.40454,2.80723,50.51582,0.24169,0.94340,-0.18802,,,0.62599,0.76860,0.07385,-0.10928,
7.18750,8.33563,2.94858,52.08404,0.23638,0.94003,-0.18069,,,0.62592,0.76923,0.07118,-0.10694,
7.19531,8.95583,4.39743,54.87199,0.18032,0.94582,-0.23548,,,0.62582,0.76991,0.06842,-0.10441,
7.20313,9.40376,7.08309,55.32503,-0.01153,0.98828,-0.21738,,,0.62569,0.77061,0.06575,-0.10172,
7.21094,7.09522,6.27032,54.31440,-0.02023,1.07467,-0.19977,,,0.62566,0.77120,0.06312,-0.09910,
7.21875,7.71542,-0.09045,54.55834,-0.05986,1.22089,-0.05397,,,0.62562,0.77176,0.06019,-0.09681,
7.22656,7.06076,-10.86843,57.45084,-0.12075,1.20062,-0.16258,,,0.62566,0.77221,0.05666,-0.09496,
7.23438,-7.23843,16.97762,54.94169,-0.41312,1.42213,0.18871,,,0.62633,0.77222,0.05454,-0.09170,
7.24219,-17.71302,26.13007,59.26301,-0.69050,1.41200,0.40007,,,0.62753,0.77184,0.05264,-0.08773,
7.25000,-15.61121,2.84257,65.53589,-0.68954,1.36856,0.32423,,,0.62873,0.77142,0.04941,-0.08472,
7.25781,-2.72471,-48.67970,79.33623,-0.30777,1.46846,0.19604,,,0.62948,0.77127,0.04317,-0.08387,
7.26563,4.47657,-83.27524,93.79872,0.04936,1.42454,-0.01678,,,0.63001,0.77123,0.03463,-0.08423,
7.27344,7.54314,-91.54424,99.86250,0.13876,1.32272,-0.13812,,,0.63038,0.77123,0.02540,-0.08477,
7.28125,12.81489,-88.36386,101.60497,0.21608,1.09108,-0.31474,,,0.63042,0.77141,0.01619,-0.08506,
7.28906,14.77888,-54.72243,96.23817,0.29582,1.01820,-0.28832,,,0.63024,0.77181,0.00869,-0.08382,
7.29688,10.98873,-30.79886,92.43959,0.26151,0.92700,-0.26288,,,0.63020,0.77215,0.00243,-0.08147,
7.30469,8.95583,1.14636,83.30906,0.03969,0.69246,-0.34165,,,0.63018,0.77254,-0.00195,-0.07783,
7.31250,21.29104,-1.18592,73.65579,0.11605,0.72914,-0.47767,,,0.62944,0.77343,-0.00600,-0.07472,
7.32031,26.42497,-6.09785,70.44965,0.24314,0.86957,-0.44440,,,0.62839,0.77449,-0.01011,-0.07201,
7.32813,21.46332,0.89900,67.48745,0.28132,1.04861,-0.29322,,,0.62758,0.77536,-0.01374,-0.06905,
7.33594,8.09444,22.66698,66.54652,0.16969,0.96464,-0.18558,,,0.62748,0.77574,-0.01633,-0.06500,
7.34375,6.88848,23.51508,65.74499,0.17307,0.96898,-0.22765,,,0.62742,0.77606,-0.01883,-0.06093,
7.35156,5.61361,24.96393,64.14192,0.14698,1.13016,-0.29028,,,0.62742,0.77631,-0.02118,-0.05686,
7.35938,-2.20787,35.49454,61.28427,0.00055,1.08963,-0.25163,,,0.62782,0.77626,-0.02289,-0.05236,
7.36719,-1.62212,33.93968,59.43725,0.09720,1.03268,-0.21053,,,0.62816,0.77621,-0.02458,-0.04802,
7.37500,-0.07161,34.43441,58.87966,0.17549,1.09301,-0.11512,,,0.62841,0.77621,-0.02622,-0.04368,
7.38281,-1.65658,37.40277,59.15846,0.14794,1.06164,-0.10094,,,0.62873,0.77614,-0.02775,-0.03917,
7.39063,-2.69026,33.23293,61.04032,0.03631,0.93037,-0.09458,,,0.62909,0.77599,-0.02954,-0.03479,
7.39844,3.54626,19.59261,54.27955,-0.08257,1.18228,-0.11904,,,0.62907,0.77607,-0.03158,-0.03142,
7.40625,4.02864,8.88530,53.16437,-0.01540,1.14706,-0.15622,,,0.62899,0.77614,-0.03402,-0.02866,
7.41406,7.50869,1.53508,56.75385,0.13973,1.03316,-0.14644,,,0.62870,0.77633,-0.03698,-0.02613,
7.42188,9.16257,-0.79721,53.61741,0.02375,1.02689,-0.12491,,,0.62830,0.77658,-0.03986,-0.02385,
7.42969,9.23148,-4.82570,50.79461,0.09092,0.97332,-0.11415,,,0.62788,0.77682,-0.04277,-0.02191,
7.43750,13.12500,-4.04827,47.83242,0.19820,0.98394,-0.13861,,,0.62724,0.77724,-0.04550,-0.02003,
7.44531,13.81411,4.89215,42.63987,0.26634,0.99552,-0.20466,,,0.62658,0.77770,-0.04757,-0.01791,
7.45313,14.84779,6.16431,41.00195,0.22575,0.98780,-0.22472,,,0.62586,0.77820,-0.04950,-0.01578,
7.46094,13.43510,11.07624,36.26243,0.18564,0.93423,-0.25212,,,0.62522,0.77866,-0.05097,-0.01360,
7.46875,13.02163,10.86421,30.82593,0.18854,0.92844,-0.25456,,,0.62460,0.77912,-0.05215,-0.01166,
7.47656,13.53847,9.62739,28.70012,0.17452,0.95402,-0.26337,,,0.62393,0.77960,-0.05328,-0.00988,
7.48438,10.91982,7.89585,23.61212,0.22091,0.97236,-0.26582,,,0.62340,0.77998,-0.05420,-0.00842,
7.49219,9.23148,9.20334,21.17266,0.16099,1.00421,-0.22472,,,0.62295,0.78030,-0.05494,-0.00699,
7.50000,6.92294,6.55302,19.32565,0.18467,0.98056,-0.24820,,,0.62261,0.78052,-0.05570,-0.00580,
7.50781,5.88926,7.47180,16.43315,0.16776,0.97863,-0.24282,,,0.62234,0.78071,-0.05626,-0.00468,
7.51563,5.47579,8.21389,13.47096,0.14456,0.96609,-0.22765,,,0.62208,0.78090,-0.05663,-0.00365,
7.52344,4.89004,8.24923,12.14668,0.20787,0.95836,-0.20857,,,0.62185,0.78106,-0.05693,-0.00267,
7.53125,5.37242,9.20334,10.71786,0.18419,0.93616,-0.18705,,,0.62160,0.78125,-0.05711,-0.00171,
7.53906,5.85480,7.89585,7.75566,0.16776,0.92024,-0.22765,,,0.62132,0.78146,-0.05719,-0.00094,
7.54688,5.68252,11.81833,5.87380,0.09479,0.92169,-0.18656,,,0.62107,0.78168,-0.05700,-0.00004,
7.55469,7.37086,5.17485,3.60859,0.14214,0.92941,-0.24233,,,0.62069,0.78198,-0.05697,0.00042,
7.56250,6.40610,8.03720,2.28431,0.11170,0.93182,-0.20662,,,0.62038,0.78224,-0.05676,0.00097,
7.57031,8.57682,1.85312,1.65703,0.19482,0.94147,-0.24820,,,0.61993,0.78260,-0.05677,0.00118,
7.57813,7.23304,5.56357,0.82064,0.13973,0.92651,-0.22912,,,0.61957,0.78290,-0.05657,0.00153,
7.58594,8.12889,6.44701,0.15850,0.08705,0.93520,-0.23206,,,0.61916,0.78324,-0.05631,0.00192,
7.59375,10.02397,4.29141,0.43730,0.10638,0.96319,-0.25554,,,0.61864,0.78366,-0.05615,0.00220,
7.60156,9.78277,1.28771,1.30853,0.18564,0.98635,-0.24038,,,0.61812,0.78407,-0.05616,0.00237,
7.60938,10.36852,-1.07991,2.66766,0.17356,0.99890,-0.25750,,,0.61756,0.78450,-0.05635,0.00246,
7.61719,8.40454,1.32305,3.26010,0.19144,0.96609,-0.26337,,,0.61712,0.78484,-0.05647,0.00270,
7.62500,8.02552,8.14321,2.38886,0.09479,0.97188,-0.23304,,,0.61672,0.78516,-0.05625,0.00327,
7.63281,7.74988,0.96967,3.53889,0.12281,0.96850,-0.28881,,,0.61631,0.78548,-0.05640,0.00350,
7.64063,5.57916,0.65164,4.79347,0.08415,0.95788,-0.24282,,,0.61601,0.78569,-0.05663,0.00376,
7.64844,7.37086,-0.83254,6.67533,0.16437,1.00711,-0.26875,,,0.61561,0.78598,-0.05702,0.00402,
7.65625,4.89004,3.30196,7.02383,0.16534,0.96898,-0.24869,,,0.61536,0.78615,-0.05726,0.00451,
7.66406,5.23460,7.71916,7.19807,0.05709,0.95643,-0.24869,,,0.61511,0.78634,-0.05732,0.00525,
7.67188,5.47579,3.83202,8.20870,0.10397,0.94630,-0.29811,,,0.61482,0.78654,-0.05759,0.00582,
7.67969,5.33796,5.70492,8.52235,0.11460,0.95981,-0.23304,,,0.61456,0.78672,-0.05781,0.00650,
7.68750,5.92371,1.95913,11.31030,0.20352,0.98394,-0.25065,,,0.61424,0.78693,-0.05833,0.00711,
7.69531,3.89082,6.87106,11.83304,0.17452,0.94485,-0.28196,,,0.61405,0.78704,-0.05868,0.00799,
7.70313,4.44211,8.74395,12.14668,0.08367,0.96753,-0.25652,,,0.61384,0.78717,-0.05896,0.00898,
7.71094,4.30429,5.70492,12.66942,0.16002,0.96367,-0.32012,,,0.61363,0.78730,-0.05940,0.00984,
7.71875,4.33874,8.60260,12.80882,0.10203,0.99408,-0.24380,,,0.61342,0.78742,-0.05972,0.01085,
7.72656,4.61439,7.33045,13.81945,0.19192,0.98925,-0.27658,,,0.61319,0.78755,-0.06016,0.01184,
7.73438,3.51180,11.18225,15.24827,0.17887,0.98346,-0.23304,,,0.61304,0.78763,-0.06050,0.01309,
7.74219,3.82191,14.00926,15.45737,0.10735,0.96802,-0.23793,,,0.61287,0.78771,-0.06075,0.01451,
7.75000,3.99419,13.16116,16.18921,0.13731,0.97718,-0.28001,,,0.61270,0.78779,-0.06106,0.01591,
7.75781,3.02942,13.76190,16.88619,0.21463,0.98394,-0.24576,,,0.61257,0.78783,-0.06139,0.01737,
7.76563,3.68408,12.13637,18.48926,0.23880,0.98877,-0.28001,,,0.61240,0.78790,-0.06187,0.01881,
7.77344,2.06466,17.64904,19.08170,0.17307,0.96416,-0.24527,,,0.61234,0.78788,-0.06216,0.02056,
7.78125,2.23694,19.16855,20.23173,0.07014,0.97188,-0.23206,,,0.61227,0.78786,-0.06244,0.02244,
7.78906,1.72010,17.50769,19.88324,0.15181,0.96126,-0.27560,,,0.61222,0.78782,-0.06278,0.02422,
7.79688,1.68564,16.51823,21.41661,0.12813,0.99890,-0.23353,,,0.61217,0.78777,-0.06323,0.02601,
7.80469,1.65119,14.89270,23.50757,0.18805,0.96850,-0.27316,,,0.61210,0.78771,-0.06387,0.02780,
7.81250,0.41077,17.96708,23.85606,0.14069,0.98346,-0.23010,,,0.61211,0.78758,-0.06440,0.02976,
7.82031,-0.14052,16.51823,25.11064,0.10010,0.99166,-0.23842,,,0.61214,0.78743,-0.06506,0.03169,
7.82813,-1.55321,14.78669,26.01672,0.20207,1.00083,-0.27658,,,0.61223,0.78722,-0.06584,0.03357,
7.83594,-2.93145,20.01666,26.36522,0.14359,0.99601,-0.21787,,,0.61241,0.78693,-0.06643,0.03573,
7.84375,-3.31046,16.41222,29.01377,0.21850,0.99842,-0.26826,,,0.61259,0.78662,-0.06731,0.03781,
7.85156,-4.99880,18.46180,30.93048,0.23928,0.98635,-0.26190,,,0.61287,0.78622,-0.06821,0.04006,
7.85938,-5.23999,18.32045,32.74265,0.14408,0.98153,-0.27218,,,0.61314,0.78579,-0.06921,0.04239,
7.86719,-6.10139,18.85052,33.33509,0.22140,1.01531,-0.26631,,,0.61346,0.78532,-0.07023,0.04476,
7.87500,-9.34024,20.37003,36.95942,0.17984,0.99842,-0.22080,,,0.61394,0.78469,-0.07138,0.04736,
7.88281,-9.23687,14.89270,38.84129,0.18805,0.99601,-0.30006,,,0.61438,0.78406,-0.07287,0.04973,
7.89063,-10.58065,14.82203,42.11713,0.16437,0.99697,-0.23940,,,0.61487,0.78336,-0.07453,0.05224,
7.89844,-10.71848,11.00556,43.92929,0.18902,1.00952,-0.24722,,,0.61534,0.78264,-0.07646,0.05461,
7.90625,-11.88998,10.82887,47.65817,0.15858,1.00952,-0.24967,,,0.61585,0.78185,-0.07859,0.05713,
7.91406,-12.51018,6.16431,52.67648,0.18419,1.00276,-0.25750,,,0.61634,0.78101,-0.08119,0.05960,
7.92188,-12.44127,4.32675,53.89621,0.23880,1.01097,-0.27218,,,0.61680,0.78017,-0.08392,0.06203,
7.92969,-13.09593,3.47865,58.53117,0.21608,1.03896,-0.24722,,,0.61727,0.77926,-0.08695,0.06460,
7.93750,-14.16407,5.13952,61.35397,0.16872,1.09156,-0.23891,,,0.61777,0.77827,-0.09005,0.06737,
7.94531,-15.61121,7.36579,62.36460,0.14891,1.06791,-0.21836,,,0.61836,0.77719,-0.09312,0.07029,
7.95313,-16.02468,2.24183,65.95408,0.17549,1.07660,-0.26043,,,0.61890,0.77608,-0.09660,0.07308,
7.96094,-16.30033,-0.47917,68.77688,0.32143,1.07901,-0.31915,,,0.61941,0.77493,-0.10034,0.07585,
7.96875,-16.67935,2.02980,70.44965,0.23106,1.09590,-0.27854,,,0.61993,0.77372,-0.10406,0.07882,
7.97656,-17.02390,3.69067,71.63453,0.24749,1.09880,-0.25946,,,0.62046,0.77247,-0.10777,0.08192,
7.98438,-17.60966,5.21019,73.69064,0.25909,1.12389,-0.20662,,,0.62101,0.77114,-0.11153,0.08518,
7.99219,-18.22986,5.88161,74.45732,0.21270,1.14126,-0.15084,,,0.62157,0.76976,-0.11530,0.08850,
8.00000,-18.64333,4.25607,77.07103,0.30838,1.15622,-0.20759,,,0.62211,0.76833,-0.11927,0.09184,
8.00781,-21.88218,1.88845,80.17262,0.24894,1.23296,-0.16845,1022.036,26.9,0.62276,0.76672,-0.12352,0.09516,
8.01563,-23.81171,-0.62052,82.12418,0.27069,1.22620,-0.22276,,,0.62345,0.76501,-0.12800,0.09841,
8.02344,-26.18917,1.95913,83.79695,0.22381,1.23199,-0.28001,,,0.62426,0.76314,-0.13245,0.10185,
8.03125,-26.84383,2.34784,87.56068,0.18515,1.20545,-0.32795,,,0.62506,0.76117,-0.13709,0.10545,
8.03906,-26.49927,8.67328,87.87433,0.19869,1.24212,-0.29860,,,0.62587,0.75915,-0.14147,0.10939,
8.04688,-25.70679,13.26717,92.82293,0.17887,1.27591,-0.30202,,,0.62663,0.75704,-0.14590,0.11379,
8.05469,-29.42802,16.37688,97.70184,0.10590,1.34057,-0.28734,,,0.62753,0.75466,-0.15046,0.11851,
8.06250,-30.04823,19.09788,100.62919,0.13876,1.36518,-0.28490,,,0.62845,0.75217,-0.15506,0.12348,
8.07031,-33.59719,18.39113,108.92333,0.09913,1.48438,-0.30985,,,0.62943,0.74940,-0.16013,0.12873,
8.07813,-35.00988,19.98132,113.45375,0.16534,1.50851,-0.34703,,,0.63042,0.74646,-0.16537,0.13423,
8.08594,-35.18216,28.00296,123.56006,0.05226,1.59972,-0.43217,,,0.63137,0.74327,-0.17077,0.14056,
8.09375,-34.28630,36.20129,131.29662,0.03873,1.69093,-0.45907,,,0.63224,0.73989,-0.17618,0.14764,
8.10156,-34.04511,41.39592,135.26944,-0.00187,1.69769,-0.48207,,,0.63306,0.73635,-0.18155,0.15514,
8.10938,-30.59952,49.73561,141.47263,0.12281,1.76959,-0.46690,,,0.63368,0.73271,-0.18682,0.16335,
8.11719,-28.53217,57.47455,146.00305,0.08512,1.79903,-0.35437,,,0.63417,0.72894,-0.19193,0.17215,
8.12500,-27.56741,58.46400,147.22277,0.10058,1.77394,-0.34899,,,0.63454,0.72509,-0.19703,0.18105,
8.13281,-28.01533,69.27732,146.56063,0.11460,1.71361,-0.24674,,,0.63501,0.72101,-0.20161,0.19042,
8.14063,-32.28786,67.65178,146.35154,0.09092,1.57897,-0.15671,,,0.63559,0.71668,-0.20628,0.19962,
8.14844,-32.39123,60.08953,146.97883,0.02230,1.54519,-0.14154,,,0.63598,0.71235,-0.21128,0.20845,
8.15625,-34.32076,48.14541,146.03789,0.06434,1.38449,-0.23891,,,0.63623,0.70803,-0.21676,0.21661,
8.16406,-31.94330,38.95763,143.42419,-0.04246,1.25129,-0.29958,,,0.63619,0.70392,-0.22245,0.22423,
8.17188,-30.39279,28.39168,140.91504,-0.17294,1.19097,-0.29958,,,0.63590,0.69999,-0.22843,0.23122,
8.17969,-28.35989,6.55302,131.12237,-0.10625,1.10169,-0.27218,,,0.63526,0.69659,-0.23483,0.23677,
8.18750,-27.25730,13.30251,124.32675,0.03728,0.96174,-0.23401,,,0.63474,0.69318,-0.24059,0.24233,
8.19531,-25.77570,20.12267,121.85244,0.06337,0.90721,-0.18264,,,0.63425,0.68971,-0.24589,0.24812,
8.20313,-17.26510,35.07049,116.86899,0.36009,0.65964,-0.29175,,,0.63365,0.68639,-0.25015,0.25453,
8.21094,6.92294,144.54647,96.93516,0.05226,1.12148,0.48324,,,0.63406,0.68248,-0.24831,0.26557,
8.21875,-22.02001,52.63329,108.85364,0.01408,0.88935,-0.14008,,,0.63399,0.67871,-0.25148,0.27234,
8.22656,-14.09515,16.05884,93.27597,0.25958,0.44441,-0.48256,,,0.63317,0.67619,-0.25536,0.27687,
8.23438,-5.13662,15.06939,79.02259,0.20110,0.61911,-0.53148,,,0.63217,0.67430,-0.25844,0.28088,
8.24219,-7.58299,53.34004,42.57017,-0.02410,0.65096,-0.31523,,,0.63263,0.67219,-0.25824,0.28503,
8.25000,-4.96434,76.02680,13.71490,-0.13283,0.54334,-0.12687,,,0.63392,0.67025,-0.25568,0.28901,
8.25781,-5.17108,76.59221,2.56311,-0.15747,0.47626,-0.06082,,,0.63544,0.66847,-0.25259,0.29252,
8.26563,-9.16796,71.50359,-15.10551,-0.28022,0.40049,0.01649,,,0.63738,0.66690,-0.24898,0.29496,
8.27344,-7.82418,61.85641,-32.21654,-0.33386,0.31894,0.02480,,,0.63942,0.66586,-0.24498,0.29624,
8.28125,-5.99802,55.49564,-41.06828,-0.33966,0.28757,0.01698,,,0.64145,0.66515,-0.24081,0.29686,
8.28906,0.47969,43.97557,-56.54139,-0.35319,0.24462,-0.00406,,,0.64329,0.66521,-0.23631,0.29638,
8.29688,10.60972,30.40592,-70.30689,-0.32710,0.23448,-0.02902,,,0.64471,0.66618,-0.23157,0.29484,
8.30469,15.70919,22.45495,-77.76465,-0.29182,0.26006,-0.03048,,,0.64590,0.66764,-0.22673,0.29269,
8.31250,24.01306,8.60260,-92.74987,-0.24059,0.29432,-0.04956,,,0.64678,0.66994,-0.22164,0.28936,
8.32031,30.18066,-0.86788,-110.55789,-0.20387,0.35465,-0.02999,,,0.64755,0.67294,-0.21603,0.28489,
8.32813,31.86900,-6.16853,-119.16568,-0.17922,0.38843,-0.02755,,,0.64829,0.67620,-0.21020,0.27980,
8.33594,34.00526,-15.60367,-136.72975,-0.10287,0.43234,-0.02657,,,0.64908,0.67993,-0.20393,0.27351,
8.34375,34.65992,-21.54040,-152.34226,-0.03763,0.48495,-0.03244,,,0.64997,0.68394,-0.19716,0.26624,
8.35156,34.97003,-21.25769,-159.97427,-0.02506,0.50425,-0.04125,,,0.65092,0.68799,-0.19000,0.25861,
8.35938,36.45163,-15.49766,-175.62163,-0.03279,0.55589,-0.05103,,,0.65206,0.69210,-0.18179,0.25054,
8.36719,39.62157,-5.77981,-192.03568,-0.07919,0.59739,-0.05641,,,0.65334,0.69628,-0.17229,0.24220,
8.37500,42.41250,-2.95280,-198.97070,-0.11011,0.61814,-0.07305,,,0.65451,0.70049,-0.16226,0.23367,
8.38281,47.75316,0.96967,-212.91044,-0.13234,0.71852,-0.07696,,,0.65556,0.70488,-0.15127,0.22472,
8.39063,48.68347,2.84257,-223.57434,-0.14733,0.82517,-0.07060,,,0.65660,0.70923,-0.13963,0.21534,
8.39844,48.78684,1.28771,-228.00021,-0.14781,0.85171,-0.06522,,,0.65752,0.71348,-0.12782,0.20563,
8.40625,51.47440,-4.96705,-236.32920,-0.08209,0.92410,-0.08430,,,0.65819,0.71782,-0.11580,0.19521,
8.41406,53.50729,-6.83994,-240.47628,-0.05792,0.97525,-0.08577,,,0.65863,0.72211,-0.10361,0.18448,
8.42188,55.67801,-6.73393,-249.08407,0.00635,1.07901,-0.11121,,,0.65887,0.72634,-0.09094,0.17333,
8.42969,56.84951,0.79299,-256.78577,0.03341,1.17118,-0.11219,,,0.65899,0.73036,-0.07750,0.16216,
8.43750,55.60910,3.79669,-260.68890,0.02568,1.22186,-0.10681,,,0.65902,0.73407,-0.06372,0.15090,
8.44531,52.95600,5.91694,-267.13603,0.01505,1.27205,-0.09604,,,0.65903,0.73743,-0.04953,0.13940,
8.45313,55.16118,5.49289,-272.74678,0.03148,1.34299,-0.10094,,,0.65875,0.74064,-0.03504,0.12758,
8.46094,58.67568,6.02296,-274.48924,0.03583,1.39510,-0.09311,,,0.65807,0.74374,-0.02039,0.11568,
8.46875,63.87852,2.91324,-277.41659,0.01795,1.56594,-0.05201,,,0.65690,0.74683,-0.00569,0.10345,
8.47656,65.56685,-5.70914,-277.24234,0.08319,1.66728,-0.04320,,,0.65539,0.74977,0.00863,0.09075,
8.48438,65.22229,-10.02033,-276.71960,0.09382,1.76959,0.00768,,,0.65365,0.75244,0.02273,0.07782,
8.49219,62.84484,-22.35316,-272.25889,0.24073,1.68128,-0.03684,,,0.65179,0.75480,0.03602,0.06443,
8.50000,57.81428,-44.89857,-265.88145,0.29824,1.72375,-0.10828,,,0.64998,0.75678,0.04796,0.05016,
8.50781,58.43449,-46.52410,-262.91926,0.31322,1.72809,-0.04369,,,0.64790,0.75854,0.05965,0.03591,
8.51563,59.77826,-65.64176,-255.11300,0.43983,1.80193,-0.08137,,,0.64559,0.76017,0.07007,0.02100,
8.52344,55.81584,-77.09115,-244.10061,0.53745,1.83426,-0.12931,,,0.64332,0.76145,0.07939,0.00600,
8.53125,52.78372,-83.34591,-239.04745,0.56789,1.85260,-0.13861,,,0.64103,0.76239,0.08815,-0.00909,
8.53906,46.89176,-94.30058,-228.24415,0.64231,1.75608,-0.16454,,,0.63892,0.76289,0.09585,-0.02424,
8.54688,46.68503,-101.65081,-213.22408,0.69547,1.67645,-0.18802,,,0.63672,0.76326,0.10241,-0.03911,
8.55469,46.16819,-105.74997,-205.55722,0.72833,1.65136,-0.19830,,,0.63443,0.76345,0.10838,-0.05384,
8.56250,43.13607,-109.03637,-189.24773,0.81339,1.56980,-0.26239,,,0.63222,0.76343,0.11333,-0.06801,
8.57031,41.62001,-101.22675,-173.53067,0.92405,1.57607,-0.27707,,,0.62997,0.76334,0.11779,-0.08106,
8.57813,38.96691,-93.55849,-165.86381,0.96223,1.57414,-0.28098,,,0.62773,0.76310,0.12217,-0.09335,
8.58594,31.90345,-74.08745,-149.79826,1.02602,1.48535,-0.26141,,,0.62569,0.76269,0.12658,-0.10387,
8.59375,30.42185,-63.30948,-141.26017,1.02554,1.43033,-0.24233,,,0.62362,0.76228,0.13099,-0.11343,
8.60156,27.63092,-50.34057,-123.06881,1.03472,1.36760,-0.20564,,,0.62165,0.76194,0.13502,-0.12152,
8.60938,24.56435,-35.28673,-105.01684,0.96078,1.32079,-0.10730,,,0.61982,0.76170,0.13877,-0.12801,
8.61719,22.39363,-32.28304,-95.36357,0.94628,1.27446,-0.09800,,,0.61811,0.76144,0.14215,-0.13392,
8.62500,17.53535,-32.53040,-75.08125,0.79212,1.22186,0.03116,,,0.61682,0.76115,0.14451,-0.13893,
8.63281,12.74598,-45.56999,-54.10194,0.92212,1.18035,-0.00308,,,0.61609,0.76071,0.14527,-0.14369,
8.64063,8.47345,-44.86323,-44.51837,0.94966,1.17022,0.00425,,,0.61566,0.76018,0.14560,-0.14796,
8.64844,3.37398,-42.70764,-25.42092,0.94387,1.09638,-0.04369,,,0.61565,0.75963,0.14509,-0.15127,
8.65625,1.47891,-37.19497,-8.93718,0.90762,1.07177,-0.05250,,,0.61585,0.75922,0.14397,-0.15358,
8.66406,0.44523,-39.17387,1.16914,0.87911,1.05826,-0.05886,,,0.61622,0.75884,0.14225,-0.15555,
8.67188,-1.38093,-46.20606,20.89387,0.86703,0.99649,-0.09555,,,0.61696,0.75849,0.13923,-0.15704,
8.67969,-3.72393,-54.89912,39.78222,0.81532,0.98201,-0.11219,,,0.61810,0.75812,0.13490,-0.15816,
8.68750,-4.61979,-59.49301,48.28546,0.80710,0.96416,-0.13225,,,0.61940,0.75771,0.12994,-0.15915,
8.69531,-4.44751,-66.38385,62.78279,0.78826,0.96174,-0.17579,,,0.62089,0.75735,0.12393,-0.15988,
8.70313,-4.99880,-67.97404,75.43311,0.76844,0.94919,-0.20808,,,0.62253,0.75702,0.11721,-0.16015,
8.71094,-5.82574,-68.39809,80.97415,0.74525,0.94389,-0.22765,,,0.62425,0.75665,0.11018,-0.16018,
8.71875,-6.61823,-70.12964,90.48803,0.72398,0.89563,-0.27511,,,0.62608,0.75626,0.10259,-0.15989,
8.72656,-3.34492,-66.41919,97.10940,0.46013,0.92362,-0.50506,,,0.62776,0.75605,0.09478,-0.15914,
8.73438,2.23694,-60.44713,94.66995,0.27842,0.93423,-0.64059,,,0.62904,0.75608,0.08728,-0.15821,
8.74219,0.06621,-40.09265,81.94994,-0.28699,0.99456,-0.51045,,,0.63015,0.75613,0.08134,-0.15675,
8.75000,-4.96434,-42.60162,80.20747,-0.57549,0.86764,-0.83091,,,0.63148,0.75589,0.07543,-0.15547,
8.75781,-20.50395,33.33894,47.55362,-1.87593,1.05633,-0.24625,,,0.63286,0.75560,0.07464,-0.15161,
8.76563,-13.47495,23.47975,26.40007,-1.14960,0.79284,0.23323,,,0.63370,0.75539,0.07443,-0.14920,
8.77344,7.78433,-1.07991,36.71548,-0.59337,0.98056,0.32276,,,0.63368,0.75590,0.07242,-0.14771,
8.78125,20.05063,-26.55834,64.66466,0.07304,1.57318,0.53510,,,0.63342,0.75681,0.06773,-0.14638,
8.78906,5.30351,-86.27894,88.18797,0.42968,1.46894,0.05758,,,0.63441,0.75656,0.05940,-0.14704,
8.79688,7.47423,-102.60492,87.21219,0.43451,1.60841,-0.09507,,,0.63529,0.75617,0.05038,-0.14858,
8.80469,30.52522,-112.60547,87.87433,0.34753,1.44722,-0.45174,,,0.63497,0.75661,0.04066,-0.15067,
8.81250,27.42419,-58.15018,84.18029,0.37797,1.66777,-0.27316,,,0.63456,0.75742,0.03351,-0.15009,
8.82031,13.74520,-24.75612,84.07575,0.39730,1.60551,-0.16894,,,0.63476,0.75794,0.02795,-0.14776,
8.82813,5.64807,16.80093,88.67586,0.18709,1.18180,-0.14546,,,0.63532,0.75851,0.02404,-0.14305,
8.83594,19.25814,8.67328,89.40770,-0.04584,0.96367,-0.31083,,,0.63517,0.75956,0.01960,-0.13876,
8.84375,24.70217,-3.76557,89.12890,-0.08499,0.95402,-0.36318,,,0.63472,0.76069,0.01458,-0.13513,
8.85156,23.18611,-18.67805,82.08933,-0.03231,0.99649,-0.32012,,,0.63428,0.76160,0.00930,-0.13256,
8.85938,13.98639,-13.76612,74.94522,0.15713,0.92410,-0.27169,,,0.63423,0.76211,0.00469,-0.13004,
8.86719,15.43354,-12.24660,73.79519,0.19192,0.91348,-0.29175,,,0.63408,0.76269,0.00019,-0.12749,
8.87500,15.88147,-4.75502,72.71486,0.15326,1.01579,-0.30496,,,0.63388,0.76332,-0.00394,-0.12459,
8.88281,1.96129,10.15746,68.39354,0.05129,1.05681,-0.20172,,,0.63435,0.76347,-0.00708,-0.12110,
8.89063,-2.55243,15.24608,64.87375,0.08995,1.00469,-0.15524,,,0.63502,0.76345,-0.00978,-0.11750,
8.89844,-2.03559,31.28936,58.32207,0.16679,1.03172,-0.14937,,,0.63561,0.76356,-0.01144,-0.11334,
8.90625,-4.75761,50.93709,55.39473,0.10107,1.07081,-0.12393,,,0.63632,0.76370,-0.01208,-0.10829,
8.91406,-5.30890,54.75355,53.96590,0.01022,1.01820,-0.11953,,,0.63703,0.76381,-0.01248,-0.10310,
8.92188,1.51336,49.73561,46.92634,-0.08450,0.95788,-0.10534,,,0.63731,0.76418,-0.01277,-0.09847,
8.92969,6.64729,40.83052,44.69598,-0.04391,0.97960,-0.11023,,,0.63730,0.76470,-0.01337,-0.09439,
8.93750,10.02397,27.61425,43.44140,-0.04053,1.02689,-0.13078,,,0.63708,0.76527,-0.01450,-0.09106,
8.94531,11.43666,18.88585,40.02616,0.00635,1.02979,-0.17090,,,0.63674,0.76584,-0.01584,-0.08832,
8.95313,10.54080,20.93544,37.02912,0.11991,0.95933,-0.19292,,,0.63644,0.76638,-0.01693,-0.08561,
8.96094,12.16023,18.24978,36.19274,-0.08209,0.96850,-0.17139,,,0.63603,0.76697,-0.01810,-0.08307,
8.96875,15.02007,6.30566,34.83361,-0.03811,0.98587,-0.18998,,,0.63545,0.76761,-0.01973,-0.08121,
8.97656,15.05452,7.33045,32.35931,0.05274,0.97912,-0.20515,,,0.63485,0.76825,-0.02119,-0.07940,
8.98438,15.12344,9.83942,30.75624,0.08174,1.00083,-0.23010,,,0.63423,0.76892,-0.02246,-0.07753,
8.99219,15.53691,17.54302,27.23645,0.05806,0.98925,-0.22178,,,0.63359,0.76964,-0.02321,-0.07541,
9.00000,15.36463,18.46180,25.91218,0.04404,0.98780,-0.23548,,,0.63294,0.77035,-0.02386,-0.07330,
9.00781,14.50323,20.47605,24.30911,0.01312,0.96319,-0.25163,1022.022,26.9,0.63233,0.77104,-0.02432,-0.07115,
9.01563,14.12422,20.22868,21.38176,0.18177,0.95595,-0.24038,,,0.63173,0.77171,-0.02464,-0.06914,
9.02344,13.98639,25.88270,20.99842,0.11750,0.98491,-0.19634,,,0.63113,0.77240,-0.02470,-0.06684,
9.03125,12.43588,29.62849,17.37408,0.07642,0.97718,-0.23353,,,0.63060,0.77303,-0.02440,-0.06451,
9.03906,12.53925,29.98187,14.89978,0.01022,0.96946,-0.20955,,,0.63006,0.77368,-0.02395,-0.06227,
9.04688,13.88302,26.16541,14.72553,0.03631,0.98249,-0.21591,,,0.62943,0.77436,-0.02366,-0.06024,
9.05469,14.15867,26.20074,12.84367,0.03631,0.96126,-0.19292,,,0.62877,0.77505,-0.02327,-0.05828,
9.06250,15.26126,24.89325,12.80882,0.04018,0.99263,-0.15769,,,0.62806,0.77578,-0.02295,-0.05639,
9.07031,15.05452,24.15116,12.39063,0.04549,0.97912,-0.18411,,,0.62734,0.77650,-0.02263,-0.05456,
9.07813,15.74364,22.41962,11.06635,-0.00235,0.94244,-0.21053,,,0.62659,0.77724,-0.02231,-0.05287,
9.08594,16.77732,19.76929,10.99665,0.01167,0.95354,-0.22814,,,0.62577,0.77801,-0.02211,-0.05133,
9.09375,16.50167,19.27457,10.40421,0.09672,0.94678,-0.22961,,,0.62495,0.77876,-0.02190,-0.04984,
9.10156,15.53691,20.68807,11.20575,0.07449,0.96512,-0.23695,,,0.62420,0.77948,-0.02166,-0.04824,
9.10938,14.70997,22.80833,10.71786,0.04984,0.94003,-0.24918,,,0.62348,0.78016,-0.02131,-0.04655,
9.11719,13.74520,24.32785,9.35873,-0.00428,0.93906,-0.24820,,,0.62282,0.78081,-0.02082,-0.04483,
9.12500,13.53847,21.11212,8.62690,0.02278,0.96174,-0.26777,,,0.62215,0.78143,-0.02042,-0.04332,
9.13281,12.26360,22.52563,7.89506,0.03873,0.95933,-0.25065,,,0.62155,0.78201,-0.01993,-0.04177,
9.14063,10.95427,21.78354,8.34810,0.06917,0.97525,-0.24086,,,0.62102,0.78252,-0.01948,-0.04024,
9.14844,9.71386,23.90380,8.27840,0.03390,0.98056,-0.25603,,,0.62055,0.78298,-0.01894,-0.03860,
9.15625,9.02474,26.05939,7.92991,-0.00477,0.98008,-0.24380,,,0.62013,0.78342,-0.01828,-0.03686,
9.16406,8.54236,22.06624,8.27840,-0.01588,0.97429,-0.22863,,,0.61972,0.78383,-0.01781,-0.03532,
9.17188,9.19702,15.10473,9.35873,0.14939,1.00035,-0.22717,,,0.61926,0.78424,-0.01770,-0.03411,
9.17969,8.68019,14.92804,10.12542,0.10542,1.01338,-0.22863,,,0.61884,0.78463,-0.01763,-0.03287,
9.18750,7.50869,18.10843,9.81178,0.04501,0.96078,-0.22472,,,0.61848,0.78497,-0.01741,-0.03148,
9.19531,7.85324,19.91065,8.59205,0.04888,0.95981,-0.24086,,,0.61810,0.78534,-0.01705,-0.03004,
9.20313,8.33563,16.76560,8.45265,0.09140,0.98587,-0.26337,,,0.61769,0.78571,-0.01681,-0.02878,
9.21094,6.92294,20.58206,6.64048,0.06386,0.95981,-0.20906,,,0.61736,0.78604,-0.01631,-0.02739,
9.21875,7.64651,17.68437,6.22229,0.08560,0.99552,-0.21444,,,0.61698,0.78638,-0.01592,-0.02617,
9.22656,7.37086,19.41592,5.66470,0.07449,0.96609,-0.23646,,,0.61662,0.78672,-0.01542,-0.02488,
9.23438,8.26672,20.37003,3.64344,0.05951,0.97284,-0.23989,,,0.61620,0.78710,-0.01477,-0.02362,
9.24219,8.71464,21.28881,2.14492,0.10832,0.98732,-0.23401,,,0.61576,0.78749,-0.01401,-0.02238,
9.25000,9.16257,22.87901,1.41308,0.17066,0.99021,-0.23744,,,0.61529,0.78791,-0.01314,-0.02108,
9.25781,9.67941,27.64959,1.16914,0.15326,1.02255,-0.22178,,,0.61479,0.78835,-0.01205,-0.01954,
9.26563,9.16257,31.85476,0.92519,0.13441,0.99263,-0.23010,,,0.61433,0.78878,-0.01078,-0.01778,
9.27344,9.33485,37.12007,1.13429,0.04888,0.97622,-0.25456,,,0.61385,0.78921,-0.00930,-0.01573,
9.28125,9.36930,36.59001,4.23588,0.04259,0.97670,-0.27169,,,0.61337,0.78964,-0.00801,-0.01358,
9.28906,8.05998,39.80573,5.24651,-0.00670,0.95643,-0.25212,,,0.61296,0.79000,-0.00663,-0.01121,
9.29688,8.16335,35.67123,11.69364,-0.03666,0.94582,-0.26728,,,0.61255,0.79036,-0.00578,-0.00880,
9.30469,6.57838,29.55782,19.95294,-0.11640,0.96174,-0.28734,,,0.61221,0.79065,-0.00562,-0.00637,
9.31250,5.64807,26.69547,23.61212,-0.15651,0.97188,-0.26875,,,0.61193,0.79088,-0.00578,-0.00394,
9.32031,4.51102,14.07994,33.43964,-0.14394,0.98346,-0.31132,,,0.61170,0.79106,-0.00700,-0.00179,
9.32813,2.13357,4.46810,42.77926,-0.00477,0.99456,-0.30887,,,0.61159,0.79113,-0.00912,0.00024,
9.33594,1.23771,-1.07991,47.93697,0.01215,1.01772,-0.29909,,,0.61151,0.79114,-0.01175,0.00218,
9.34375,-1.86332,-0.23180,53.82651,-0.02989,1.02834,-0.32991,,,0.61160,0.79102,-0.01466,0.00441,
9.35156,-4.37859,-2.59943,58.18268,0.03051,1.03799,-0.34116,,,0.61181,0.79077,-0.01791,0.00669,
9.35938,-5.72237,-3.05881,60.44788,0.08754,1.02496,-0.35535,,,0.61208,0.79045,-0.02130,0.00904,
9.36719,-7.82418,1.85312,63.27068,0.10687,1.03027,-0.29615,,,0.61246,0.79003,-0.02463,0.01177,
9.37500,-9.71926,1.46440,67.80110,0.10107,1.04861,-0.28049,,,0.61293,0.78950,-0.02823,0.01466,
9.38281,-11.30423,3.40797,68.98598,0.09382,1.04909,-0.27952,,,0.61347,0.78888,-0.03182,0.01771,
9.39063,-13.33713,5.21019,72.29666,0.05612,1.03075,-0.29958,,,0.61410,0.78815,-0.03550,0.02098,
9.39844,-14.61199,5.17485,74.28308,0.09285,1.07515,-0.26680,,,0.61478,0.78734,-0.03930,0.02433,
9.40625,-16.23142,4.99816,76.30434,0.14214,1.05392,-0.28245,,,0.61553,0.78644,-0.04321,0.02776,
9.41406,-18.09204,3.69067,81.60144,0.12281,1.03654,-0.29860,,,0.61635,0.78542,-0.04746,0.03133,
9.42188,-21.74436,5.35154,83.06511,0.11412,1.05150,-0.29273,,,0.61734,0.78421,-0.05173,0.03503,
9.42969,-23.19151,2.73656,86.37580,0.06917,1.03992,-0.27316,,,0.61837,0.78291,-0.05629,0.03873,
9.43750,-26.87829,-6.76927,92.12595,0.13055,1.02448,-0.25750,,,0.61953,0.78142,-0.06156,0.04215,
9.44531,-28.98010,-11.68120,93.86841,0.13248,1.11713,-0.22668,,,0.62074,0.77982,-0.06714,0.04537,
9.45313,-29.49694,-12.42329,92.40474,0.20448,1.12196,-0.39596,,,0.62195,0.77817,-0.07266,0.04848,
9.46094,-28.49771,-9.77296,96.30787,0.15616,1.14850,-0.33676,,,0.62308,0.77650,-0.07828,0.05190,
9.46875,-30.32388,-5.92116,95.88968,0.06917,1.13837,-0.25946,,,0.62430,0.77470,-0.08371,0.05550,
9.47656,-28.25652,-9.56094,98.12003,0.19724,1.19097,-0.27805,,,0.62535,0.77296,-0.08941,0.05901,
9.48438,-28.73891,-4.54300,101.57012,0.27359,1.28894,-0.18656,,,0.62641,0.77111,-0.09507,0.06292,
9.49219,-29.32466,-6.20386,105.26415,0.24363,1.29811,-0.28098,,,0.62744,0.76918,-0.10099,0.06690,
9.50000,-30.59952,5.38688,106.55358,0.10107,1.30679,-0.20221,,,0.62858,0.76709,-0.10648,0.07153,
9.50781,-29.11792,3.19595,112.26887,0.13103,1.30872,-0.22765,,,0.62956,0.76499,-0.11235,0.07629,
9.51563,-27.60186,8.53193,112.72191,0.16727,1.34588,-0.23206,,,0.63046,0.76287,-0.11800,0.08136,
9.52344,-27.32621,12.87846,117.46143,0.13393,1.33816,-0.17335,,,0.63131,0.76066,-0.12370,0.08685,
9.53125,-23.74280,16.94228,122.89792,0.14698,1.39173,-0.17677,,,0.63193,0.75847,-0.12948,0.09281,
9.53906,-24.39746,17.40167,125.99952,0.07835,1.45109,-0.15622,,,0.63253,0.75617,-0.13539,0.09892,
9.54688,-26.80938,15.38743,131.81936,0.00973,1.49162,-0.14693,,,0.63314,0.75366,-0.14170,0.10514,
9.55469,-25.77570,13.37318,137.74375,0.01698,1.50996,-0.23255,,,0.63358,0.75109,-0.14837,0.11152,
9.56250,-25.12104,14.39797,139.34682,0.08802,1.55774,-0.20759,,,0.63392,0.74845,-0.15507,0.11801,
9.57031,-24.98321,16.34154,144.81817,0.21657,1.70251,-0.25261,,,0.63417,0.74567,-0.16194,0.12483,
9.57813,-32.46014,44.15226,147.67581,0.07594,1.86997,-0.31523,,,0.63502,0.74221,-0.16780,0.13309,
9.58594,-35.31998,56.83847,146.28184,0.02085,1.87480,-0.37884,,,0.63609,0.73845,-0.17305,0.14188,
9.59375,-35.73345,77.61700,148.16371,-0.05261,1.67597,-0.46397,,,0.63733,0.73436,-0.17747,0.15177,
9.60156,-32.32232,85.39128,148.65160,-0.07629,1.62385,-0.40134,,,0.63840,0.73022,-0.18152,0.16210,
9.60938,-28.53217,73.37648,155.48207,-0.00622,1.56305,-0.39547,,,0.63896,0.72620,-0.18636,0.17215,
9.61719,-24.63866,69.59535,159.17610,-0.01878,1.55725,-0.28637,,,0.63915,0.72224,-0.19148,0.18219,
9.62500,-24.63866,70.05474,160.53523,-0.03618,1.53988,-0.29175,,,0.63924,0.71815,-0.19662,0.19230,
9.63281,-27.46404,71.46825,162.10345,-0.20242,1.51382,-0.15475,,,0.63937,0.71379,-0.20178,0.20247,
9.64063,-27.73969,44.29361,162.80043,-0.13718,1.31403,-0.27805,,,0.63904,0.70968,-0.20814,0.21132,
9.64844,-22.81249,36.73136,158.96700,-0.07194,1.35650,-0.23108,,,0.63834,0.70586,-0.21454,0.21968,
9.65625,-17.91976,15.06939,152.10168,0.13296,1.29087,-0.30691,,,0.63711,0.70260,-0.22145,0.22674,
9.66406,-15.26665,10.26347,141.64688,0.12958,1.09976,-0.40281,,,0.63577,0.69961,-0.22801,0.23314,
9.67188,-10.58065,15.84682,134.50276,0.11073,1.05826,-0.34361,,,0.63436,0.69678,-0.23390,0.23954,
9.67969,-10.61511,26.30676,124.46615,0.17936,0.95643,-0.28881,,,0.63323,0.69388,-0.23883,0.24599,
9.68750,-16.36924,47.22663,118.01902,0.17211,0.91734,-0.16748,,,0.63277,0.69044,-0.24264,0.25304,
9.69531,-21.77882,53.97612,114.25529,0.14118,0.83386,-0.09898,,,0.63269,0.68665,-0.24605,0.26014,
9.70313,-27.25730,58.53468,103.97473,0.13538,0.66399,-0.00211,,,0.63308,0.68267,-0.24887,0.26689,
9.71094,-20.15939,37.43811,90.83652,0.32433,0.42704,-0.20417,,,0.63299,0.67957,-0.25184,0.27221,
9.71875,-10.78739,21.50084,81.94994,0.37459,0.36189,-0.41211,,,0.63232,0.67728,-0.25490,0.27655,
9.72656,6.54392,25.98872,49.15669,0.07497,0.48591,-0.47033,,,0.63154,0.67622,-0.25593,0.27998,
9.73438,1.78901,63.02256,12.98307,-0.03811,0.51680,-0.24674,,,0.63230,0.67486,-0.25377,0.28347,
9.74219,-1.10529,73.62384,0.12366,-0.11350,0.46950,-0.20075,,,0.63362,0.67338,-0.25062,0.28683,
9.75000,-6.06693,87.97092,-21.93599,-0.25799,0.41159,-0.06326,,,0.63581,0.67177,-0.24592,0.28981,
9.75781,-9.37470,95.14446,-40.16220,-0.34159,0.34644,0.01159,,,0.63862,0.67014,-0.24014,0.29226,
9.76563,-8.13429,91.25732,-47.75936,-0.38944,0.31073,0.01649,,,0.64142,0.66874,-0.23413,0.29420,
