Gait Up - Physilog data export
Created on: YYYY-MM-DD hh:mm:ss
Total data points: 19655

Time [128 hz],Gyro [128 hz],,,Accel [128 hz],,,Baro [1 hz],,Event [128 hz],Quaternion [128 hz],,,,
Time,Gyro X,Gyro Y,Gyro Z,Accel X,Accel Y,Accel Z,Pressure,Temperature,Quat W,Quat X,Quat Y,Quat Z,
[s],[deg/s],[deg/s],[deg/s],[g],[g],[g],[mBar],[degree C],[],[],[],[],
0.00781,0.47565,-0.87466,0.18836,0.16462,0.51863,0.82981,1021.869,25.2,0.95765,0.27293,-0.09169,0.00000,
0.01563,0.33854,-0.69464,0.18836,0.17432,0.51570,0.81192,,,0.95764,0.27295,-0.09174,0.00000,
0.02344,0.40710,-0.83866,0.08283,0.17674,0.51961,0.82014,,,0.95763,0.27298,-0.09180,-0.00001,
0.03125,0.50993,-0.83866,0.15319,0.17819,0.51228,0.82498,,,0.95762,0.27301,-0.09185,-0.00001,
0.03906,0.44138,-0.65863,0.04765,0.17189,0.51082,0.81918,,,0.95760,0.27304,-0.09190,-0.00001,
0.04688,0.47565,-0.62263,0.04765,0.16704,0.51863,0.82498,,,0.95759,0.27307,-0.09194,-0.00002,
0.05469,0.47565,-0.55062,0.22354,0.16947,0.51619,0.81627,,,0.95758,0.27310,-0.09198,-0.00001,
0.06250,0.57849,-0.76665,0.08283,0.16898,0.51131,0.82208,,,0.95756,0.27314,-0.09203,-0.00002,
0.07031,0.57849,-0.73064,0.11801,0.17577,0.51815,0.81869,,,0.95755,0.27317,-0.09208,-0.00002,
0.07813,0.37282,-0.69464,0.18836,0.16995,0.51717,0.82353,,,0.95754,0.27320,-0.09213,-0.00002,
0.08594,0.47565,-0.55062,0.08283,0.17335,0.52059,0.82788,,,0.95752,0.27323,-0.09217,-0.00002,
0.09375,0.30427,-0.62263,0.22354,0.16898,0.51326,0.82256,,,0.95751,0.27325,-0.09221,-0.00002,
0.10156,0.54421,-0.58662,0.15319,0.17868,0.51277,0.82401,,,0.95750,0.27328,-0.09225,-0.00001,
0.10938,0.47565,-0.73064,0.22354,0.16753,0.52401,0.82498,,,0.95749,0.27331,-0.09230,-0.00001,
0.11719,0.40710,-0.62263,0.22354,0.17238,0.52352,0.82498,,,0.95748,0.27334,-0.09235,-0.00000,
0.12500,0.30427,-0.69464,0.29390,0.16801,0.51570,0.82594,,,0.95747,0.27335,-0.09240,0.00000,
0.13281,0.40710,-0.87466,0.29390,0.17965,0.51717,0.82063,,,0.95745,0.27338,-0.09246,0.00001,
0.14063,0.23571,-0.76665,0.39944,0.17722,0.52205,0.82208,,,0.95744,0.27339,-0.09252,0.00002,
0.14844,0.30427,-0.91066,0.25872,0.17238,0.51668,0.81918,,,0.95743,0.27341,-0.09258,0.00002,
0.15625,0.23571,-0.73064,0.36426,0.17432,0.51668,0.81966,,,0.95742,0.27342,-0.09264,0.00004,
0.16406,0.44138,-0.87466,0.29390,0.16995,0.51570,0.82111,,,0.95741,0.27345,-0.09270,0.00004,
0.17188,0.23571,-0.69464,0.25872,0.17480,0.51180,0.81579,,,0.95740,0.27346,-0.09275,0.00005,
0.17969,0.30427,-0.76665,0.25872,0.17092,0.51766,0.83078,,,0.95739,0.27348,-0.09281,0.00005,
0.18750,0.30427,-0.83866,0.29390,0.17626,0.51424,0.81869,,,0.95738,0.27350,-0.09287,0.00006,
0.19531,0.26999,-0.65863,0.32908,0.16753,0.51082,0.82208,,,0.95737,0.27351,-0.09292,0.00007,
0.20313,0.30427,-0.76665,0.22354,0.17189,0.52303,0.82159,,,0.95736,0.27353,-0.09297,0.00007,
0.21094,0.44138,-0.87466,0.18836,0.16995,0.51570,0.82885,,,0.95735,0.27356,-0.09303,0.00007,
0.21875,0.44138,-0.76665,0.22354,0.17626,0.51766,0.81772,,,0.95733,0.27359,-0.09308,0.00007,
0.22656,0.37282,-0.62263,0.18836,0.17577,0.51473,0.81724,,,0.95732,0.27361,-0.09313,0.00008,
0.23438,0.44138,-0.65863,0.15319,0.17238,0.51863,0.82256,,,0.95731,0.27364,-0.09317,0.00008,
0.24219,0.33854,-0.80265,0.18836,0.17480,0.52205,0.82546,,,0.95730,0.27366,-0.09323,0.00008,
0.25000,0.50993,-0.98267,0.25872,0.17383,0.52108,0.83030,,,0.95728,0.27369,-0.09330,0.00008,
0.25781,0.26999,-0.91066,0.15319,0.18353,0.51375,0.81289,,,0.95727,0.27371,-0.09336,0.00007,
0.26563,0.47565,-0.80265,0.15319,0.17189,0.51619,0.82546,,,0.95726,0.27374,-0.09342,0.00007,
0.27344,0.40710,-0.83866,0.39944,0.17189,0.50838,0.81144,,,0.95724,0.27376,-0.09348,0.00008,
0.28125,0.50993,-0.76665,0.29390,0.17577,0.51912,0.82111,,,0.95723,0.27379,-0.09353,0.00009,
0.28906,0.37282,-0.76665,0.25872,0.17722,0.51277,0.81821,,,0.95722,0.27382,-0.09359,0.00010,
0.29688,0.44138,-0.65863,0.22354,0.16656,0.51424,0.82208,,,0.95721,0.27384,-0.09364,0.00010,
0.30469,0.47565,-0.58662,0.04765,0.16947,0.51961,0.82449,,,0.95719,0.27387,-0.09368,0.00010,
0.31250,0.50993,-0.76665,-0.05789,0.17480,0.51082,0.82304,,,0.95718,0.27391,-0.09372,0.00008,
0.32031,0.50993,-0.51461,0.22354,0.16704,0.52254,0.82643,,,0.95717,0.27394,-0.09376,0.00009,
0.32813,0.26999,-1.23471,0.43462,0.17577,0.51521,0.82063,,,0.95715,0.27395,-0.09385,0.00010,
0.33594,0.30427,-1.16270,0.32908,0.17868,0.51424,0.81918,,,0.95714,0.27397,-0.09393,0.00010,
0.34375,0.54421,-0.58662,0.29390,0.17383,0.51912,0.82594,,,0.95713,0.27401,-0.09398,0.00011,
0.35156,0.44138,-0.62263,0.18836,0.17092,0.51815,0.82691,,,0.95711,0.27403,-0.09402,0.00011,
0.35938,0.23571,-0.62263,0.29390,0.17335,0.51863,0.82643,,,0.95710,0.27405,-0.09407,0.00012,
0.36719,0.40710,-0.91066,0.29390,0.17480,0.51717,0.82691,,,0.95709,0.27407,-0.09413,0.00013,
0.37500,0.44138,-0.80265,0.32908,0.17965,0.51766,0.82401,,,0.95708,0.27410,-0.09419,0.00014,
0.38281,0.40710,-0.91066,0.39944,0.16607,0.51277,0.82546,,,0.95706,0.27412,-0.09426,0.00015,
0.39063,0.37282,-0.76665,0.29390,0.16898,0.51228,0.82111,,,0.95705,0.27415,-0.09431,0.00016,
0.39844,0.44138,-0.73064,0.11801,0.17335,0.51961,0.82498,,,0.95704,0.27417,-0.09436,0.00015,
0.40625,0.47565,-0.58662,0.25872,0.17432,0.50935,0.81772,,,0.95703,0.27420,-0.09441,0.00016,
0.41406,0.40710,-0.76665,0.15319,0.17771,0.51375,0.82691,,,0.95701,0.27423,-0.09446,0.00016,
0.42188,0.47565,-0.65863,0.04765,0.17480,0.51717,0.81724,,,0.95700,0.27426,-0.09450,0.00015,
0.42969,0.61277,-0.58662,0.11801,0.17965,0.52498,0.82691,,,0.95699,0.27430,-0.09454,0.00015,
0.43750,0.47565,-0.40660,0.01247,0.17238,0.51277,0.82208,,,0.95697,0.27433,-0.09457,0.00015,
0.44531,0.54421,-0.51461,0.11801,0.17189,0.51912,0.82740,,,0.95696,0.27436,-0.09461,0.00015,
0.45313,0.47565,-0.55062,0.04765,0.17141,0.51766,0.82401,,,0.95695,0.27439,-0.09464,0.00015,
0.46094,0.54421,-0.47861,0.08283,0.18304,0.51961,0.82304,,,0.95694,0.27443,-0.09468,0.00015,
0.46875,0.33854,-0.65863,0.11801,0.17238,0.52498,0.82788,,,0.95692,0.27445,-0.09472,0.00015,
0.47656,0.30427,-0.69464,0.25872,0.17286,0.51473,0.82885,,,0.95691,0.27447,-0.09477,0.00015,
0.48438,0.33854,-0.76665,0.29390,0.16510,0.51717,0.83175,,,0.95690,0.27449,-0.09483,0.00016,
0.49219,0.33854,-0.69464,0.25872,0.17916,0.51619,0.81289,,,0.95689,0.27451,-0.09488,0.00016,
0.50000,0.44138,-0.83866,0.22354,0.17335,0.51863,0.82063,,,0.95688,0.27454,-0.09493,0.00017,
0.50781,0.57849,-0.80265,0.25872,0.17141,0.51961,0.82449,,,0.95686,0.27457,-0.09499,0.00017,
0.51563,0.50993,-0.62263,0.18836,0.17868,0.51863,0.82643,,,0.95685,0.27460,-0.09504,0.00018,
0.52344,0.37282,-0.47861,0.22354,0.18207,0.51766,0.82691,,,0.95684,0.27463,-0.09507,0.00018,
0.53125,0.33854,-0.73064,0.11801,0.17529,0.51180,0.82643,,,0.95683,0.27465,-0.09512,0.00018,
0.53906,0.44138,-0.69464,0.15319,0.17674,0.51863,0.82014,,,0.95682,0.27468,-0.09517,0.00018,
0.54688,0.47565,-0.55062,0.04765,0.17819,0.51717,0.82208,,,0.95680,0.27471,-0.09521,0.00018,
0.55469,0.47565,-0.58662,0.01247,0.17432,0.51766,0.82304,,,0.95679,0.27474,-0.09525,0.00017,
0.56250,0.33854,-0.47861,-0.05789,0.17529,0.51473,0.82159,,,0.95678,0.27476,-0.09528,0.00016,
0.57031,0.30427,-0.58662,0.01247,0.16510,0.51082,0.82353,,,0.95677,0.27478,-0.09531,0.00015,
0.57813,0.44138,-0.51461,0.11801,0.17819,0.52254,0.82594,,,0.95676,0.27481,-0.09535,0.00015,
0.58594,0.33854,-0.58662,0.11801,0.16995,0.51912,0.82740,,,0.95675,0.27483,-0.09539,0.00015,
0.59375,0.33854,-0.76665,0.29390,0.17189,0.51961,0.82498,,,0.95674,0.27485,-0.09545,0.00016,
0.60156,0.40710,-0.76665,0.18836,0.17480,0.51570,0.82449,,,0.95673,0.27488,-0.09550,0.00016,
0.60938,0.30427,-0.80265,0.22354,0.17771,0.52010,0.82208,,,0.95671,0.27489,-0.09556,0.00016,
0.61719,0.37282,-0.73064,0.15319,0.16801,0.51424,0.82256,,,0.95670,0.27492,-0.09561,0.00016,
0.62500,0.33854,-0.76665,0.08283,0.16898,0.51570,0.81821,,,0.95669,0.27494,-0.09566,0.00015,
0.63281,0.37282,-0.73064,0.15319,0.17189,0.51668,0.82498,,,0.95668,0.27496,-0.09571,0.00015,
0.64063,0.30427,-0.69464,0.15319,0.17383,0.51912,0.82401,,,0.95667,0.27498,-0.09576,0.00015,
0.64844,0.44138,-0.73064,0.04765,0.17674,0.51570,0.81676,,,0.95666,0.27501,-0.09580,0.00014,
0.65625,0.20143,-0.73064,0.11801,0.17189,0.51131,0.81966,,,0.95665,0.27502,-0.09585,0.00014,
0.66406,0.40710,-0.69464,0.08283,0.17626,0.51863,0.81966,,,0.95664,0.27505,-0.09590,0.00013,
0.67188,0.37282,-0.76665,0.15319,0.16850,0.51717,0.82449,,,0.95662,0.27507,-0.09595,0.00013,
0.67969,0.37282,-0.80265,0.04765,0.17383,0.52010,0.83030,,,0.95661,0.27510,-0.09601,0.00012,
0.68750,0.47565,-0.80265,0.08283,0.17286,0.51815,0.82836,,,0.95660,0.27513,-0.09606,0.00011,
0.69531,0.47565,-0.73064,0.15319,0.17529,0.51570,0.82063,,,0.95658,0.27516,-0.09611,0.00011,
0.70313,0.54421,-0.69464,0.18836,0.18013,0.52108,0.82401,,,0.95657,0.27519,-0.09616,0.00012,
0.71094,0.47565,-0.69464,0.08283,0.17286,0.51570,0.81918,,,0.95656,0.27522,-0.09621,0.00011,
0.71875,0.47565,-0.69464,0.04765,0.16753,0.51912,0.82933,,,0.95654,0.27525,-0.09625,0.00010,
0.72656,0.40710,-0.65863,0.08283,0.17044,0.51717,0.82546,,,0.95653,0.27528,-0.09630,0.00010,
0.73438,0.54421,-0.69464,0.15319,0.17577,0.51766,0.82594,,,0.95652,0.27531,-0.09635,0.00010,
0.74219,0.47565,-0.80265,0.15319,0.17868,0.51521,0.82643,,,0.95650,0.27534,-0.09640,0.00010,
0.75000,0.50993,-0.65863,0.08283,0.17674,0.51277,0.82643,,,0.95649,0.27537,-0.09645,0.00009,
0.75781,0.40710,-0.69464,0.15319,0.16559,0.51521,0.83271,,,0.95647,0.27540,-0.09649,0.00009,
0.76563,0.44138,-0.58662,0.25872,0.17335,0.51180,0.82594,,,0.95646,0.27543,-0.09654,0.00010,
0.77344,0.54421,-0.80265,0.18836,0.17189,0.51375,0.81676,,,0.95645,0.27546,-0.09659,0.00010,
0.78125,0.47565,-0.69464,0.32908,0.17141,0.51082,0.82981,,,0.95643,0.27549,-0.09664,0.00012,
0.78906,0.40710,-0.65863,0.32908,0.17092,0.51277,0.81821,,,0.95642,0.27551,-0.09669,0.00013,
0.79688,0.50993,-0.98267,0.25872,0.18062,0.51473,0.82594,,,0.95641,0.27555,-0.09676,0.00013,
0.80469,0.44138,-0.91066,0.22354,0.17141,0.51277,0.82063,,,0.95639,0.27557,-0.09683,0.00013,
0.81250,0.57849,-0.87466,0.32908,0.18207,0.51473,0.82836,,,0.95637,0.27561,-0.09689,0.00014,
0.82031,0.40710,-0.69464,0.22354,0.17771,0.51521,0.82159,,,0.95636,0.27563,-0.09694,0.00014,
0.82813,0.57849,-0.58662,0.15319,0.17432,0.51766,0.82256,,,0.95635,0.27567,-0.09698,0.00015,
0.83594,0.50993,-0.62263,0.15319,0.17238,0.51912,0.82788,,,0.95633,0.27570,-0.09702,0.00015,
0.84375,0.61277,-0.73064,0.08283,0.17722,0.51863,0.82643,,,0.95632,0.27574,-0.09707,0.00014,
0.85156,0.57849,-0.62263,0.08283,0.17189,0.51863,0.82449,,,0.95630,0.27578,-0.09712,0.00014,
0.85938,0.64704,-0.65863,0.15319,0.16850,0.51228,0.82256,,,0.95629,0.27582,-0.09716,0.00014,
0.86719,0.57849,-0.51461,0.04765,0.17383,0.51717,0.82256,,,0.95627,0.27586,-0.09720,0.00014,
0.87500,0.68132,-0.55062,-0.02271,0.16850,0.52059,0.82449,,,0.95626,0.27590,-0.09723,0.00013,
0.88281,0.54421,-0.47861,-0.02271,0.18159,0.51473,0.82981,,,0.95624,0.27594,-0.09726,0.00013,
0.89063,0.74988,-0.65863,0.01247,0.17383,0.51521,0.82643,,,0.95622,0.27599,-0.09730,0.00012,
0.89844,0.64704,-0.65863,0.04765,0.17529,0.52010,0.82691,,,0.95621,0.27603,-0.09735,0.00011,
0.90625,0.57849,-0.51461,0.04765,0.16898,0.52059,0.82256,,,0.95619,0.27607,-0.09738,0.00011,
0.91406,0.44138,-0.44260,-0.09307,0.17092,0.51521,0.82498,,,0.95618,0.27610,-0.09741,0.00010,
0.92188,0.50993,-0.40660,0.04765,0.17577,0.51180,0.82933,,,0.95617,0.27613,-0.09744,0.00010,
0.92969,0.26999,-0.37059,-0.16342,0.17529,0.51570,0.82353,,,0.95616,0.27615,-0.09746,0.00008,
0.93750,0.88699,-0.33459,-0.09307,0.16462,0.51717,0.83030,,,0.95614,0.27621,-0.09748,0.00008,
0.94531,0.64704,-0.19057,-0.12824,0.16268,0.52205,0.83755,,,0.95613,0.27625,-0.09749,0.00007,
0.95313,0.37282,-0.47861,-0.16342,0.17189,0.51766,0.82643,,,0.95612,0.27627,-0.09752,0.00005,
0.96094,0.40710,-0.33459,-0.16342,0.17383,0.51131,0.82981,,,0.95611,0.27630,-0.09754,0.00004,
0.96875,0.54421,-0.51461,-0.12824,0.18207,0.51863,0.82208,,,0.95610,0.27634,-0.09757,0.00002,
0.97656,0.44138,-0.33459,-0.19860,0.16510,0.50984,0.82401,,,0.95608,0.27637,-0.09758,0.00001,
0.98438,0.54421,-0.58662,-0.23378,0.17480,0.51570,0.82933,,,0.95607,0.27641,-0.09762,-0.00002,
0.99219,0.47565,-0.29858,-0.16342,0.17383,0.52254,0.82691,,,0.95606,0.27644,-0.09763,-0.00003,
1.00000,0.40710,-0.29858,-0.16342,0.17577,0.51717,0.82159,,,0.95605,0.27646,-0.09765,-0.00004,
1.00781,0.33854,-0.29858,-0.05789,0.16995,0.51717,0.82449,1021.888,25.2,0.95604,0.27649,-0.09767,-0.00005,
1.01563,0.37282,-0.26258,-0.09307,0.16559,0.50935,0.81869,,,0.95603,0.27651,-0.09769,-0.00006,
1.02344,0.68132,-0.44260,-0.16342,0.16947,0.52108,0.82788,,,0.95602,0.27656,-0.09771,-0.00007,
1.03125,0.30427,-0.37059,-0.09307,0.17722,0.51668,0.82788,,,0.95601,0.27658,-0.09773,-0.00008,
1.03906,0.44138,-0.40660,-0.09307,0.16753,0.52108,0.82836,,,0.95600,0.27661,-0.09776,-0.00010,
1.04688,0.33854,-0.58662,-0.02271,0.17626,0.51424,0.81724,,,0.95599,0.27663,-0.09780,-0.00011,
1.05469,0.40710,-0.69464,0.04765,0.17722,0.51961,0.81724,,,0.95598,0.27666,-0.09784,-0.00011,
1.06250,0.61277,-0.65863,0.04765,0.16365,0.52694,0.83562,,,0.95596,0.27670,-0.09789,-0.00012,
1.07031,0.61277,-0.65863,0.25872,0.17722,0.51717,0.81869,,,0.95594,0.27673,-0.09793,-0.00011,
1.07813,0.47565,-0.80265,0.11801,0.16559,0.50740,0.82788,,,0.95593,0.27676,-0.09799,-0.00011,
1.08594,0.44138,-0.69464,0.11801,0.17335,0.51473,0.82449,,,0.95592,0.27679,-0.09804,-0.00012,
1.09375,0.44138,-0.62263,0.11801,0.17092,0.51668,0.82981,,,0.95590,0.27682,-0.09808,-0.00012,
1.10156,0.23571,-0.76665,0.22354,0.17626,0.51863,0.81869,,,0.95589,0.27683,-0.09813,-0.00012,
1.10938,0.78416,-0.73064,0.29390,0.16704,0.51326,0.83368,,,0.95587,0.27688,-0.09819,-0.00010,
1.11719,0.71560,-0.73064,0.01247,0.16704,0.51766,0.83126,,,0.95586,0.27693,-0.09823,-0.00011,
1.12500,0.47565,-0.62263,0.08283,0.17383,0.51180,0.82449,,,0.95584,0.27696,-0.09828,-0.00012,
1.13281,0.44138,-0.80265,0.15319,0.16607,0.50691,0.82304,,,0.95583,0.27699,-0.09833,-0.00012,
1.14063,0.40710,-0.83866,0.22354,0.17529,0.51619,0.81772,,,0.95582,0.27701,-0.09839,-0.00012,
1.14844,0.40710,-0.76665,0.15319,0.16850,0.51863,0.82594,,,0.95580,0.27704,-0.09844,-0.00012,
1.15625,0.26999,-0.62263,0.04765,0.17286,0.52010,0.82933,,,0.95579,0.27706,-0.09848,-0.00013,
1.16406,0.30427,-0.69464,0.22354,0.16995,0.52156,0.82836,,,0.95578,0.27707,-0.09853,-0.00012,
1.17188,0.40710,-0.91066,0.36426,0.17819,0.51473,0.82498,,,0.95577,0.27710,-0.09860,-0.00011,
1.17969,0.44138,-0.87466,0.32908,0.17674,0.51473,0.82498,,,0.95576,0.27712,-0.09866,-0.00011,
1.18750,0.37282,-0.73064,0.43462,0.17141,0.51863,0.82740,,,0.95574,0.27715,-0.09872,-0.00009,
1.19531,0.20143,-0.80265,0.36426,0.16462,0.50642,0.82594,,,0.95573,0.27716,-0.09878,-0.00008,
1.20313,0.33854,-0.83866,0.43462,0.17626,0.50886,0.82788,,,0.95572,0.27718,-0.09884,-0.00006,
1.21094,0.54421,-0.83866,0.22354,0.17916,0.51961,0.82594,,,0.95571,0.27721,-0.09890,-0.00006,
1.21875,0.61277,-0.76665,0.15319,0.16656,0.52108,0.83610,,,0.95569,0.27725,-0.09895,-0.00006,
1.22656,0.44138,-0.55062,0.15319,0.17335,0.51473,0.82933,,,0.95568,0.27728,-0.09899,-0.00006,
1.23438,0.54421,-0.62263,0.08283,0.17141,0.51131,0.82885,,,0.95566,0.27731,-0.09903,-0.00006,
1.24219,0.40710,-0.51461,-0.02271,0.17189,0.51473,0.82691,,,0.95565,0.27734,-0.09907,-0.00007,
1.25000,0.40710,-0.58662,-0.05789,0.17238,0.51863,0.82981,,,0.95564,0.27736,-0.09910,-0.00008,
1.25781,0.37282,-0.37059,0.04765,0.17722,0.51668,0.82401,,,0.95563,0.27739,-0.09913,-0.00008,
1.26563,0.37282,-0.51461,-0.02271,0.18013,0.51277,0.82740,,,0.95562,0.27741,-0.09916,-0.00009,
1.27344,0.37282,-0.44260,0.11801,0.18062,0.51570,0.82788,,,0.95561,0.27744,-0.09919,-0.00009,
1.28125,0.30427,-0.47861,0.08283,0.16656,0.51766,0.83126,,,0.95560,0.27746,-0.09923,-0.00009,
1.28906,0.37282,-0.55062,0.01247,0.17674,0.52108,0.82401,,,0.95559,0.27748,-0.09926,-0.00010,
1.29688,0.33854,-0.29858,0.11801,0.17286,0.51375,0.81966,,,0.95558,0.27750,-0.09928,-0.00009,
1.30469,0.50993,-0.44260,0.04765,0.17238,0.51961,0.82933,,,0.95557,0.27753,-0.09931,-0.00010,
1.31250,0.40710,-0.55062,0.04765,0.17480,0.52156,0.82353,,,0.95556,0.27756,-0.09935,-0.00010,
1.32031,0.37282,-0.73064,0.15319,0.17238,0.51473,0.82304,,,0.95555,0.27758,-0.09940,-0.00010,
1.32813,0.33854,-0.62263,0.04765,0.17141,0.51424,0.82353,,,0.95553,0.27761,-0.09944,-0.00011,
1.33594,0.47565,-0.58662,0.01247,0.17044,0.51326,0.82063,,,0.95552,0.27764,-0.09948,-0.00012,
1.34375,0.37282,-0.51461,-0.02271,0.17626,0.51961,0.82014,,,0.95551,0.27766,-0.09951,-0.00012,
1.35156,0.20143,-0.47861,0.04765,0.17189,0.51961,0.82594,,,0.95550,0.27767,-0.09955,-0.00013,
1.35938,0.20143,-0.37059,0.15319,0.16898,0.51961,0.82933,,,0.95550,0.27769,-0.09957,-0.00012,
1.36719,0.40710,-0.55062,0.01247,0.16753,0.52108,0.83417,,,0.95549,0.27771,-0.09961,-0.00013,
1.37500,0.40710,-0.62263,0.15319,0.16510,0.52205,0.82885,,,0.95547,0.27774,-0.09965,-0.00013,
1.38281,0.44138,-0.73064,0.25872,0.16656,0.52010,0.82885,,,0.95546,0.27776,-0.09970,-0.00012,
1.39063,0.40710,-0.80265,0.18836,0.17189,0.51912,0.82353,,,0.95545,0.27779,-0.09976,-0.00012,
1.39844,0.61277,-0.76665,0.11801,0.16898,0.51521,0.82159,,,0.95543,0.27783,-0.09981,-0.00013,
1.40625,0.54421,-0.83866,0.15319,0.17141,0.51766,0.82594,,,0.95542,0.27786,-0.09987,-0.00013,
1.41406,0.44138,-0.62263,0.22354,0.16898,0.51668,0.82353,,,0.95540,0.27789,-0.09991,-0.00012,
1.42188,0.44138,-0.80265,0.15319,0.17286,0.51668,0.82691,,,0.95539,0.27792,-0.09997,-0.00013,
1.42969,0.47565,-0.73064,0.15319,0.17189,0.52059,0.82159,,,0.95537,0.27795,-0.10002,-0.00013,
1.43750,0.40710,-0.76665,0.18836,0.17141,0.51570,0.82304,,,0.95536,0.27797,-0.10007,-0.00013,
1.44531,0.54421,-0.91066,0.11801,0.17189,0.51619,0.81966,,,0.95535,0.27801,-0.10014,-0.00013,
1.45313,0.54421,-0.73064,0.22354,0.16026,0.51473,0.83368,,,0.95533,0.27804,-0.10019,-0.00013,
1.46094,0.57849,-0.98267,0.22354,0.17480,0.51912,0.82933,,,0.95531,0.27808,-0.10026,-0.00013,
1.46875,0.47565,-0.76665,0.36426,0.16656,0.51766,0.82691,,,0.95530,0.27811,-0.10031,-0.00012,
1.47656,0.44138,-0.76665,0.15319,0.18013,0.51570,0.82691,,,0.95528,0.27813,-0.10037,-0.00012,
1.48438,0.50993,-0.94667,0.15319,0.17044,0.51863,0.82788,,,0.95527,0.27817,-0.10043,-0.00012,
1.49219,0.68132,-1.09069,0.22354,0.17674,0.51619,0.82643,,,0.95525,0.27821,-0.10051,-0.00012,
1.50000,0.37282,-0.91066,0.29390,0.16995,0.51424,0.83078,,,0.95523,0.27823,-0.10057,-0.00012,
1.50781,0.26999,-0.98267,0.32908,0.17480,0.51961,0.82933,,,0.95522,0.27825,-0.10064,-0.00011,
1.51563,0.33854,-0.80265,0.29390,0.16995,0.51570,0.82691,,,0.95521,0.27827,-0.10070,-0.00011,
1.52344,0.54421,-1.19870,0.36426,0.16995,0.51521,0.83126,,,0.95519,0.27830,-0.10078,-0.00010,
1.53125,0.44138,-1.01868,0.39944,0.17141,0.51570,0.82256,,,0.95518,0.27833,-0.10086,-0.00009,
1.53906,0.50993,-0.73064,0.36426,0.16995,0.52498,0.82933,,,0.95516,0.27836,-0.10091,-0.00008,
1.54688,0.33854,-0.91066,0.36426,0.17141,0.51863,0.82836,,,0.95515,0.27838,-0.10098,-0.00007,
1.55469,0.23571,-0.98267,0.39944,0.16753,0.51228,0.82256,,,0.95514,0.27839,-0.10105,-0.00006,
1.56250,0.37282,-0.91066,0.39944,0.17965,0.51473,0.82933,,,0.95512,0.27841,-0.10112,-0.00005,
1.57031,0.23571,-0.98267,0.32908,0.17189,0.51668,0.82594,,,0.95511,0.27842,-0.10119,-0.00005,
1.57813,0.26999,-1.12669,0.39944,0.17868,0.52108,0.83223,,,0.95510,0.27844,-0.10127,-0.00004,
1.58594,0.44138,-0.91066,0.29390,0.17238,0.51277,0.82885,,,0.95509,0.27846,-0.10133,-0.00003,
1.59375,0.33854,-0.83866,0.43462,0.16898,0.51277,0.82159,,,0.95507,0.27848,-0.10139,-0.00002,
1.60156,0.40710,-1.05468,0.36426,0.17771,0.51473,0.82256,,,0.95506,0.27851,-0.10147,-0.00001,
1.60938,0.23571,-0.87466,0.36426,0.17529,0.51668,0.82063,,,0.95505,0.27852,-0.10153,-0.00000,
1.61719,0.40710,-0.83866,0.32908,0.17965,0.51473,0.82159,,,0.95503,0.27854,-0.10160,0.00000,
1.62500,0.37282,-0.73064,0.29390,0.17238,0.51375,0.82498,,,0.95502,0.27857,-0.10165,0.00001,
1.63281,0.37282,-0.76665,0.32908,0.16607,0.51277,0.83948,,,0.95501,0.27859,-0.10170,0.00002,
1.64063,0.23571,-0.94667,0.43462,0.17044,0.51228,0.82498,,,0.95500,0.27860,-0.10177,0.00003,
1.64844,0.40710,-0.80265,0.32908,0.18256,0.51277,0.82643,,,0.95499,0.27863,-0.10183,0.00004,
1.65625,0.44138,-0.76665,0.25872,0.16656,0.51912,0.83030,,,0.95497,0.27865,-0.10189,0.00005,
1.66406,0.37282,-1.01868,0.32908,0.17286,0.52108,0.82208,,,0.95496,0.27867,-0.10196,0.00005,
1.67188,0.50993,-0.76665,0.25872,0.17383,0.51570,0.82256,,,0.95494,0.27871,-0.10202,0.00006,
1.67969,0.44138,-0.73064,0.08283,0.17044,0.52010,0.82111,,,0.95493,0.27873,-0.10206,0.00005,
1.68750,0.57849,-0.73064,0.08283,0.17626,0.52498,0.82885,,,0.95491,0.27877,-0.10211,0.00005,
1.69531,0.47565,-0.55062,0.18836,0.16462,0.51082,0.82353,,,0.95490,0.27880,-0.10215,0.00005,
1.70313,0.33854,-0.69464,0.18836,0.16656,0.50935,0.82836,,,0.95489,0.27882,-0.10220,0.00005,
1.71094,0.23571,-0.58662,0.22354,0.16317,0.51863,0.83030,,,0.95488,0.27884,-0.10224,0.00006,
1.71875,0.37282,-0.62263,0.32908,0.16365,0.52303,0.82740,,,0.95487,0.27886,-0.10229,0.00007,
1.72656,0.16715,-0.91066,0.46979,0.17189,0.51766,0.82401,,,0.95486,0.27886,-0.10236,0.00009,
1.73438,0.26999,-1.09069,0.36426,0.18062,0.51863,0.82256,,,0.95485,0.27888,-0.10244,0.00009,
1.74219,0.23571,-0.83866,0.32908,0.16365,0.50838,0.82304,,,0.95484,0.27889,-0.10250,0.00010,
1.75000,0.47565,-0.76665,0.25872,0.18062,0.52108,0.82836,,,0.95482,0.27892,-0.10255,0.00010,
1.75781,0.23571,-0.80265,0.29390,0.17674,0.51228,0.82836,,,0.95481,0.27894,-0.10261,0.00011,
1.76563,0.40710,-0.62263,0.18836,0.17335,0.52303,0.82449,,,0.95480,0.27896,-0.10265,0.00011,
1.77344,0.26999,-0.76665,0.18836,0.16462,0.51766,0.82788,,,0.95479,0.27898,-0.10271,0.00011,
1.78125,0.20143,-0.69464,0.32908,0.17626,0.51717,0.82498,,,0.95478,0.27899,-0.10276,0.00012,
1.78906,0.13288,-0.83866,0.29390,0.16414,0.50398,0.82014,,,0.95477,0.27899,-0.10282,0.00013,
1.79688,0.44138,-1.01868,0.29390,0.17286,0.50984,0.82401,,,0.95476,0.27902,-0.10289,0.00013,
1.80469,-0.10707,-0.94667,0.43462,0.17092,0.51570,0.80902,,,0.95475,0.27901,-0.10296,0.00014,
1.81250,0.44138,-0.80265,0.29390,0.17238,0.52645,0.83803,,,0.95474,0.27904,-0.10302,0.00014,
1.82031,0.03004,-0.94667,0.46979,0.17044,0.49763,0.81772,,,0.95473,0.27904,-0.10309,0.00016,
1.82813,0.40710,-0.91066,0.01247,0.17771,0.52547,0.83271,,,0.95472,0.27906,-0.10315,0.00014,
1.83594,0.20143,-0.40660,-0.05789,0.17238,0.52938,0.81289,,,0.95471,0.27908,-0.10317,0.00013,
1.84375,0.57849,-0.29858,0.43462,0.14620,0.53182,0.83465,,,0.95470,0.27911,-0.10320,0.00016,
1.85156,0.26999,-1.70277,0.75122,0.17383,0.51717,0.83030,,,0.95468,0.27912,-0.10333,0.00018,
1.85938,0.20143,-1.73877,0.71605,0.18692,0.50838,0.81869,,,0.95466,0.27913,-0.10345,0.00019,
1.86719,0.44138,-0.76665,0.36426,0.18013,0.51570,0.82885,,,0.95465,0.27916,-0.10351,0.00021,
1.87500,0.37282,-0.29858,-0.05789,0.15541,0.51424,0.82304,,,0.95464,0.27918,-0.10353,0.00020,
1.88281,0.64704,-0.62263,0.46979,0.14523,0.52792,0.83513,,,0.95462,0.27922,-0.10358,0.00022,
1.89063,0.20143,-1.45073,0.22354,0.18498,0.50154,0.81918,,,0.95461,0.27923,-0.10368,0.00021,
1.89844,0.68132,-0.69464,0.22354,0.18304,0.51815,0.83078,,,0.95459,0.27928,-0.10373,0.00022,
1.90625,0.54421,-0.62263,0.18836,0.16995,0.51815,0.82643,,,0.95458,0.27931,-0.10377,0.00022,
1.91406,0.23571,-0.80265,0.08283,0.17238,0.51424,0.82788,,,0.95457,0.27932,-0.10382,0.00021,
1.92188,0.20143,-0.62263,0.22354,0.17674,0.51815,0.82691,,,0.95456,0.27934,-0.10387,0.00022,
1.92969,0.23571,-0.62263,0.11801,0.16801,0.51766,0.83030,,,0.95455,0.27935,-0.10391,0.00021,
1.93750,0.30427,-0.69464,0.18836,0.17141,0.52303,0.82981,,,0.95454,0.27937,-0.10396,0.00022,
1.94531,0.23571,-0.80265,0.25872,0.16123,0.52205,0.83803,,,0.95453,0.27938,-0.10402,0.00022,
1.95313,0.20143,-1.01868,0.39944,0.18013,0.50935,0.82594,,,0.95452,0.27939,-0.10409,0.00023,
1.96094,0.26999,-1.01868,0.29390,0.18013,0.51570,0.82063,,,0.95451,0.27941,-0.10416,0.00023,
1.96875,0.50993,-0.91066,0.22354,0.17141,0.51228,0.81869,,,0.95449,0.27944,-0.10423,0.00023,
1.97656,0.47565,-0.73064,0.15319,0.16801,0.51375,0.82546,,,0.95448,0.27947,-0.10428,0.00023,
1.98438,0.37282,-0.91066,0.18836,0.17626,0.51912,0.82111,,,0.95446,0.27949,-0.10434,0.00023,
1.99219,0.37282,-0.80265,0.25872,0.16947,0.51424,0.82788,,,0.95445,0.27951,-0.10440,0.00023,
2.00000,0.40710,-0.87466,0.18836,0.17626,0.51570,0.82594,,,0.95443,0.27954,-0.10446,0.00023,
2.00781,0.30427,-0.80265,0.22354,0.16947,0.51668,0.82691,1021.858,25.2,0.95442,0.27956,-0.10451,0.00023,
2.01563,0.40710,-0.91066,0.25872,0.16268,0.52352,0.82836,,,0.95441,0.27958,-0.10458,0.00023,
2.02344,0.37282,-0.83866,0.32908,0.17238,0.51717,0.82449,,,0.95440,0.27960,-0.10464,0.00024,
2.03125,0.30427,-0.94667,0.32908,0.17141,0.51424,0.82981,,,0.95438,0.27962,-0.10471,0.00025,
2.03906,0.47565,-1.01868,0.29390,0.17577,0.52108,0.83030,,,0.95437,0.27965,-0.10478,0.00025,
2.04688,0.26999,-0.94667,0.29390,0.16171,0.51375,0.82256,,,0.95436,0.27967,-0.10485,0.00025,
2.05469,0.37282,-1.09069,0.29390,0.17771,0.51424,0.83030,,,0.95434,0.27969,-0.10492,0.00025,
2.06250,0.30427,-0.98267,0.39944,0.16510,0.52156,0.82643,,,0.95433,0.27971,-0.10499,0.00026,
2.07031,0.26999,-1.01868,0.46979,0.17529,0.51912,0.82981,,,0.95432,0.27972,-0.10507,0.00028,
2.07813,0.26999,-1.19870,0.36426,0.18110,0.52010,0.82643,,,0.95430,0.27973,-0.10515,0.00028,
2.08594,0.37282,-1.19870,0.46979,0.17044,0.51375,0.82546,,,0.95429,0.27976,-0.10524,0.00029,
2.09375,0.23571,-0.98267,0.36426,0.17189,0.51570,0.82546,,,0.95427,0.27977,-0.10531,0.00030,
2.10156,0.26999,-0.94667,0.36426,0.17335,0.51228,0.82014,,,0.95426,0.27978,-0.10538,0.00030,
2.10938,0.37282,-1.12669,0.43462,0.17480,0.50740,0.82691,,,0.95425,0.27980,-0.10546,0.00031,
2.11719,0.40710,-1.05468,0.50497,0.17286,0.51082,0.82594,,,0.95423,0.27983,-0.10554,0.00033,
2.12500,0.50993,-1.30672,0.39944,0.18256,0.51619,0.83175,,,0.95421,0.27986,-0.10563,0.00033,
2.13281,0.33854,-1.05468,0.04765,0.18547,0.50203,0.81869,,,0.95420,0.27988,-0.10570,0.00032,
2.14063,0.74988,-0.98267,0.78640,0.15250,0.52938,0.84287,,,0.95418,0.27992,-0.10578,0.00036,
2.14844,0.37282,-1.34272,0.92712,0.15783,0.52254,0.83900,,,0.95416,0.27994,-0.10589,0.00039,
2.15625,0.16715,-1.81078,0.92712,0.20971,0.50007,0.80950,,,0.95414,0.27994,-0.10602,0.00042,
2.16406,0.68132,-1.30672,0.68087,0.19128,0.52108,0.82691,,,0.95412,0.27998,-0.10612,0.00045,
2.17188,0.57849,-1.41473,0.57533,0.15686,0.52059,0.83755,,,0.95410,0.28002,-0.10622,0.00046,
2.17969,0.40710,-1.88279,0.68087,0.20243,0.50593,0.82063,,,0.95408,0.28004,-0.10636,0.00047,
2.18750,0.40710,-1.05468,0.46979,0.18062,0.51131,0.81918,,,0.95406,0.28006,-0.10644,0.00048,
2.19531,0.68132,-1.09069,0.68087,0.16656,0.52156,0.83030,,,0.95404,0.28010,-0.10652,0.00051,
2.20313,0.30427,-1.59475,0.39944,0.19322,0.50056,0.81531,,,0.95402,0.28012,-0.10663,0.00051,
2.21094,0.47565,-0.80265,0.39944,0.18304,0.50691,0.82063,,,0.95401,0.28015,-0.10669,0.00052,
2.21875,0.54421,-0.87466,0.32908,0.16850,0.52352,0.83417,,,0.95399,0.28018,-0.10675,0.00053,
2.22656,0.26999,-1.19870,0.18836,0.19419,0.50496,0.80515,,,0.95398,0.28020,-0.10684,0.00052,
2.23438,0.64704,-0.76665,0.29390,0.16801,0.52059,0.82546,,,0.95396,0.28024,-0.10689,0.00053,
2.24219,0.44138,-1.27071,0.43462,0.16753,0.51668,0.83030,,,0.95394,0.28026,-0.10698,0.00054,
2.25000,0.44138,-1.09069,0.29390,0.19128,0.51766,0.82208,,,0.95393,0.28029,-0.10706,0.00054,
2.25781,0.74988,-0.69464,0.43462,0.16559,0.52059,0.82740,,,0.95391,0.28033,-0.10711,0.00056,
2.26563,0.26999,-1.34272,0.64569,0.17335,0.51033,0.83030,,,0.95389,0.28035,-0.10721,0.00058,
2.27344,0.20143,-1.52274,0.46979,0.18547,0.50447,0.81579,,,0.95388,0.28036,-0.10732,0.00058,
2.28125,0.71560,-1.23471,0.71605,0.16704,0.52840,0.83997,,,0.95386,0.28040,-0.10741,0.00061,
2.28906,0.03004,-1.55875,0.36426,0.19953,0.51619,0.81095,,,0.95384,0.28040,-0.10752,0.00061,
2.29688,0.44138,-1.01868,0.43462,0.17965,0.51863,0.82740,,,0.95383,0.28042,-0.10760,0.00062,
2.30469,0.37282,-1.30672,0.54015,0.16947,0.51717,0.84287,,,0.95381,0.28044,-0.10769,0.00063,
2.31250,0.30427,-1.05468,0.46979,0.18401,0.51131,0.81579,,,0.95380,0.28046,-0.10777,0.00064,
2.32031,0.85271,-1.12669,0.68087,0.16559,0.52108,0.84239,,,0.95377,0.28051,-0.10786,0.00067,
2.32813,-0.03851,-1.30672,0.29390,0.18353,0.50056,0.82111,,,0.95376,0.28050,-0.10795,0.00067,
2.33594,0.61277,-0.83866,0.46979,0.16414,0.51717,0.83513,,,0.95375,0.28054,-0.10801,0.00069,
2.34375,0.54421,-1.12669,0.50497,0.16801,0.51961,0.83513,,,0.95373,0.28057,-0.10809,0.00070,
2.35156,0.20143,-1.27071,0.25872,0.18886,0.50886,0.82546,,,0.95371,0.28058,-0.10818,0.00070,
2.35938,0.57849,-0.62263,0.39944,0.16656,0.51326,0.83368,,,0.95370,0.28062,-0.10823,0.00071,
2.36719,0.47565,-0.80265,0.54015,0.16026,0.51570,0.83707,,,0.95368,0.28065,-0.10829,0.00074,
2.37500,0.23571,-0.98267,0.43462,0.18159,0.50642,0.81724,,,0.95367,0.28066,-0.10836,0.00075,
2.38281,0.44138,-0.91066,0.50497,0.19274,0.51326,0.82063,,,0.95366,0.28068,-0.10843,0.00077,
2.39063,0.40710,-0.80265,0.18836,0.17771,0.50886,0.82449,,,0.95364,0.28071,-0.10849,0.00077,
2.39844,0.50993,-0.73064,0.04765,0.18207,0.51668,0.83030,,,0.95363,0.28074,-0.10854,0.00076,
2.40625,0.40710,-0.55062,0.04765,0.17286,0.51277,0.82691,,,0.95361,0.28077,-0.10857,0.00075,
2.41406,0.37282,-0.83866,0.04765,0.18013,0.51521,0.82885,,,0.95360,0.28079,-0.10863,0.00074,
2.42188,0.57849,-0.69464,0.11801,0.16801,0.50935,0.83078,,,0.95359,0.28083,-0.10868,0.00074,
2.42969,0.47565,-0.65863,0.15319,0.17819,0.51326,0.82449,,,0.95357,0.28086,-0.10872,0.00074,
2.43750,0.54421,-0.69464,0.11801,0.17432,0.51717,0.82063,,,0.95356,0.28089,-0.10877,0.00074,
2.44531,0.61277,-0.69464,0.08283,0.17916,0.51815,0.83078,,,0.95354,0.28093,-0.10882,0.00074,
2.45313,0.61277,-0.65863,0.04765,0.17335,0.50642,0.82498,,,0.95352,0.28097,-0.10886,0.00073,
2.46094,0.57849,-0.65863,0.04765,0.17771,0.51521,0.82981,,,0.95351,0.28101,-0.10890,0.00073,
2.46875,0.50993,-0.47861,-0.05789,0.17141,0.51228,0.82449,,,0.95349,0.28104,-0.10893,0.00072,
2.47656,0.54421,-0.62263,-0.09307,0.18013,0.51863,0.82594,,,0.95348,0.28108,-0.10897,0.00071,
2.48438,0.47565,-0.26258,-0.09307,0.17965,0.50886,0.82208,,,0.95347,0.28111,-0.10899,0.00070,
2.49219,0.68132,-0.29858,-0.09307,0.17432,0.51961,0.83465,,,0.95345,0.28115,-0.10900,0.00069,
2.50000,0.71560,-0.29858,-0.09307,0.17480,0.52010,0.83320,,,0.95344,0.28120,-0.10902,0.00069,
2.50781,0.44138,-0.40660,-0.16342,0.16898,0.52205,0.82498,,,0.95342,0.28123,-0.10904,0.00067,
2.51563,0.54421,-0.47861,-0.19860,0.17432,0.52352,0.83078,,,0.95341,0.28127,-0.10907,0.00065,
2.52344,0.47565,-0.47861,-0.09307,0.16801,0.51180,0.82256,,,0.95340,0.28130,-0.10910,0.00064,
2.53125,0.68132,-0.51461,0.01247,0.17722,0.51815,0.82788,,,0.95338,0.28134,-0.10913,0.00064,
2.53906,0.47565,-0.65863,0.04765,0.16462,0.51473,0.82256,,,0.95337,0.28137,-0.10918,0.00063,
2.54688,0.54421,-0.65863,0.04765,0.17432,0.51668,0.82208,,,0.95335,0.28141,-0.10922,0.00062,
2.55469,0.50993,-0.69464,0.08283,0.17092,0.51619,0.82981,,,0.95334,0.28144,-0.10927,0.00062,
2.56250,0.44138,-0.69464,0.08283,0.17286,0.51619,0.83030,,,0.95332,0.28147,-0.10932,0.00062,
2.57031,0.40710,-0.62263,0.08283,0.16704,0.51570,0.83707,,,0.95331,0.28150,-0.10936,0.00061,
2.57813,0.09860,-0.91066,0.32908,0.17286,0.51912,0.83175,,,0.95330,0.28150,-0.10942,0.00062,
2.58594,0.20143,-0.91066,0.43462,0.17868,0.51815,0.82256,,,0.95329,0.28151,-0.10949,0.00063,
2.59375,0.33854,-0.98267,0.50497,0.17674,0.51424,0.82740,,,0.95328,0.28153,-0.10956,0.00065,
2.60156,0.26999,-1.05468,0.29390,0.17383,0.51228,0.82401,,,0.95326,0.28154,-0.10964,0.00065,
2.60938,0.30427,-0.83866,0.39944,0.17092,0.51570,0.82449,,,0.95325,0.28156,-0.10970,0.00066,
2.61719,0.26999,-0.91066,0.29390,0.17965,0.51180,0.82594,,,0.95324,0.28158,-0.10977,0.00066,
2.62500,0.23571,-1.12669,0.18836,0.17480,0.51424,0.82788,,,0.95323,0.28159,-0.10984,0.00065,
2.63281,0.40710,-1.27071,0.36426,0.18256,0.50984,0.82498,,,0.95321,0.28161,-0.10993,0.00066,
2.64063,0.54421,-1.05468,0.36426,0.17092,0.50740,0.82933,,,0.95319,0.28165,-0.11001,0.00066,
2.64844,0.54421,-1.23471,0.43462,0.17529,0.51277,0.82546,,,0.95317,0.28168,-0.11010,0.00067,
2.65625,0.68132,-1.19870,0.43462,0.16995,0.51912,0.83465,,,0.95315,0.28172,-0.11018,0.00068,
2.66406,0.40710,-1.16270,0.50497,0.18498,0.51570,0.82594,,,0.95313,0.28174,-0.11027,0.00070,
2.67188,0.50993,-1.19870,0.54015,0.16123,0.51326,0.81918,,,0.95311,0.28177,-0.11036,0.00071,
2.67969,0.44138,-1.27071,0.36426,0.18013,0.51180,0.82401,,,0.95310,0.28180,-0.11044,0.00072,
2.68750,0.61277,-0.94667,0.32908,0.17722,0.52205,0.83271,,,0.95308,0.28183,-0.11051,0.00072,
2.69531,0.40710,-0.87466,0.22354,0.17722,0.52059,0.82836,,,0.95306,0.28186,-0.11057,0.00072,
2.70313,0.37282,-0.91066,0.29390,0.17092,0.51766,0.83030,,,0.95305,0.28188,-0.11064,0.00073,
2.71094,0.47565,-0.87466,0.43462,0.17480,0.51228,0.83078,,,0.95303,0.28191,-0.11070,0.00074,
2.71875,0.50993,-1.12669,0.36426,0.18498,0.51131,0.81676,,,0.95301,0.28194,-0.11078,0.00075,
2.72656,0.50993,-0.91066,0.25872,0.17577,0.52108,0.82449,,,0.95300,0.28197,-0.11085,0.00075,
2.73438,0.33854,-0.83866,0.25872,0.16947,0.52108,0.82933,,,0.95298,0.28199,-0.11091,0.00076,
2.74219,0.37282,-1.09069,0.36426,0.17383,0.51228,0.83030,,,0.95297,0.28201,-0.11098,0.00076,
2.75000,0.37282,-1.05468,0.25872,0.17674,0.51180,0.82304,,,0.95295,0.28203,-0.11106,0.00076,
2.75781,0.37282,-0.94667,0.43462,0.17577,0.51570,0.82304,,,0.95294,0.28206,-0.11113,0.00077,
2.76563,0.33854,-1.01868,0.39944,0.17480,0.51912,0.82498,,,0.95293,0.28207,-0.11120,0.00078,
2.77344,0.30427,-1.05468,0.39944,0.17432,0.51424,0.82788,,,0.95291,0.28209,-0.11128,0.00079,
2.78125,0.33854,-0.98267,0.22354,0.18110,0.51521,0.82740,,,0.95290,0.28211,-0.11135,0.00079,
2.78906,0.50993,-0.98267,0.25872,0.18062,0.51473,0.82256,,,0.95288,0.28214,-0.11141,0.00079,
2.79688,0.44138,-0.76665,0.29390,0.17819,0.50642,0.82353,,,0.95287,0.28217,-0.11147,0.00080,
2.80469,0.40710,-0.65863,0.15319,0.18159,0.51521,0.82740,,,0.95285,0.28219,-0.11152,0.00080,
2.81250,0.37282,-0.83866,0.25872,0.18013,0.52205,0.82933,,,0.95284,0.28222,-0.11158,0.00080,
2.82031,0.40710,-0.83866,0.25872,0.16898,0.51619,0.83513,,,0.95283,0.28224,-0.11163,0.00081,
2.82813,0.44138,-0.65863,0.25872,0.17044,0.51619,0.82788,,,0.95281,0.28227,-0.11168,0.00081,
2.83594,0.26999,-0.65863,0.15319,0.17819,0.51228,0.83030,,,0.95280,0.28228,-0.11173,0.00081,
2.84375,0.40710,-0.98267,0.22354,0.17335,0.51668,0.83465,,,0.95279,0.28231,-0.11180,0.00081,
2.85156,0.40710,-0.65863,0.18836,0.17674,0.51912,0.83175,,,0.95277,0.28233,-0.11184,0.00081,
2.85938,0.37282,-0.83866,0.18836,0.17965,0.51717,0.83223,,,0.95276,0.28236,-0.11190,0.00081,
2.86719,0.26999,-0.91066,0.29390,0.17092,0.51228,0.82063,,,0.95275,0.28237,-0.11197,0.00082,
2.87500,0.50993,-0.80265,0.29390,0.17626,0.51033,0.82304,,,0.95273,0.28240,-0.11202,0.00082,
2.88281,0.57849,-0.87466,0.25872,0.17432,0.51277,0.83078,,,0.95271,0.28244,-0.11208,0.00083,
2.89063,0.50993,-0.80265,0.29390,0.17819,0.51424,0.82449,,,0.95270,0.28247,-0.11214,0.00084,
2.89844,0.57849,-0.87466,0.22354,0.17626,0.51228,0.82933,,,0.95268,0.28251,-0.11220,0.00084,
2.90625,0.33854,-0.58662,0.32908,0.17674,0.51033,0.82691,,,0.95267,0.28252,-0.11225,0.00085,
2.91406,0.37282,-0.76665,0.22354,0.17480,0.51766,0.82643,,,0.95266,0.28255,-0.11230,0.00085,
2.92188,0.40710,-0.62263,0.18836,0.17916,0.52205,0.83271,,,0.95264,0.28257,-0.11235,0.00086,
2.92969,0.30427,-0.62263,0.25872,0.16898,0.51717,0.83175,,,0.95263,0.28259,-0.11239,0.00086,
2.93750,0.40710,-0.76665,0.18836,0.17722,0.51815,0.82885,,,0.95262,0.28262,-0.11244,0.00086,
2.94531,0.20143,-0.65863,0.22354,0.17238,0.51717,0.82740,,,0.95261,0.28263,-0.11249,0.00087,
2.95313,0.30427,-0.76665,0.22354,0.17965,0.51326,0.82933,,,0.95260,0.28264,-0.11255,0.00087,
2.96094,0.26999,-0.73064,0.29390,0.17626,0.50789,0.82449,,,0.95259,0.28266,-0.11260,0.00088,
2.96875,0.30427,-0.83866,0.25872,0.17383,0.51961,0.82498,,,0.95258,0.28268,-0.11266,0.00088,
2.97656,0.50993,-0.80265,0.36426,0.17626,0.51473,0.82643,,,0.95256,0.28271,-0.11272,0.00089,
2.98438,0.50993,-0.80265,0.22354,0.17529,0.51131,0.82933,,,0.95254,0.28274,-0.11277,0.00089,
2.99219,0.37282,-0.80265,0.25872,0.18450,0.51131,0.82788,,,0.95253,0.28276,-0.11283,0.00090,
3.00000,0.47565,-0.69464,0.18836,0.17626,0.51277,0.82740,,,0.95252,0.28279,-0.11288,0.00090,
3.00781,0.47565,-0.51461,0.04765,0.17577,0.51424,0.82594,1021.843,25.2,0.95250,0.28282,-0.11291,0.00090,
3.01563,0.44138,-0.73064,0.08283,0.17529,0.51473,0.82063,,,0.95249,0.28285,-0.11296,0.00089,
3.02344,0.26999,-0.65863,0.04765,0.18159,0.50935,0.82159,,,0.95248,0.28287,-0.11301,0.00089,
3.03125,0.47565,-0.83866,0.08283,0.17771,0.51424,0.83271,,,0.95246,0.28290,-0.11306,0.00088,
3.03906,0.33854,-0.58662,0.25872,0.17383,0.51424,0.82353,,,0.95245,0.28292,-0.11311,0.00089,
3.04688,0.30427,-0.62263,0.18836,0.17383,0.51473,0.82691,,,0.95244,0.28294,-0.11315,0.00089,
3.05469,0.33854,-0.87466,0.18836,0.17092,0.51961,0.82788,,,0.95243,0.28296,-0.11321,0.00089,
3.06250,0.33854,-0.83866,0.22354,0.17965,0.51619,0.82643,,,0.95241,0.28298,-0.11327,0.00089,
3.07031,0.40710,-0.73064,0.15319,0.17916,0.51619,0.82594,,,0.95240,0.28300,-0.11332,0.00089,
3.07813,0.30427,-0.80265,0.32908,0.18207,0.51521,0.82885,,,0.95239,0.28302,-0.11338,0.00090,
3.08594,0.50993,-0.80265,0.29390,0.17771,0.51521,0.82740,,,0.95237,0.28305,-0.11344,0.00090,
3.09375,0.44138,-1.05468,0.25872,0.18110,0.52156,0.82594,,,0.95236,0.28308,-0.11351,0.00090,
3.10156,0.50993,-0.91066,0.39944,0.17626,0.51228,0.82933,,,0.95234,0.28311,-0.11358,0.00091,
3.10938,0.57849,-0.87466,0.36426,0.18304,0.51668,0.82353,,,0.95232,0.28314,-0.11364,0.00093,
3.11719,0.44138,-0.83866,0.29390,0.17092,0.51326,0.82304,,,0.95231,0.28317,-0.11370,0.00093,
3.12500,0.47565,-1.01868,0.29390,0.18547,0.52010,0.83417,,,0.95229,0.28320,-0.11377,0.00094,
3.13281,0.40710,-0.83866,0.39944,0.17722,0.51815,0.82788,,,0.95228,0.28322,-0.11383,0.00095,
3.14063,0.33854,-0.76665,0.36426,0.18256,0.51912,0.82740,,,0.95226,0.28324,-0.11389,0.00096,
3.14844,0.33854,-0.91066,0.29390,0.17868,0.51766,0.82353,,,0.95225,0.28326,-0.11395,0.00096,
3.15625,0.33854,-0.91066,0.43462,0.17189,0.51375,0.82111,,,0.95224,0.28328,-0.11402,0.00098,
3.16406,0.44138,-0.87466,0.32908,0.17819,0.51521,0.82933,,,0.95222,0.28330,-0.11409,0.00099,
3.17188,0.37282,-1.05468,0.43462,0.17771,0.51912,0.81918,,,0.95220,0.28332,-0.11416,0.00100,
3.17969,0.44138,-0.94667,0.25872,0.18304,0.51815,0.82933,,,0.95219,0.28335,-0.11423,0.00100,
3.18750,0.50993,-0.91066,0.22354,0.17286,0.51473,0.83223,,,0.95217,0.28338,-0.11429,0.00100,
3.19531,0.61277,-0.87466,0.18836,0.18498,0.51570,0.83175,,,0.95215,0.28342,-0.11435,0.00100,
3.20313,0.68132,-0.69464,0.11801,0.16898,0.51717,0.83465,,,0.95213,0.28346,-0.11440,0.00100,
3.21094,0.40710,-0.65863,0.08283,0.17674,0.51912,0.82594,,,0.95212,0.28349,-0.11444,0.00099,
3.21875,0.47565,-0.80265,0.08283,0.17626,0.51570,0.82691,,,0.95211,0.28352,-0.11450,0.00099,
3.22656,0.37282,-0.58662,0.11801,0.17480,0.51082,0.82256,,,0.95209,0.28354,-0.11454,0.00099,
3.23438,0.50993,-0.51461,0.18836,0.18159,0.51473,0.82546,,,0.95208,0.28358,-0.11457,0.00099,
3.24219,0.37282,-0.83866,0.18836,0.18256,0.51619,0.82353,,,0.95207,0.28360,-0.11463,0.00099,
3.25000,0.47565,-0.62263,0.01247,0.18498,0.51131,0.83078,,,0.95205,0.28363,-0.11467,0.00098,
3.25781,0.57849,-0.51461,-0.05789,0.17189,0.51766,0.83175,,,0.95204,0.28367,-0.11471,0.00098,
3.26563,0.61277,-0.55062,0.04765,0.18110,0.51521,0.82353,,,0.95202,0.28371,-0.11474,0.00097,
3.27344,0.54421,-0.58662,0.04765,0.17722,0.50642,0.82546,,,0.95201,0.28374,-0.11478,0.00097,
3.28125,0.54421,-0.62263,0.11801,0.18013,0.50984,0.82208,,,0.95199,0.28378,-0.11482,0.00097,
3.28906,0.37282,-0.47861,-0.02271,0.17286,0.51717,0.82353,,,0.95198,0.28380,-0.11485,0.00096,
3.29688,0.40710,-0.40660,0.01247,0.17965,0.51961,0.82788,,,0.95197,0.28383,-0.11488,0.00096,
3.30469,0.30427,-0.47861,0.04765,0.16753,0.51424,0.83223,,,0.95196,0.28385,-0.11491,0.00095,
3.31250,0.33854,-0.58662,0.15319,0.17916,0.51375,0.82643,,,0.95195,0.28387,-0.11495,0.00095,
3.32031,0.30427,-0.58662,0.22354,0.16268,0.52010,0.83610,,,0.95194,0.28388,-0.11500,0.00096,
3.32813,0.30427,-0.62263,0.15319,0.17626,0.51766,0.82594,,,0.95193,0.28390,-0.11504,0.00096,
3.33594,0.23571,-0.76665,0.04765,0.17432,0.52450,0.83175,,,0.95192,0.28392,-0.11509,0.00095,
3.34375,0.23571,-0.58662,0.18836,0.16753,0.51521,0.82498,,,0.95191,0.28393,-0.11513,0.00095,
3.35156,0.40710,-0.76665,0.18836,0.18256,0.51473,0.83126,,,0.95189,0.28396,-0.11518,0.00095,
3.35938,0.47565,-0.76665,0.15319,0.16947,0.51570,0.83078,,,0.95188,0.28399,-0.11524,0.00095,
3.36719,0.61277,-0.76665,0.18836,0.18547,0.51619,0.81918,,,0.95186,0.28402,-0.11529,0.00095,
3.37500,0.54421,-0.83866,0.22354,0.17480,0.51424,0.82449,,,0.95184,0.28406,-0.11535,0.00096,
3.38281,0.40710,-0.58662,0.22354,0.18062,0.51424,0.82740,,,0.95183,0.28408,-0.11539,0.00096,
3.39063,0.30427,-0.62263,0.11801,0.17722,0.52059,0.83417,,,0.95182,0.28410,-0.11543,0.00096,
3.39844,0.26999,-0.73064,0.08283,0.18013,0.51473,0.82981,,,0.95181,0.28412,-0.11548,0.00095,
3.40625,0.37282,-0.65863,0.22354,0.16559,0.51228,0.82546,,,0.95180,0.28414,-0.11553,0.00096,
3.41406,0.44138,-0.87466,0.18836,0.18013,0.51717,0.82885,,,0.95178,0.28417,-0.11559,0.00096,
3.42188,0.20143,-0.65863,0.18836,0.17044,0.51863,0.82498,,,0.95177,0.28418,-0.11564,0.00096,
3.42969,0.26999,-0.76665,0.25872,0.17771,0.51521,0.81966,,,0.95176,0.28420,-0.11569,0.00096,
3.43750,0.23571,-0.83866,0.25872,0.17868,0.50838,0.82063,,,0.95175,0.28421,-0.11575,0.00097,
3.44531,0.40710,-0.65863,0.11801,0.17771,0.51131,0.83223,,,0.95174,0.28423,-0.11580,0.00096,
3.45313,0.40710,-0.65863,0.11801,0.18450,0.51375,0.81918,,,0.95172,0.28426,-0.11584,0.00096,
3.46094,0.33854,-0.69464,0.11801,0.17044,0.51277,0.82546,,,0.95171,0.28428,-0.11589,0.00096,
3.46875,0.54421,-0.80265,0.15319,0.18159,0.51863,0.82353,,,0.95169,0.28431,-0.11594,0.00096,
3.47656,0.61277,-0.91066,0.18836,0.17771,0.51521,0.83078,,,0.95167,0.28435,-0.11601,0.00096,
3.48438,0.44138,-0.80265,0.22354,0.17868,0.51668,0.82691,,,0.95166,0.28438,-0.11606,0.00096,
3.49219,0.44138,-0.87466,0.18836,0.17965,0.51277,0.83175,,,0.95164,0.28441,-0.11612,0.00096,
3.50000,0.50993,-0.80265,0.11801,0.17916,0.50838,0.82546,,,0.95163,0.28444,-0.11618,0.00095,
3.50781,0.74988,-0.87466,0.15319,0.17480,0.51424,0.82691,,,0.95161,0.28449,-0.11624,0.00095,
3.51563,0.64704,-0.62263,0.04765,0.17432,0.51619,0.82353,,,0.95159,0.28453,-0.11628,0.00095,
3.52344,0.74988,-0.47861,0.15319,0.17626,0.51521,0.82885,,,0.95157,0.28458,-0.11631,0.00096,
3.53125,0.68132,-0.87466,0.18836,0.17868,0.51424,0.83030,,,0.95155,0.28462,-0.11637,0.00096,
3.53906,0.64704,-0.83866,0.15319,0.17868,0.51668,0.82836,,,0.95153,0.28466,-0.11643,0.00095,
3.54688,0.57849,-0.55062,0.08283,0.16995,0.51326,0.82594,,,0.95152,0.28470,-0.11647,0.00095,
3.55469,0.57849,-0.58662,0.18836,0.17916,0.51717,0.83030,,,0.95150,0.28473,-0.11651,0.00096,
3.56250,0.57849,-0.69464,0.25872,0.17335,0.52352,0.82498,,,0.95148,0.28477,-0.11656,0.00097,
3.57031,0.50993,-0.62263,0.08283,0.18983,0.50984,0.82063,,,0.95147,0.28480,-0.11660,0.00096,
3.57813,0.57849,-0.55062,0.22354,0.16898,0.51570,0.82546,,,0.95145,0.28484,-0.11664,0.00097,
3.58594,0.57849,-0.69464,0.15319,0.17674,0.51766,0.82981,,,0.95144,0.28487,-0.11669,0.00097,
3.59375,0.30427,-0.69464,0.04765,0.18159,0.51326,0.82885,,,0.95142,0.28489,-0.11673,0.00097,
3.60156,0.54421,-0.37059,0.08283,0.17529,0.51961,0.82256,,,0.95141,0.28493,-0.11676,0.00097,
3.60938,0.40710,-0.33459,-0.02271,0.17044,0.51961,0.83465,,,0.95140,0.28495,-0.11678,0.00096,
3.61719,0.16715,-0.29858,0.08283,0.17577,0.50789,0.82014,,,0.95140,0.28496,-0.11680,0.00096,
3.62500,0.57849,-0.65863,0.11801,0.17189,0.52254,0.83513,,,0.95138,0.28500,-0.11685,0.00096,
3.63281,0.44138,-0.65863,0.08283,0.17092,0.50984,0.82885,,,0.95136,0.28503,-0.11689,0.00096,
3.64063,0.57849,-0.47861,0.25872,0.17577,0.51912,0.82788,,,0.95135,0.28506,-0.11693,0.00097,
3.64844,0.37282,-0.87466,0.15319,0.17335,0.51668,0.82546,,,0.95134,0.28509,-0.11699,0.00097,
3.65625,0.54421,-0.83866,0.11801,0.17189,0.51180,0.81966,,,0.95132,0.28512,-0.11704,0.00096,
3.66406,0.57849,-0.80265,0.18836,0.17916,0.50447,0.82208,,,0.95130,0.28516,-0.11710,0.00097,
3.67188,0.47565,-0.83866,0.11801,0.18353,0.51033,0.82063,,,0.95128,0.28519,-0.11716,0.00096,
3.67969,0.44138,-0.55062,0.18836,0.17529,0.51863,0.82546,,,0.95127,0.28521,-0.11719,0.00097,
3.68750,0.50993,-0.69464,0.15319,0.18110,0.51863,0.82740,,,0.95126,0.28525,-0.11724,0.00097,
3.69531,0.40710,-0.83866,0.08283,0.17238,0.52645,0.83417,,,0.95124,0.28527,-0.11730,0.00096,
3.70313,0.40710,-0.69464,0.01247,0.18256,0.51863,0.83030,,,0.95123,0.28530,-0.11734,0.00095,
3.71094,0.47565,-0.80265,0.04765,0.17335,0.51863,0.83126,,,0.95121,0.28533,-0.11740,0.00094,
3.71875,0.37282,-0.69464,0.01247,0.17189,0.50789,0.81821,,,0.95120,0.28535,-0.11744,0.00093,
3.72656,0.33854,-0.58662,0.01247,0.17965,0.51912,0.82401,,,0.95119,0.28537,-0.11748,0.00092,
3.73438,0.26999,-0.58662,0.01247,0.16947,0.51033,0.82740,,,0.95118,0.28539,-0.11752,0.00091,
3.74219,0.20143,-0.76665,0.15319,0.17819,0.51277,0.82546,,,0.95117,0.28540,-0.11757,0.00091,
3.75000,0.23571,-0.73064,0.11801,0.17819,0.51033,0.83126,,,0.95116,0.28542,-0.11762,0.00091,
3.75781,0.33854,-0.69464,0.04765,0.18110,0.52254,0.83078,,,0.95115,0.28544,-0.11767,0.00090,
3.76563,0.23571,-0.76665,0.11801,0.17238,0.50838,0.82981,,,0.95114,0.28545,-0.11772,0.00089,
3.77344,0.37282,-0.80265,0.01247,0.18353,0.51521,0.82256,,,0.95112,0.28548,-0.11777,0.00088,
3.78125,0.30427,-0.55062,0.11801,0.17335,0.51570,0.82111,,,0.95111,0.28550,-0.11781,0.00088,
3.78906,0.40710,-0.55062,0.08283,0.17189,0.51570,0.82159,,,0.95110,0.28552,-0.11785,0.00088,
3.79688,0.40710,-0.65863,0.04765,0.17480,0.51521,0.82836,,,0.95109,0.28555,-0.11789,0.00087,
3.80469,0.33854,-0.69464,-0.02271,0.17626,0.51570,0.81724,,,0.95107,0.28557,-0.11793,0.00086,
3.81250,0.33854,-0.55062,0.04765,0.18207,0.51521,0.82981,,,0.95106,0.28559,-0.11797,0.00085,
3.82031,0.33854,-0.62263,0.04765,0.17722,0.51326,0.82594,,,0.95105,0.28561,-0.11801,0.00085,
3.82813,0.47565,-0.40660,-0.12824,0.18013,0.51717,0.82594,,,0.95104,0.28565,-0.11804,0.00084,
3.83594,0.61277,-0.62263,-0.02271,0.17141,0.52059,0.83271,,,0.95102,0.28569,-0.11808,0.00083,
3.84375,0.44138,-0.51461,0.15319,0.17335,0.51668,0.82014,,,0.95101,0.28571,-0.11811,0.00083,
3.85156,0.47565,-0.51461,0.11801,0.16365,0.51424,0.83465,,,0.95100,0.28574,-0.11815,0.00083,
3.85938,0.37282,-0.37059,0.08283,0.17819,0.51521,0.82885,,,0.95098,0.28577,-0.11817,0.00083,
3.86719,0.40710,-0.73064,-0.02271,0.17480,0.51375,0.82836,,,0.95097,0.28579,-0.11822,0.00082,
3.87500,0.44138,-0.80265,0.08283,0.17577,0.51815,0.82256,,,0.95096,0.28582,-0.11827,0.00081,
3.88281,0.50993,-0.65863,0.08283,0.17189,0.51326,0.82981,,,0.95094,0.28585,-0.11832,0.00081,
3.89063,0.47565,-0.83866,0.04765,0.17335,0.51424,0.82933,,,0.95092,0.28588,-0.11837,0.00080,
3.89844,0.47565,-0.76665,0.18836,0.17189,0.51180,0.82885,,,0.95091,0.28591,-0.11843,0.00080,
3.90625,0.47565,-0.65863,0.22354,0.18062,0.51180,0.82546,,,0.95089,0.28594,-0.11847,0.00081,
3.91406,0.47565,-0.69464,0.15319,0.17722,0.51033,0.82546,,,0.95088,0.28597,-0.11852,0.00081,
3.92188,0.57849,-0.83866,0.08283,0.17722,0.51668,0.82304,,,0.95086,0.28601,-0.11858,0.00080,
3.92969,0.47565,-0.80265,0.15319,0.16414,0.51717,0.83175,,,0.95085,0.28604,-0.11863,0.00080,
3.93750,0.40710,-0.94667,0.29390,0.17044,0.51717,0.82594,,,0.95083,0.28606,-0.11870,0.00080,
3.94531,0.16715,-0.62263,0.25872,0.17189,0.51521,0.82353,,,0.95082,0.28607,-0.11874,0.00081,
3.95313,0.50993,-0.98267,0.43462,0.17771,0.51424,0.83078,,,0.95080,0.28610,-0.11882,0.00082,
3.96094,0.44138,-0.87466,0.32908,0.18886,0.51375,0.82740,,,0.95079,0.28613,-0.11888,0.00083,
3.96875,0.40710,-0.87466,0.32908,0.17432,0.51815,0.83030,,,0.95077,0.28615,-0.11894,0.00084,
3.97656,0.50993,-0.76665,0.36426,0.18062,0.51912,0.82788,,,0.95076,0.28618,-0.11900,0.00085,
3.98438,0.61277,-1.01868,0.39944,0.17044,0.51082,0.82111,,,0.95074,0.28622,-0.11907,0.00086,
3.99219,0.57849,-0.98267,0.29390,0.18304,0.51668,0.82836,,,0.95072,0.28625,-0.11914,0.00087,
4.00000,0.57849,-0.87466,0.18836,0.17577,0.52059,0.82111,,,0.95070,0.28629,-0.11920,0.00087,
4.00781,0.47565,-0.80265,0.25872,0.17092,0.51326,0.83030,1021.847,25.2,0.95068,0.28632,-0.11926,0.00087,
4.01563,0.44138,-0.83866,0.25872,0.17771,0.51228,0.82740,,,0.95067,0.28634,-0.11932,0.00088,
4.02344,0.57849,-1.01868,0.29390,0.17529,0.51375,0.82304,,,0.95065,0.28638,-0.11939,0.00088,
4.03125,0.37282,-0.80265,0.25872,0.17383,0.52108,0.82546,,,0.95063,0.28640,-0.11945,0.00088,
4.03906,0.50993,-0.76665,0.29390,0.18013,0.51473,0.83030,,,0.95062,0.28643,-0.11950,0.00089,
4.04688,0.44138,-0.76665,0.32908,0.18110,0.51473,0.82643,,,0.95060,0.28646,-0.11956,0.00090,
4.05469,0.44138,-0.87466,0.29390,0.17432,0.51619,0.82449,,,0.95059,0.28648,-0.11962,0.00091,
4.06250,0.33854,-0.83866,0.29390,0.17722,0.51326,0.82594,,,0.95057,0.28650,-0.11968,0.00091,
4.07031,0.50993,-0.80265,0.32908,0.17626,0.50886,0.83223,,,0.95056,0.28653,-0.11974,0.00092,
4.07813,0.33854,-0.83866,0.25872,0.17577,0.50691,0.82304,,,0.95054,0.28655,-0.11980,0.00093,
4.08594,0.44138,-0.83866,0.36426,0.17626,0.51375,0.82981,,,0.95053,0.28658,-0.11986,0.00094,
4.09375,0.37282,-0.80265,0.25872,0.17480,0.51375,0.82788,,,0.95052,0.28660,-0.11992,0.00094,
4.10156,0.33854,-0.98267,0.32908,0.17916,0.51570,0.83175,,,0.95050,0.28662,-0.11999,0.00095,
4.10938,0.37282,-0.91066,0.39944,0.17335,0.51424,0.82740,,,0.95049,0.28664,-0.12005,0.00096,
4.11719,0.50993,-0.76665,0.08283,0.17674,0.51033,0.83030,,,0.95047,0.28667,-0.12011,0.00095,
4.12500,0.47565,-0.83866,0.15319,0.17286,0.51961,0.82933,,,0.95045,0.28670,-0.12016,0.00095,
4.13281,0.37282,-0.76665,0.22354,0.18062,0.51570,0.82256,,,0.95044,0.28673,-0.12022,0.00095,
4.14063,0.54421,-0.76665,0.08283,0.17771,0.51326,0.83271,,,0.95042,0.28676,-0.12027,0.00095,
4.14844,0.44138,-0.58662,0.04765,0.17674,0.50984,0.82401,,,0.95041,0.28679,-0.12031,0.00094,
4.15625,0.47565,-0.51461,0.08283,0.16995,0.52450,0.83513,,,0.95040,0.28682,-0.12034,0.00094,
4.16406,0.40710,-0.69464,0.18836,0.17189,0.51863,0.82594,,,0.95038,0.28684,-0.12039,0.00094,
4.17188,0.33854,-0.69464,0.15319,0.17432,0.51131,0.82740,,,0.95037,0.28686,-0.12044,0.00094,
4.17969,0.30427,-0.83866,0.08283,0.17819,0.51033,0.82643,,,0.95036,0.28688,-0.12049,0.00093,
4.18750,0.40710,-0.65863,0.08283,0.17238,0.51180,0.82885,,,0.95034,0.28691,-0.12054,0.00093,
4.19531,0.50993,-0.69464,0.15319,0.17965,0.51326,0.82933,,,0.95033,0.28694,-0.12059,0.00093,
4.20313,0.37282,-0.73064,0.18836,0.18110,0.51619,0.82594,,,0.95031,0.28696,-0.12064,0.00093,
4.21094,0.33854,-0.62263,0.15319,0.17819,0.51180,0.82691,,,0.95030,0.28698,-0.12068,0.00093,
4.21875,0.37282,-0.62263,0.32908,0.17529,0.50789,0.82498,,,0.95029,0.28701,-0.12073,0.00094,
4.22656,0.44138,-0.76665,0.15319,0.17432,0.51180,0.83078,,,0.95028,0.28703,-0.12078,0.00094,
4.23438,0.47565,-0.65863,0.08283,0.17868,0.51473,0.82643,,,0.95026,0.28706,-0.12082,0.00094,
4.24219,0.30427,-0.58662,0.11801,0.17626,0.51277,0.82933,,,0.95025,0.28708,-0.12086,0.00094,
4.25000,0.37282,-0.80265,0.22354,0.18110,0.52108,0.82643,,,0.95024,0.28710,-0.12092,0.00094,
4.25781,0.30427,-0.83866,0.29390,0.17965,0.51424,0.82691,,,0.95022,0.28712,-0.12098,0.00094,
4.26563,0.33854,-0.76665,0.25872,0.18062,0.52156,0.82885,,,0.95021,0.28714,-0.12103,0.00095,
4.27344,0.57849,-0.76665,0.08283,0.17432,0.51912,0.83223,,,0.95019,0.28718,-0.12109,0.00094,
4.28125,0.50993,-0.65863,0.22354,0.18207,0.52108,0.82788,,,0.95018,0.28721,-0.12113,0.00095,
4.28906,0.44138,-0.65863,0.29390,0.16850,0.51766,0.83368,,,0.95016,0.28724,-0.12118,0.00096,
4.29688,0.47565,-0.94667,0.15319,0.18110,0.50447,0.82208,,,0.95015,0.28726,-0.12125,0.00095,
4.30469,0.47565,-0.80265,0.18836,0.18547,0.52254,0.82498,,,0.95013,0.28729,-0.12130,0.00095,
4.31250,0.50993,-0.76665,0.18836,0.18159,0.51326,0.82933,,,0.95011,0.28733,-0.12135,0.00096,
4.32031,0.44138,-0.65863,0.18836,0.16850,0.51131,0.82208,,,0.95010,0.28735,-0.12140,0.00096,
4.32813,0.40710,-0.65863,0.32908,0.17432,0.50984,0.82933,,,0.95009,0.28738,-0.12145,0.00097,
4.33594,0.40710,-0.69464,0.18836,0.17965,0.51326,0.82304,,,0.95007,0.28740,-0.12150,0.00097,
4.34375,0.61277,-0.73064,0.18836,0.17238,0.51082,0.83175,,,0.95005,0.28744,-0.12155,0.00098,
4.35156,0.47565,-0.44260,0.08283,0.17383,0.51228,0.82401,,,0.95004,0.28747,-0.12158,0.00098,
4.35938,0.44138,-0.58662,0.08283,0.16850,0.51668,0.82836,,,0.95003,0.28750,-0.12162,0.00097,
4.36719,0.40710,-0.58662,0.22354,0.17529,0.50740,0.82643,,,0.95002,0.28752,-0.12166,0.00098,
4.37500,0.50993,-0.80265,0.25872,0.17722,0.51424,0.83126,,,0.95000,0.28755,-0.12172,0.00098,
4.38281,0.30427,-0.80265,0.29390,0.18256,0.51815,0.82691,,,0.94999,0.28757,-0.12178,0.00099,
4.39063,0.47565,-0.83866,0.39944,0.18062,0.51961,0.83417,,,0.94997,0.28760,-0.12184,0.00100,
4.39844,0.50993,-0.65863,0.39944,0.16414,0.51815,0.83417,,,0.94995,0.28763,-0.12189,0.00102,
4.40625,0.40710,-0.65863,0.29390,0.17916,0.52010,0.82788,,,0.94994,0.28765,-0.12194,0.00103,
4.41406,0.33854,-0.80265,0.22354,0.17577,0.50984,0.82594,,,0.94993,0.28767,-0.12199,0.00103,
4.42188,0.44138,-0.87466,0.36426,0.17771,0.51228,0.82546,,,0.94991,0.28770,-0.12206,0.00104,
4.42969,0.50993,-0.87466,0.15319,0.18207,0.51521,0.82933,,,0.94989,0.28773,-0.12212,0.00104,
4.43750,0.47565,-0.76665,0.18836,0.17432,0.51180,0.82304,,,0.94988,0.28776,-0.12217,0.00104,
4.44531,0.47565,-0.55062,0.15319,0.18013,0.51863,0.82063,,,0.94986,0.28779,-0.12221,0.00104,
4.45313,0.47565,-0.69464,0.15319,0.17674,0.51521,0.82256,,,0.94985,0.28782,-0.12226,0.00104,
4.46094,0.40710,-0.83866,0.08283,0.17674,0.51521,0.83030,,,0.94983,0.28784,-0.12231,0.00104,
4.46875,0.47565,-0.73064,0.15319,0.17868,0.50691,0.82353,,,0.94982,0.28787,-0.12236,0.00104,
4.47656,0.37282,-0.62263,0.18836,0.17529,0.51424,0.82691,,,0.94981,0.28789,-0.12241,0.00104,
4.48438,0.33854,-0.87466,0.18836,0.17819,0.51912,0.83223,,,0.94979,0.28792,-0.12247,0.00104,
4.49219,0.40710,-0.83866,0.11801,0.17965,0.51277,0.83126,,,0.94978,0.28794,-0.12252,0.00103,
4.50000,0.33854,-0.73064,0.08283,0.18401,0.51912,0.82546,,,0.94976,0.28796,-0.12257,0.00102,
4.50781,0.33854,-0.51461,0.01247,0.17335,0.51473,0.82643,,,0.94975,0.28798,-0.12260,0.00102,
4.51563,0.44138,-0.65863,-0.02271,0.17529,0.51570,0.83078,,,0.94974,0.28801,-0.12265,0.00101,
4.52344,0.26999,-0.62263,0.08283,0.18256,0.51668,0.83078,,,0.94973,0.28803,-0.12269,0.00100,
4.53125,0.33854,-0.80265,0.04765,0.17674,0.51473,0.82788,,,0.94972,0.28805,-0.12274,0.00099,
4.53906,0.44138,-0.55062,0.08283,0.18692,0.51815,0.82643,,,0.94970,0.28808,-0.12278,0.00099,
4.54688,0.44138,-0.40660,0.04765,0.16414,0.51228,0.82498,,,0.94969,0.28811,-0.12281,0.00099,
4.55469,0.26999,-0.76665,0.08283,0.17771,0.50935,0.82159,,,0.94968,0.28812,-0.12286,0.00098,
4.56250,0.61277,-0.65863,0.08283,0.17529,0.51668,0.83368,,,0.94966,0.28816,-0.12290,0.00098,
4.57031,0.50993,-0.55062,0.15319,0.17044,0.51375,0.82643,,,0.94965,0.28819,-0.12294,0.00098,
4.57813,0.47565,-0.65863,0.11801,0.16898,0.51521,0.82353,,,0.94963,0.28822,-0.12298,0.00098,
4.58594,0.30427,-0.73064,0.18836,0.17819,0.50935,0.82208,,,0.94962,0.28824,-0.12304,0.00098,
4.59375,0.47565,-0.73064,0.15319,0.17238,0.51277,0.83078,,,0.94960,0.28827,-0.12309,0.00098,
4.60156,0.30427,-0.73064,0.18836,0.17771,0.52108,0.82933,,,0.94959,0.28829,-0.12314,0.00098,
4.60938,0.26999,-0.80265,0.22354,0.17577,0.51473,0.81918,,,0.94958,0.28831,-0.12319,0.00098,
4.61719,0.44138,-0.80265,0.18836,0.16026,0.51668,0.83030,,,0.94956,0.28833,-0.12325,0.00098,
4.62500,0.40710,-0.76665,0.25872,0.17432,0.51863,0.82256,,,0.94955,0.28836,-0.12330,0.00099,
4.63281,0.40710,-0.76665,0.15319,0.16947,0.51912,0.83368,,,0.94954,0.28838,-0.12336,0.00099,
4.64063,0.26999,-0.65863,0.29390,0.17868,0.52059,0.82836,,,0.94952,0.28840,-0.12340,0.00100,
4.64844,0.37282,-0.80265,0.29390,0.17432,0.51375,0.82981,,,0.94951,0.28842,-0.12346,0.00100,
4.65625,0.57849,-0.94667,0.22354,0.17965,0.51033,0.82788,,,0.94949,0.28845,-0.12353,0.00100,
4.66406,0.44138,-0.55062,0.29390,0.17092,0.51766,0.83368,,,0.94948,0.28848,-0.12357,0.00101,
4.67188,0.37282,-0.65863,0.15319,0.17819,0.51668,0.83175,,,0.94947,0.28850,-0.12361,0.00101,
4.67969,0.50993,-0.65863,0.18836,0.17771,0.51375,0.82740,,,0.94945,0.28853,-0.12366,0.00102,
4.68750,0.40710,-0.73064,0.08283,0.17577,0.51570,0.82111,,,0.94944,0.28856,-0.12371,0.00101,
4.69531,0.57849,-0.55062,0.08283,0.16995,0.51424,0.83223,,,0.94942,0.28860,-0.12375,0.00101,
4.70313,0.50993,-0.69464,0.11801,0.17529,0.51375,0.82691,,,0.94940,0.28863,-0.12379,0.00101,
4.71094,0.57849,-0.58662,0.08283,0.18110,0.51668,0.82836,,,0.94939,0.28867,-0.12383,0.00101,
4.71875,0.44138,-0.51461,0.11801,0.17916,0.51619,0.82836,,,0.94937,0.28869,-0.12387,0.00101,
4.72656,0.50993,-0.47861,0.04765,0.17771,0.51521,0.82449,,,0.94936,0.28873,-0.12390,0.00101,
4.73438,0.50993,-0.62263,0.15319,0.17771,0.51228,0.83030,,,0.94935,0.28876,-0.12394,0.00101,
4.74219,0.50993,-0.76665,-0.05789,0.17965,0.51277,0.82546,,,0.94933,0.28879,-0.12399,0.00100,
4.75000,0.54421,-0.58662,0.04765,0.17432,0.51668,0.82449,,,0.94931,0.28883,-0.12403,0.00099,
4.75781,0.54421,-0.58662,0.15319,0.17626,0.51717,0.82353,,,0.94930,0.28886,-0.12407,0.00099,
4.76563,0.47565,-0.76665,0.11801,0.16607,0.51521,0.83271,,,0.94928,0.28889,-0.12412,0.00099,
4.77344,0.44138,-0.62263,0.25872,0.18450,0.51228,0.82063,,,0.94927,0.28892,-0.12417,0.00100,
4.78125,0.50993,-0.69464,0.11801,0.18062,0.51521,0.82643,,,0.94925,0.28895,-0.12422,0.00100,
4.78906,0.57849,-0.69464,0.15319,0.17383,0.51570,0.82401,,,0.94923,0.28898,-0.12426,0.00100,
4.79688,0.54421,-0.51461,0.08283,0.17868,0.51570,0.83078,,,0.94922,0.28902,-0.12430,0.00100,
4.80469,0.40710,-0.55062,-0.02271,0.17480,0.51131,0.82885,,,0.94921,0.28905,-0.12433,0.00099,
4.81250,0.44138,-0.51461,0.01247,0.17722,0.51326,0.82836,,,0.94919,0.28907,-0.12437,0.00098,
4.82031,0.54421,-0.55062,0.04765,0.17529,0.51375,0.82885,,,0.94918,0.28911,-0.12440,0.00098,
4.82813,0.50993,-0.58662,-0.05789,0.17819,0.51912,0.82594,,,0.94916,0.28914,-0.12444,0.00097,
4.83594,0.50993,-0.47861,-0.02271,0.16995,0.51766,0.82788,,,0.94915,0.28917,-0.12447,0.00096,
4.84375,0.40710,-0.40660,0.04765,0.18159,0.51326,0.82111,,,0.94914,0.28920,-0.12450,0.00096,
4.85156,0.44138,-0.33459,0.11801,0.17189,0.51082,0.82885,,,0.94913,0.28923,-0.12452,0.00097,
4.85938,0.44138,-0.58662,0.08283,0.17965,0.51766,0.82788,,,0.94911,0.28926,-0.12456,0.00096,
4.86719,0.57849,-0.58662,0.04765,0.17529,0.52156,0.83271,,,0.94910,0.28929,-0.12460,0.00096,
4.87500,0.54421,-0.37059,0.01247,0.15977,0.51717,0.83368,,,0.94908,0.28933,-0.12462,0.00096,
4.88281,0.71560,-0.40660,-0.12824,0.17674,0.51668,0.82449,,,0.94906,0.28938,-0.12465,0.00095,
4.89063,0.57849,-0.40660,-0.09307,0.17335,0.51131,0.82594,,,0.94905,0.28941,-0.12467,0.00094,
4.89844,0.61277,-0.33459,-0.16342,0.18110,0.51424,0.82836,,,0.94903,0.28945,-0.12469,0.00093,
4.90625,0.68132,-0.47861,-0.26896,0.17529,0.51619,0.82836,,,0.94902,0.28950,-0.12472,0.00091,
4.91406,0.61277,-0.29858,-0.05789,0.17286,0.51815,0.82643,,,0.94900,0.28954,-0.12473,0.00090,
4.92188,0.57849,-0.44260,-0.23378,0.16462,0.51961,0.83368,,,0.94899,0.28958,-0.12476,0.00088,
4.92969,0.47565,-0.40660,-0.02271,0.17868,0.51570,0.82885,,,0.94897,0.28961,-0.12478,0.00088,
4.93750,0.47565,-0.51461,0.01247,0.16414,0.51326,0.83368,,,0.94896,0.28964,-0.12482,0.00087,
4.94531,0.61277,-0.65863,-0.09307,0.17529,0.51912,0.82885,,,0.94894,0.28968,-0.12486,0.00086,
4.95313,0.44138,-0.44260,0.01247,0.17432,0.52596,0.83368,,,0.94893,0.28971,-0.12489,0.00085,
4.96094,0.57849,-0.65863,-0.02271,0.16462,0.51521,0.83368,,,0.94891,0.28975,-0.12493,0.00084,
4.96875,0.44138,-0.65863,0.01247,0.17092,0.51619,0.82498,,,0.94890,0.28978,-0.12497,0.00084,
4.97656,0.47565,-0.76665,0.15319,0.17626,0.51521,0.82063,,,0.94888,0.28981,-0.12502,0.00083,
4.98438,0.37282,-0.65863,0.22354,0.17286,0.51619,0.82740,,,0.94887,0.28983,-0.12507,0.00084,
4.99219,0.47565,-0.98267,0.25872,0.18159,0.51668,0.82836,,,0.94885,0.28986,-0.12514,0.00084,
5.00000,0.37282,-0.80265,0.11801,0.17674,0.51228,0.83030,,,0.94884,0.28988,-0.12519,0.00084,
5.00781,0.40710,-0.83866,0.18836,0.17238,0.51424,0.82836,1021.873,25.2,0.94882,0.28991,-0.12525,0.00083,
5.01563,0.50993,-0.87466,0.11801,0.17626,0.51863,0.82594,,,0.94881,0.28994,-0.12531,0.00083,
5.02344,0.47565,-0.98267,0.15319,0.17771,0.51961,0.82836,,,0.94879,0.28997,-0.12538,0.00082,
5.03125,0.33854,-0.76665,0.22354,0.17577,0.51326,0.82546,,,0.94878,0.28999,-0.12543,0.00083,
5.03906,0.40710,-0.80265,0.11801,0.17189,0.51424,0.83030,,,0.94876,0.29001,-0.12548,0.00082,
5.04688,0.44138,-0.87466,0.25872,0.17529,0.51473,0.82498,,,0.94874,0.29004,-0.12555,0.00082,
5.05469,0.33854,-0.87466,0.29390,0.18013,0.51619,0.82498,,,0.94873,0.29006,-0.12561,0.00083,
5.06250,0.30427,-1.01868,0.29390,0.17965,0.51521,0.82981,,,0.94872,0.29008,-0.12568,0.00083,
5.07031,0.37282,-0.83866,0.32908,0.17529,0.51277,0.82353,,,0.94870,0.29010,-0.12574,0.00084,
5.07813,0.26999,-0.69464,0.29390,0.17141,0.51815,0.83126,,,0.94869,0.29011,-0.12579,0.00085,
5.08594,0.23571,-0.80265,0.39944,0.16801,0.51228,0.82401,,,0.94868,0.29012,-0.12585,0.00086,
5.09375,0.26999,-1.01868,0.43462,0.17238,0.51473,0.82788,,,0.94866,0.29014,-0.12593,0.00087,
5.10156,0.33854,-0.91066,0.43462,0.17238,0.51668,0.82208,,,0.94865,0.29016,-0.12599,0.00088,
5.10938,0.09860,-1.01868,0.46979,0.17335,0.51424,0.82014,,,0.94864,0.29016,-0.12607,0.00089,
5.11719,0.26999,-0.94667,0.36426,0.16317,0.51228,0.83562,,,0.94862,0.29017,-0.12614,0.00090,
5.12500,0.30427,-1.12669,0.46979,0.16898,0.51473,0.82788,,,0.94861,0.29019,-0.12622,0.00091,
5.13281,0.40710,-1.12669,0.50497,0.18159,0.51717,0.82643,,,0.94859,0.29021,-0.12630,0.00092,
5.14063,0.26999,-1.01868,0.50497,0.18110,0.51912,0.82836,,,0.94858,0.29022,-0.12638,0.00094,
5.14844,0.23571,-0.87466,0.43462,0.17577,0.51619,0.82546,,,0.94857,0.29023,-0.12644,0.00095,
5.15625,0.30427,-1.05468,0.32908,0.17286,0.51277,0.82788,,,0.94855,0.29025,-0.12652,0.00095,
5.16406,0.37282,-1.01868,0.32908,0.17819,0.51424,0.82546,,,0.94853,0.29027,-0.12659,0.00096,
5.17188,0.33854,-0.76665,0.32908,0.18110,0.51863,0.82788,,,0.94852,0.29029,-0.12664,0.00097,
5.17969,0.37282,-0.87466,0.32908,0.17674,0.50984,0.82981,,,0.94851,0.29031,-0.12671,0.00097,
5.18750,0.44138,-0.76665,0.22354,0.18207,0.50935,0.82353,,,0.94849,0.29034,-0.12676,0.00098,
5.19531,0.44138,-0.83866,0.22354,0.17383,0.51131,0.82594,,,0.94847,0.29037,-0.12682,0.00098,
5.20313,0.40710,-0.73064,0.22354,0.17771,0.50984,0.82885,,,0.94846,0.29039,-0.12687,0.00098,
5.21094,0.37282,-0.91066,0.25872,0.17383,0.51180,0.82498,,,0.94844,0.29041,-0.12694,0.00098,
5.21875,0.44138,-0.80265,0.18836,0.17480,0.51473,0.83175,,,0.94843,0.29044,-0.12699,0.00098,
5.22656,0.57849,-0.73064,0.22354,0.17529,0.51619,0.82885,,,0.94841,0.29047,-0.12704,0.00099,
5.23438,0.57849,-0.73064,0.04765,0.18741,0.51668,0.82256,,,0.94839,0.29051,-0.12709,0.00098,
5.24219,0.50993,-0.58662,0.15319,0.16801,0.51570,0.82401,,,0.94838,0.29054,-0.12713,0.00099,
5.25000,0.47565,-0.73064,0.11801,0.17238,0.51815,0.82498,,,0.94836,0.29057,-0.12718,0.00098,
5.25781,0.57849,-0.51461,0.04765,0.17141,0.51277,0.82111,,,0.94835,0.29061,-0.12722,0.00098,
5.26563,0.50993,-0.58662,0.01247,0.17916,0.51912,0.82740,,,0.94833,0.29064,-0.12725,0.00097,
5.27344,0.54421,-0.51461,0.04765,0.18159,0.51521,0.82691,,,0.94832,0.29068,-0.12729,0.00097,
5.28125,0.50993,-0.69464,0.04765,0.17529,0.51033,0.82304,,,0.94830,0.29071,-0.12733,0.00097,
5.28906,0.57849,-0.47861,-0.09307,0.17480,0.51326,0.82981,,,0.94828,0.29075,-0.12736,0.00096,
5.29688,0.54421,-0.44260,-0.02271,0.17529,0.51180,0.82836,,,0.94827,0.29078,-0.12739,0.00095,
5.30469,0.50993,-0.33459,-0.12824,0.17529,0.51521,0.82788,,,0.94826,0.29082,-0.12741,0.00094,
5.31250,0.47565,-0.33459,-0.23378,0.16704,0.51521,0.83368,,,0.94824,0.29085,-0.12743,0.00092,
5.32031,0.44138,-0.47861,-0.02271,0.18353,0.51815,0.82449,,,0.94823,0.29088,-0.12746,0.00091,
5.32813,0.57849,-0.65863,0.11801,0.16510,0.51766,0.83465,,,0.94821,0.29092,-0.12750,0.00091,
5.33594,0.47565,-0.69464,0.08283,0.18062,0.51131,0.82643,,,0.94820,0.29095,-0.12755,0.00091,
5.34375,0.37282,-0.51461,0.11801,0.17432,0.51375,0.83030,,,0.94819,0.29097,-0.12758,0.00091,
5.35156,0.40710,-0.62263,0.08283,0.17577,0.52596,0.83368,,,0.94817,0.29099,-0.12763,0.00091,
5.35938,0.40710,-0.47861,0.15319,0.17577,0.51815,0.83078,,,0.94816,0.29102,-0.12766,0.00091,
5.36719,0.37282,-0.62263,0.01247,0.16656,0.51082,0.82159,,,0.94815,0.29104,-0.12770,0.00090,
5.37500,0.40710,-0.73064,0.22354,0.17916,0.51619,0.82788,,,0.94813,0.29107,-0.12775,0.00091,
5.38281,0.30427,-0.65863,0.15319,0.18062,0.51570,0.82498,,,0.94812,0.29109,-0.12780,0.00091,
5.39063,0.26999,-0.69464,0.15319,0.17868,0.52205,0.82788,,,0.94811,0.29110,-0.12784,0.00090,
5.39844,0.33854,-0.73064,0.18836,0.16850,0.51961,0.83707,,,0.94810,0.29112,-0.12790,0.00090,
5.40625,0.40710,-0.80265,0.22354,0.17868,0.51375,0.82691,,,0.94808,0.29115,-0.12795,0.00091,
5.41406,0.23571,-0.69464,0.25872,0.16850,0.51180,0.83078,,,0.94807,0.29116,-0.12800,0.00091,
5.42188,0.37282,-0.91066,0.22354,0.17819,0.51619,0.82643,,,0.94806,0.29118,-0.12806,0.00091,
5.42969,0.44138,-0.87466,0.22354,0.17577,0.51717,0.82788,,,0.94804,0.29121,-0.12813,0.00091,
5.43750,0.30427,-0.69464,0.32908,0.17722,0.51473,0.82449,,,0.94803,0.29122,-0.12818,0.00092,
5.44531,0.37282,-0.73064,0.43462,0.17819,0.51326,0.82740,,,0.94801,0.29125,-0.12823,0.00094,
5.45313,0.40710,-0.76665,0.11801,0.17771,0.50740,0.82353,,,0.94800,0.29127,-0.12828,0.00094,
5.46094,0.30427,-0.83866,0.22354,0.17626,0.51815,0.82788,,,0.94799,0.29129,-0.12834,0.00094,
5.46875,0.37282,-0.69464,0.25872,0.17432,0.51033,0.82594,,,0.94797,0.29131,-0.12839,0.00094,
5.47656,0.44138,-0.69464,0.11801,0.16607,0.51131,0.82836,,,0.94796,0.29134,-0.12844,0.00094,
5.48438,0.50993,-1.05468,0.18836,0.16850,0.50886,0.82740,,,0.94794,0.29137,-0.12851,0.00094,
5.49219,0.47565,-0.76665,0.22354,0.17868,0.52108,0.82401,,,0.94792,0.29140,-0.12857,0.00094,
5.50000,0.54421,-0.80265,0.22354,0.17480,0.51424,0.82885,,,0.94790,0.29143,-0.12862,0.00094,
5.50781,0.50993,-0.83866,0.18836,0.18062,0.51326,0.83223,,,0.94789,0.29146,-0.12868,0.00094,
5.51563,0.54421,-1.01868,0.29390,0.17916,0.51717,0.82401,,,0.94787,0.29149,-0.12875,0.00095,
5.52344,0.44138,-0.62263,0.36426,0.17044,0.51619,0.82885,,,0.94785,0.29152,-0.12880,0.00096,
5.53125,0.44138,-0.73064,0.29390,0.17674,0.51521,0.82740,,,0.94784,0.29155,-0.12885,0.00097,
5.53906,0.40710,-0.76665,0.32908,0.18062,0.51424,0.82933,,,0.94782,0.29157,-0.12891,0.00098,
5.54688,0.47565,-0.94667,0.32908,0.17771,0.51619,0.82304,,,0.94781,0.29160,-0.12897,0.00098,
5.55469,0.37282,-0.87466,0.32908,0.17092,0.51668,0.82208,,,0.94779,0.29162,-0.12904,0.00099,
5.56250,0.30427,-0.87466,0.29390,0.17771,0.51619,0.82788,,,0.94778,0.29164,-0.12910,0.00100,
5.57031,0.40710,-0.94667,0.15319,0.17674,0.51228,0.82836,,,0.94776,0.29166,-0.12916,0.00099,
5.57813,0.37282,-0.80265,0.32908,0.18110,0.51570,0.82498,,,0.94775,0.29168,-0.12922,0.00100,
5.58594,0.40710,-0.87466,0.25872,0.16559,0.51570,0.83368,,,0.94773,0.29171,-0.12928,0.00100,
5.59375,0.33854,-0.87466,0.32908,0.17577,0.51717,0.82691,,,0.94772,0.29172,-0.12935,0.00101,
5.60156,0.23571,-0.76665,0.25872,0.17092,0.51570,0.82546,,,0.94770,0.29174,-0.12940,0.00101,
5.60938,0.33854,-0.83866,0.36426,0.17674,0.51619,0.82449,,,0.94769,0.29176,-0.12946,0.00102,
5.61719,0.33854,-0.94667,0.32908,0.16801,0.51375,0.82740,,,0.94768,0.29178,-0.12953,0.00103,
5.62500,0.13288,-0.91066,0.36426,0.17238,0.51375,0.82304,,,0.94766,0.29178,-0.12960,0.00103,
5.63281,0.26999,-1.05468,0.32908,0.17819,0.51668,0.83030,,,0.94765,0.29180,-0.12967,0.00104,
5.64063,0.23571,-0.83866,0.32908,0.16850,0.51570,0.82401,,,0.94764,0.29181,-0.12973,0.00104,
5.64844,0.33854,-0.76665,0.36426,0.16995,0.52254,0.83900,,,0.94762,0.29183,-0.12979,0.00105,
5.65625,0.20143,-0.87466,0.39944,0.17335,0.51766,0.82836,,,0.94761,0.29184,-0.12985,0.00106,
5.66406,0.33854,-0.94667,0.32908,0.18256,0.52059,0.82788,,,0.94760,0.29185,-0.12992,0.00107,
5.67188,0.13288,-0.94667,0.43462,0.16656,0.51668,0.83658,,,0.94759,0.29186,-0.12999,0.00108,
5.67969,-0.03851,-0.87466,0.50497,0.17626,0.51619,0.82836,,,0.94758,0.29185,-0.13006,0.00110,
5.68750,0.06432,-1.01868,0.43462,0.17189,0.51619,0.82643,,,0.94757,0.29185,-0.13013,0.00110,
5.69531,0.09860,-0.98267,0.36426,0.18353,0.51473,0.82594,,,0.94756,0.29186,-0.13020,0.00111,
5.70313,0.16715,-0.94667,0.39944,0.17722,0.51375,0.82981,,,0.94755,0.29186,-0.13027,0.00112,
5.71094,0.13288,-0.91066,0.54015,0.18062,0.51863,0.82498,,,0.94754,0.29187,-0.13034,0.00114,
5.71875,0.20143,-0.98267,0.57533,0.17092,0.50984,0.83078,,,0.94752,0.29187,-0.13041,0.00115,
5.72656,0.20143,-1.05468,0.54015,0.18159,0.51521,0.82643,,,0.94751,0.29188,-0.13049,0.00117,
5.73438,0.37282,-0.98267,0.46979,0.17480,0.51082,0.82498,,,0.94749,0.29190,-0.13057,0.00118,
5.74219,0.13288,-0.80265,0.46979,0.17480,0.51961,0.82498,,,0.94748,0.29191,-0.13063,0.00120,
5.75000,0.06432,-0.80265,0.50497,0.17529,0.51180,0.82643,,,0.94748,0.29191,-0.13069,0.00122,
5.75781,-0.00424,-0.91066,0.57533,0.17335,0.51277,0.82256,,,0.94747,0.29190,-0.13076,0.00124,
5.76563,-0.03851,-0.91066,0.43462,0.17965,0.51277,0.83078,,,0.94746,0.29190,-0.13083,0.00125,
5.77344,-0.00424,-0.87466,0.50497,0.17286,0.51717,0.82788,,,0.94745,0.29189,-0.13089,0.00126,
5.78125,-0.10707,-1.05468,0.61051,0.16414,0.51326,0.83900,,,0.94744,0.29188,-0.13097,0.00128,
5.78906,-0.24418,-1.27071,0.43462,0.18304,0.51228,0.82111,,,0.94744,0.29186,-0.13106,0.00128,
5.79688,-0.10707,-0.91066,0.61051,0.17819,0.51473,0.82159,,,0.94743,0.29185,-0.13113,0.00130,
5.80469,-0.03851,-1.12669,0.78640,0.15492,0.52352,0.83803,,,0.94742,0.29184,-0.13122,0.00133,
5.81250,-0.17562,-1.52274,0.96230,0.16220,0.52010,0.83465,,,0.94741,0.29182,-0.13134,0.00136,
5.82031,-0.17562,-1.84679,1.06783,0.19080,0.50984,0.82063,,,0.94740,0.29180,-0.13148,0.00139,
5.82813,-0.00424,-1.23471,0.85676,0.18450,0.51033,0.81918,,,0.94739,0.29179,-0.13158,0.00142,
5.83594,-0.00424,-1.12669,0.68087,0.17529,0.51961,0.83513,,,0.94738,0.29178,-0.13166,0.00144,
5.84375,-0.31274,-1.19870,0.71605,0.17722,0.50496,0.82594,,,0.94737,0.29176,-0.13175,0.00146,
5.85156,-0.27846,-1.23471,0.82158,0.17044,0.51766,0.83562,,,0.94737,0.29173,-0.13185,0.00149,
5.85938,-0.31274,-1.27071,0.82158,0.17286,0.51570,0.83320,,,0.94736,0.29170,-0.13195,0.00151,
5.86719,-0.51840,-1.48674,1.06783,0.16607,0.51424,0.82594,,,0.94736,0.29166,-0.13207,0.00155,
5.87500,-0.48413,-1.63076,1.17337,0.17965,0.51375,0.83030,,,0.94735,0.29162,-0.13219,0.00158,
5.88281,-0.65551,-1.70277,1.20855,0.17722,0.51131,0.82498,,,0.94735,0.29156,-0.13233,0.00162,
5.89063,-0.51840,-1.63076,0.92712,0.17577,0.50496,0.81966,,,0.94735,0.29152,-0.13245,0.00165,
5.89844,-0.31274,-1.01868,0.15319,0.19662,0.49665,0.81676,,,0.94734,0.29150,-0.13252,0.00163,
5.90625,-0.38129,-0.44260,-0.48003,0.18013,0.49177,0.82208,,,0.94735,0.29148,-0.13254,0.00159,
5.91406,-0.31274,0.34950,-1.28914,0.18886,0.49861,0.81386,,,0.94736,0.29147,-0.13249,0.00151,
5.92188,-0.10707,0.67354,-1.46504,0.18304,0.50838,0.82546,,,0.94737,0.29148,-0.13242,0.00143,
5.92969,-0.58696,1.39364,-1.81683,0.16607,0.50154,0.83658,,,0.94739,0.29146,-0.13229,0.00133,
5.93750,-0.38129,1.46565,-1.85200,0.17432,0.49274,0.82208,,,0.94741,0.29145,-0.13216,0.00124,
5.94531,-0.24418,1.71768,-2.23897,0.19468,0.51815,0.83417,,,0.94743,0.29145,-0.13201,0.00113,
5.95313,-0.41557,3.44590,-3.71648,0.24073,0.49030,0.80370,,,0.94747,0.29146,-0.13171,0.00095,
5.96094,-0.38129,7.55044,-6.81221,0.26594,0.47956,0.79403,,,0.94755,0.29150,-0.13109,0.00066,
5.96875,-0.41557,10.14278,-8.95811,0.26303,0.47174,0.79983,,,0.94765,0.29155,-0.13025,0.00028,
5.97656,-0.75835,15.07542,-12.72224,0.22280,0.48639,0.81192,,,0.94779,0.29161,-0.12903,-0.00025,
5.98438,-0.55268,17.01967,-14.58672,0.18983,0.51766,0.83852,,,0.94795,0.29170,-0.12764,-0.00086,
5.99219,-0.34701,17.30771,-14.93850,0.18401,0.55087,0.83562,,,0.94811,0.29181,-0.12622,-0.00149,
6.00000,-0.07279,17.41572,-15.95869,0.19662,0.52401,0.86124,,,0.94826,0.29195,-0.12478,-0.00217,
6.00781,-0.03851,18.85591,-16.97887,0.17480,0.49812,0.82304,1021.818,25.2,0.94842,0.29209,-0.12322,-0.00289,
6.01563,0.81843,18.92792,-17.71763,0.21164,0.53329,0.84239,,,0.94855,0.29229,-0.12164,-0.00366,
6.02344,0.92127,20.54813,-19.44139,0.20146,0.51277,0.84625,,,0.94870,0.29252,-0.11993,-0.00450,
6.03125,0.98982,21.16021,-20.56711,0.18498,0.51717,0.86511,,,0.94884,0.29276,-0.11815,-0.00540,
6.03906,1.22977,22.96045,-23.55730,0.25770,0.48884,0.82594,,,0.94899,0.29304,-0.11619,-0.00645,
6.04688,2.97794,27.82108,-28.30644,0.28582,0.45709,0.83030,,,0.94914,0.29346,-0.11383,-0.00770,
6.05469,4.52044,30.80947,-31.78913,0.30279,0.44194,0.85012,,,0.94927,0.29402,-0.11120,-0.00911,
6.06250,9.14795,38.08242,-40.30239,0.32848,0.44634,0.89026,,,0.94934,0.29494,-0.10793,-0.01088,
6.07031,20.66531,49.60392,-56.97713,0.61693,0.39212,0.90621,,,0.94923,0.29672,-0.10359,-0.01342,
6.07813,27.96650,62.92566,-66.47539,0.68577,0.43510,0.95844,,,0.94903,0.29906,-0.09820,-0.01625,
6.08594,41.64336,83.98840,-83.92406,0.43562,0.40580,0.91878,,,0.94862,0.30239,-0.09110,-0.01969,
6.09375,54.97745,90.36123,-109.53420,-0.62026,0.74040,1.10060,,,0.94785,0.30673,-0.08306,-0.02457,
6.10156,56.51995,52.91635,-125.18875,-0.13643,0.47027,0.82981,,,0.94671,0.31117,-0.07712,-0.03123,
6.10938,77.97789,-3.17896,-161.66913,0.23007,1.12923,1.08222,,,0.94462,0.31702,-0.07405,-0.04132,
6.11719,71.53366,-14.70046,-200.57684,1.15893,1.22693,0.90476,,,0.94233,0.32256,-0.07086,-0.05419,
6.12500,73.24755,2.65380,-217.35712,1.13178,1.34709,1.16201,,,0.93982,0.32829,-0.06617,-0.06773,
6.13281,63.40980,26.66893,-225.94073,1.92829,1.56935,1.71179,,,0.93735,0.33345,-0.05970,-0.08131,
6.14063,43.70004,52.66432,-226.50359,1.85218,1.29971,1.72678,,,0.93520,0.33742,-0.05142,-0.09440,
6.14844,17.78597,106.92339,-220.62874,1.30679,0.30028,0.97584,,,0.93361,0.33996,-0.03964,-0.10593,
6.15625,20.59676,97.05811,-188.61606,1.04549,1.36565,1.94003,,,0.93194,0.34245,-0.02924,-0.11562,
6.16406,-7.64820,29.51330,-129.16395,1.00088,0.90258,1.57592,,,0.93112,0.34244,-0.02429,-0.12314,
6.17188,-20.67378,-66.04315,-49.73030,1.60784,0.23239,0.96617,,,0.93106,0.34065,-0.02715,-0.12787,
6.17969,-7.51109,-79.29288,1.77141,2.17311,-0.37821,0.42557,,,0.93109,0.33947,-0.03216,-0.12961,
6.18750,10.79329,-57.47404,16.33542,2.05918,-0.46858,0.40671,,,0.93085,0.33960,-0.03628,-0.12988,
6.19531,42.08898,-26.36598,42.05109,1.35575,-0.27709,0.84915,,,0.93018,0.34193,-0.03931,-0.12772,
6.20313,44.65982,-46.16856,76.59664,0.92138,-0.17256,1.19731,,,0.92966,0.34415,-0.04441,-0.12381,
6.21094,38.18130,-66.83526,94.99513,0.87532,-0.18477,1.26403,,,0.92933,0.34570,-0.05120,-0.11924,
6.21875,18.74575,-96.86317,126.19870,0.83460,-0.28784,1.25630,,,0.92952,0.34564,-0.06046,-0.11345,
6.22656,0.61277,-102.65993,145.72291,0.78418,-0.35427,1.25436,,,0.93014,0.34426,-0.07040,-0.10663,
6.23438,-8.74509,-97.94331,151.38669,0.67559,-0.36697,1.24421,,,0.93091,0.34223,-0.08009,-0.09936,
6.24219,-27.76930,-88.22205,156.94494,0.37405,-0.33132,1.29692,,,0.93207,0.33899,-0.08916,-0.09160,
6.25000,-38.36116,-86.92588,158.03548,0.22667,-0.29419,1.32496,,,0.93334,0.33502,-0.09809,-0.08379,
6.25781,-61.49871,-91.24644,157.19119,0.00561,-0.23460,1.32013,,,0.93495,0.32950,-0.10712,-0.07628,
6.26563,-83.50510,-99.38350,152.23098,-0.10929,-0.13690,1.27564,,,0.93681,0.32252,-0.11643,-0.06941,
6.27344,-94.37118,-102.04785,147.90400,-0.16407,-0.11443,1.22197,,,0.93868,0.31480,-0.12574,-0.06295,
6.28125,-112.36706,-106.80047,136.68197,-0.27557,-0.01234,1.16104,,,0.94067,0.30595,-0.13501,-0.05746,
6.28906,-127.48359,-110.76098,123.98244,-0.37544,0.08926,1.08077,,,0.94270,0.29617,-0.14419,-0.05298,
6.29688,-133.85928,-112.74124,117.08740,-0.39580,0.14837,1.04596,,,0.94462,0.28597,-0.15330,-0.04905,
6.30469,-143.90269,-115.33358,102.55857,-0.45882,0.23288,0.94345,,,0.94647,0.27522,-0.16223,-0.04619,
6.31250,-147.19336,-118.32197,89.68314,-0.46318,0.33936,0.81918,,,0.94811,0.26433,-0.17106,-0.04425,
6.32031,-146.09647,-118.79003,84.19525,-0.42392,0.38235,0.73456,,,0.94952,0.25352,-0.17980,-0.04265,
6.32813,-137.45845,-113.38933,76.63182,-0.31629,0.43217,0.55129,,,0.95064,0.24333,-0.18804,-0.04133,
6.33594,-129.12893,-107.52056,74.97842,-0.26539,0.46295,0.47779,,,0.95154,0.23368,-0.19588,-0.03990,
6.34375,-103.52337,-92.14656,76.84289,-0.19509,0.59142,0.41252,,,0.95212,0.22568,-0.20278,-0.03777,
6.35156,-74.66141,-75.11634,86.58741,-0.16504,0.81856,0.39317,,,0.95241,0.21943,-0.20879,-0.03433,
6.35938,-60.12760,-64.67498,93.41209,-0.12819,0.92993,0.37770,,,0.95257,0.21404,-0.21424,-0.03009,
6.36719,-31.53987,-34.43103,105.37287,-0.13304,1.14193,0.35062,,,0.95271,0.21037,-0.21794,-0.02421,
6.37500,-3.46630,2.14973,114.02685,-0.20721,1.34465,0.34966,,,0.95295,0.20845,-0.21942,-0.01682,
6.38281,8.94229,20.08007,116.31347,-0.29254,1.47703,0.37238,,,0.95323,0.20732,-0.21977,-0.00885,
6.39063,27.89794,51.36815,116.52454,-0.40549,1.73250,0.45797,,,0.95364,0.20741,-0.21809,-0.00013,
6.39844,35.64474,73.54704,109.77022,-0.59893,1.91030,0.55903,,,0.95418,0.20809,-0.21484,0.00857,
6.40625,35.06201,79.27179,103.33250,-0.70364,1.93864,0.59384,,,0.95475,0.20881,-0.21112,0.01693,
6.41406,28.37783,78.29966,85.35615,-0.81175,2.01581,0.64703,,,0.95534,0.20933,-0.20720,0.02401,
6.42188,14.25535,66.99419,63.26389,-0.80932,1.97576,0.60400,,,0.95596,0.20926,-0.20371,0.02928,
6.42969,6.85134,59.93727,51.93633,-0.78412,1.91812,0.54936,,,0.95658,0.20886,-0.20052,0.03362,
6.43750,-3.87763,46.03946,31.81407,-0.67407,1.72761,0.35256,,,0.95718,0.20807,-0.19798,0.03629,
6.44531,-5.42014,40.56674,23.37117,-0.60474,1.62650,0.24956,,,0.95774,0.20730,-0.19567,0.03832,
6.45313,-0.41557,32.93375,10.81235,-0.48306,1.45407,0.09870,,,0.95816,0.20705,-0.19367,0.03948,
6.46094,12.13013,29.04524,5.11339,-0.38077,1.36663,0.05566,,,0.95835,0.20770,-0.19181,0.04038,
6.46875,19.19137,27.53304,5.04303,-0.33084,1.35637,0.07452,,,0.95842,0.20881,-0.19003,0.04135,
6.47656,30.91439,25.55279,9.89770,-0.26830,1.37884,0.13013,,,0.95828,0.21064,-0.18841,0.04276,
6.48438,38.52408,25.37276,17.53149,-0.25909,1.35539,0.13593,,,0.95800,0.21286,-0.18689,0.04477,
6.49219,41.78048,25.94884,20.45133,-0.27702,1.32218,0.10595,,,0.95765,0.21525,-0.18536,0.04701,
6.50000,49.35588,28.36115,20.41615,-0.15292,0.93042,0.05373,,,0.95721,0.21812,-0.18365,0.04938,
6.50781,88.84398,95.22187,-17.29548,-0.71237,0.48981,-0.58600,,,0.95710,0.22381,-0.17687,0.05078,
6.51563,133.81653,110.81190,-60.98751,-0.10250,-0.31129,-0.58648,,,0.95653,0.23288,-0.16823,0.05010,
6.52344,179.74886,53.85247,-111.50421,0.03906,0.22066,2.84812,,,0.95457,0.24567,-0.16232,0.04574,
6.53125,114.24387,67.49825,-100.45808,0.32315,1.23230,3.06716,,,0.95366,0.25399,-0.15588,0.04159,
6.53906,81.98840,51.80021,-87.09015,-0.04239,1.13998,1.52080,,,0.95300,0.26009,-0.15076,0.03770,
6.54688,117.80877,33.68985,-80.05440,-0.04917,2.04122,1.42989,,,0.95141,0.26846,-0.14684,0.03430,
6.55469,116.26626,29.11725,-70.27470,0.40314,2.64058,2.26497,,,0.94970,0.27663,-0.14338,0.03144,
6.56250,34.89063,32.06963,-28.23608,0.55003,1.43209,1.44633,,,0.94941,0.27910,-0.14070,0.03056,
6.57031,23.99027,19.54000,-6.21417,-0.10008,-0.18819,0.44443,,,0.94915,0.28067,-0.13926,0.03075,
6.57813,46.75076,15.90353,-11.27991,-0.09426,0.23678,1.03532,,,0.94843,0.28376,-0.13792,0.03077,
6.58594,27.34950,9.71072,-13.28510,-0.09911,1.06035,1.31481,,,0.94801,0.28563,-0.13698,0.03036,
6.59375,9.11368,-2.20683,-8.85258,0.37938,0.84689,0.75245,,,0.94783,0.28631,-0.13693,0.02983,
6.60156,12.40435,-2.53088,-1.67611,0.52676,0.84933,0.98551,,,0.94757,0.28713,-0.13703,0.02979,
6.60938,4.07483,1.14160,5.14857,0.24510,0.35353,0.82159,,,0.94749,0.28735,-0.13705,0.03018,
6.61719,5.37739,5.57018,-5.75685,0.44774,0.47760,0.77614,,,0.94745,0.28774,-0.13657,0.02997,
6.62500,4.55472,8.99063,-8.25454,0.52240,0.53329,0.70216,,,0.94746,0.28809,-0.13582,0.02965,
6.63281,3.73205,19.25196,-11.56134,0.21601,0.60363,0.79983,,,0.94759,0.28840,-0.13434,0.02932,
6.64063,-0.89546,19.17995,-13.53135,0.16220,0.54355,0.80177,,,0.94781,0.28843,-0.13283,0.02881,
6.64844,-0.48413,18.38785,-13.10921,0.18983,0.55185,0.87817,,,0.94801,0.28848,-0.13139,0.02832,
6.65625,-0.24418,16.37159,-10.33009,0.10354,0.43706,0.90525,,,0.94818,0.28852,-0.13013,0.02798,
6.66406,1.57255,13.81526,-9.83758,0.15056,0.50203,0.95215,,,0.94829,0.28868,-0.12904,0.02763,
6.67188,3.32072,12.62710,-9.06365,0.08996,0.58311,0.92459,,,0.94835,0.28895,-0.12804,0.02732,
6.67969,4.17766,8.19852,-6.84739,0.10063,0.51131,0.88059,,,0.94835,0.28927,-0.12736,0.02707,
6.68750,5.82300,7.80247,-6.07346,0.07009,0.51326,0.96859,,,0.94832,0.28968,-0.12673,0.02688,
6.69531,7.09128,4.59805,-4.13862,0.07106,0.47369,0.85399,,,0.94822,0.29017,-0.12633,0.02677,
6.70313,8.42812,0.92557,-2.41486,0.20437,0.49323,0.78968,,,0.94807,0.29073,-0.12621,0.02670,
6.71094,9.28506,3.37389,-2.52040,0.11226,0.55136,0.84432,,,0.94792,0.29135,-0.12593,0.02669,
6.71875,8.25673,0.16948,-2.23897,0.24655,0.48981,0.76067,,,0.94776,0.29190,-0.12585,0.02662,
6.72656,9.35362,1.71768,-2.55558,0.20922,0.44976,0.81918,,,0.94759,0.29252,-0.12568,0.02657,
6.73438,9.14795,2.43777,-3.36469,0.15832,0.45269,0.79983,,,0.94744,0.29314,-0.12543,0.02647,
6.74219,9.31934,0.67354,-4.31452,0.25188,0.50203,0.76212,,,0.94726,0.29377,-0.12529,0.02629,
6.75000,9.90207,2.65380,-4.87738,0.14329,0.57237,0.84142,,,0.94710,0.29445,-0.12500,0.02611,
6.75781,8.63379,0.85357,-4.63113,0.18547,0.53768,0.78484,,,0.94694,0.29505,-0.12484,0.02590,
6.76563,7.57117,1.57366,-4.80702,0.16559,0.50007,0.87140,,,0.94681,0.29557,-0.12462,0.02569,
6.77344,6.44000,0.42151,-4.52559,0.20049,0.52547,0.81627,,,0.94669,0.29603,-0.12449,0.02546,
6.78125,5.75445,0.67354,-5.05327,0.17480,0.52303,0.84867,,,0.94659,0.29644,-0.12434,0.02520,
6.78906,5.78872,1.50165,-4.31452,0.06136,0.58311,0.89848,,,0.94649,0.29685,-0.12414,0.02500,
6.79688,5.17172,-1.34272,-3.57576,0.15541,0.56015,0.82449,,,0.94638,0.29721,-0.12415,0.02478,
6.80469,5.61733,-1.70277,-2.06308,0.13553,0.49958,0.88107,,,0.94626,0.29760,-0.12421,0.02466,
6.81250,6.09722,-2.63889,-1.28914,0.12244,0.48395,0.84335,,,0.94611,0.29800,-0.12434,0.02458,
6.82031,6.61139,-3.61102,-1.42986,0.18159,0.51033,0.83658,,,0.94595,0.29845,-0.12453,0.02447,
6.82813,7.43406,-3.17896,-1.28914,0.11614,0.55625,0.83320,,,0.94577,0.29894,-0.12470,0.02438,
6.83594,7.09128,-4.25910,-0.76146,0.15299,0.53573,0.79693,,,0.94559,0.29941,-0.12495,0.02431,
6.84375,7.26267,-3.14296,-1.14843,0.12875,0.52156,0.84964,,,0.94542,0.29990,-0.12511,0.02423,
6.85156,7.36550,-2.53088,-1.18361,0.12875,0.48542,0.81821,,,0.94525,0.30039,-0.12524,0.02417,
6.85938,6.78278,-3.53901,-1.95754,0.24752,0.51228,0.78533,,,0.94508,0.30085,-0.12542,0.02402,
6.86719,7.22839,-0.44260,-2.48522,0.11226,0.56748,0.82643,,,0.94494,0.30133,-0.12538,0.02392,
6.87500,6.85134,-2.20683,-2.62594,0.22861,0.53817,0.79887,,,0.94478,0.30180,-0.12546,0.02376,
6.88281,7.15984,0.24149,-3.29433,0.10645,0.54013,0.86656,,,0.94464,0.30229,-0.12536,0.02362,
6.89063,5.99439,-1.01868,-3.54058,0.19322,0.52303,0.82643,,,0.94451,0.30271,-0.12535,0.02342,
6.89844,5.89156,-0.83866,-3.85719,0.18983,0.50935,0.81627,,,0.94439,0.30312,-0.12531,0.02320,
6.90625,6.64567,0.49352,-4.42005,0.10160,0.56602,0.80612,,,0.94427,0.30359,-0.12518,0.02298,
6.91406,7.60545,-2.42286,-3.71648,0.22910,0.54013,0.79210,,,0.94409,0.30411,-0.12524,0.02276,
6.92188,8.90801,-1.27071,-3.92755,0.15008,0.47467,0.87913,,,0.94390,0.30472,-0.12523,0.02256,
6.92969,8.56523,-2.27884,-3.50541,0.16268,0.47418,0.83126,,,0.94371,0.30530,-0.12529,0.02236,
6.93750,10.27912,-3.64702,-3.78684,0.25770,0.47760,0.81821,,,0.94347,0.30600,-0.12543,0.02213,
6.94531,12.47291,-1.34272,-3.71648,0.10402,0.55625,0.84093,,,0.94321,0.30684,-0.12542,0.02196,
6.95313,12.54146,-3.97106,-4.49041,0.22280,0.52840,0.80177,,,0.94292,0.30769,-0.12556,0.02170,
6.96094,13.67263,-2.78291,-4.31452,0.15056,0.52840,0.85109,,,0.94261,0.30861,-0.12563,0.02148,
6.96875,13.60407,-2.78291,-4.70148,0.16462,0.53036,0.82981,,,0.94231,0.30953,-0.12569,0.02124,
6.97656,13.53552,-3.10695,-4.80702,0.18837,0.52205,0.83223,,,0.94200,0.31044,-0.12577,0.02098,
6.98438,14.22108,-1.23471,-5.54577,0.09966,0.63685,0.80564,,,0.94170,0.31140,-0.12571,0.02072,
6.99219,14.01541,-4.00707,-5.08845,0.23055,0.55918,0.80467,,,0.94137,0.31235,-0.12584,0.02043,
7.00000,15.21513,-1.19870,-4.66631,0.10935,0.57481,0.85641,,,0.94104,0.31337,-0.12579,0.02023,
7.00781,14.63241,-2.17083,-3.15362,0.09869,0.51766,0.80854,1021.797,25.3,0.94072,0.31434,-0.12585,0.02011,
7.01563,15.96925,-1.63076,-3.75166,0.13699,0.53866,0.84432,,,0.94037,0.31540,-0.12585,0.01997,
7.02344,17.44320,-1.23471,-2.37969,0.08608,0.53964,0.81241,,,0.93998,0.31654,-0.12585,0.01994,
7.03125,19.73981,-3.79104,-1.88718,0.13893,0.53182,0.80225,,,0.93953,0.31782,-0.12603,0.01991,
7.03906,21.59082,-3.07095,-1.57057,0.08560,0.52596,0.84239,,,0.93903,0.31922,-0.12616,0.01992,
7.04688,24.40160,-5.77130,-0.72628,0.15589,0.50935,0.81434,,,0.93845,0.32080,-0.12648,0.01996,
7.05469,27.96650,-6.45539,-0.62075,0.16947,0.51473,0.80660,,,0.93778,0.32260,-0.12684,0.02002,
7.06250,30.36595,-5.62728,-0.40967,0.08948,0.58556,0.77372,,,0.93707,0.32455,-0.12715,0.02014,
7.07031,35.06201,-8.39964,0.78640,0.17674,0.53671,0.80709,,,0.93621,0.32680,-0.12765,0.02030,
7.07813,39.24391,-7.85957,1.06783,0.15589,0.52156,0.85447,,,0.93527,0.32930,-0.12812,0.02054,
7.08594,40.71786,-8.65167,1.63069,0.20631,0.52254,0.80225,,,0.93427,0.33189,-0.12865,0.02080,
7.09375,45.65387,-7.42751,1.27891,0.18110,0.53378,0.81918,,,0.93317,0.33480,-0.12909,0.02112,
7.10156,47.84766,-7.89558,1.70105,0.15929,0.54648,0.81337,,,0.93200,0.33784,-0.12956,0.02147,
7.10938,52.88650,-7.85957,1.52516,0.20243,0.56895,0.77759,,,0.93070,0.34119,-0.13002,0.02185,
7.11719,58.09674,-8.29163,2.05284,0.16947,0.54648,0.84093,,,0.92927,0.34487,-0.13050,0.02230,
7.12500,60.05057,-8.93971,1.80659,0.15056,0.51961,0.81579,,,0.92776,0.34867,-0.13102,0.02274,
7.13281,65.12370,-9.69581,0.99748,0.21407,0.55185,0.79355,,,0.92612,0.35279,-0.13155,0.02315,
7.14063,70.98521,-8.14761,0.36426,0.10790,0.62073,0.77324,,,0.92433,0.35728,-0.13196,0.02362,
7.14844,73.28183,-10.16387,-0.72628,0.21552,0.60412,0.74132,,,0.92244,0.36191,-0.13247,0.02398,
7.15625,79.52040,-10.09186,-0.72628,0.14523,0.60949,0.78484,,,0.92038,0.36693,-0.13295,0.02440,
7.16406,83.80513,-10.23588,-0.44485,0.19613,0.59484,0.75341,,,0.91817,0.37220,-0.13344,0.02488,
7.17188,86.65019,-8.14761,-0.76146,0.13747,0.61340,0.74568,,,0.91588,0.37764,-0.13378,0.02541,
7.17969,92.37460,-9.80382,0.08283,0.19225,0.60851,0.75583,,,0.91340,0.38342,-0.13423,0.02601,
7.18750,97.61911,-8.50765,-1.64093,0.20728,0.65003,0.73697,,,0.91075,0.38952,-0.13454,0.02658,
7.19531,99.88145,-8.75969,-1.35950,0.20583,0.63245,0.75196,,,0.90800,0.39574,-0.13487,0.02717,
7.20313,103.68629,-8.32763,-2.59076,0.18886,0.63831,0.74326,,,0.90511,0.40219,-0.13512,0.02774,
7.21094,105.36590,-8.36364,-3.36469,0.20389,0.65492,0.73939,,,0.90213,0.40872,-0.13534,0.02828,
7.21875,109.61636,-7.93158,-5.44024,0.18256,0.67788,0.69781,,,0.89898,0.41552,-0.13546,0.02873,
7.22656,116.23199,-8.11160,-6.56596,0.22473,0.70621,0.67556,,,0.89560,0.42271,-0.13554,0.02917,
7.23438,119.83116,-8.39964,-6.46042,0.17771,0.69937,0.71328,,,0.89205,0.43008,-0.13562,0.02964,
7.24219,125.89834,-9.04773,-9.02847,0.16898,0.68179,0.70506,,,0.88826,0.43783,-0.13564,0.02999,
7.25000,134.22786,-8.43565,-10.43562,0.23685,0.73259,0.63156,,,0.88416,0.44605,-0.13556,0.03034,
7.25781,139.16387,-8.86770,-10.01348,0.18837,0.72477,0.68185,,,0.87983,0.45453,-0.13550,0.03076,
7.26563,148.28178,-10.09186,-13.00367,0.18547,0.74431,0.67701,,,0.87512,0.46354,-0.13538,0.03103,
7.27344,159.55920,-12.57619,-13.74243,0.21940,0.76629,0.68137,,,0.86994,0.47318,-0.13535,0.03128,
7.28125,165.31788,-13.04425,-14.09421,0.15202,0.75701,0.73020,,,0.86446,0.48311,-0.13531,0.03155,
7.28906,176.80096,-16.32067,-17.43620,0.23104,0.77118,0.70119,,,0.85846,0.49369,-0.13531,0.03161,
7.29688,191.30050,-19.66911,-19.51174,0.16462,0.83224,0.69926,,,0.85181,0.50507,-0.13538,0.03157,
7.30469,199.52718,-21.64937,-22.29087,0.18741,0.84542,0.64510,,,0.84471,0.51686,-0.13542,0.03137,
7.31250,216.35761,-28.63428,-24.85892,0.21019,0.90551,0.79838,,,0.83678,0.52955,-0.13572,0.03092,
7.32031,222.56191,-31.55066,-27.25107,0.21504,0.90209,0.81918,,,0.82841,0.54250,-0.13605,0.03029,
7.32813,236.06738,-36.69933,-33.09075,0.33139,0.91967,0.81772,,,0.81930,0.55614,-0.13639,0.02925,
7.33594,251.76664,-42.67611,-37.03077,0.29164,1.04228,0.87091,,,0.80931,0.57054,-0.13685,0.02790,
7.34375,258.17660,-45.41247,-40.19686,0.27224,1.06475,0.87188,,,0.79879,0.58515,-0.13728,0.02632,
7.35156,270.31096,-46.02455,-46.52904,0.36969,1.18101,0.83658,,,0.78752,0.60028,-0.13742,0.02447,
7.35938,280.28582,-45.80852,-49.62477,0.23298,1.24451,0.95747,,,0.77555,0.61575,-0.13735,0.02255,
7.36719,282.44533,-50.56114,-50.60977,0.30763,1.37298,0.99422,,,0.76315,0.63110,-0.13744,0.02040,
7.37500,280.86854,-53.18948,-51.98174,0.47828,1.32902,0.88445,,,0.75050,0.64615,-0.13755,0.01803,
7.38281,280.32010,-45.05242,-58.45464,0.44337,1.25575,0.86269,,,0.73766,0.66096,-0.13691,0.01568,
7.39063,280.56004,-41.37994,-61.48001,0.45695,1.30410,0.88881,,,0.72455,0.67556,-0.13589,0.01334,
7.39844,274.62997,-36.41129,-63.73145,0.41720,1.32071,0.83900,,,0.71149,0.68961,-0.13448,0.01106,
7.40625,270.89369,-35.22314,-63.30931,0.35611,1.41987,1.03774,,,0.69836,0.70323,-0.13299,0.00882,
7.41406,246.31646,-34.79108,-61.12822,0.37890,1.32511,0.99180,,,0.68617,0.71542,-0.13154,0.00647,
7.42188,222.21913,-42.53209,-63.62591,0.42738,1.09211,0.97826,,,0.67489,0.72631,-0.13031,0.00341,
7.42969,218.55140,-29.21035,-65.66628,0.35078,0.93189,1.02178,,,0.66375,0.73686,-0.12834,0.00089,
7.43750,195.24245,-26.76203,-60.70608,0.31927,0.58409,0.93426,,,0.65365,0.74615,-0.12648,-0.00150,
7.44531,182.11403,-25.24984,-48.53422,0.61402,0.81709,1.19295,,,0.64411,0.75462,-0.12514,-0.00337,
7.45313,170.52811,-26.14995,-43.08152,0.80309,1.92203,1.85686,,,0.63506,0.76241,-0.12411,-0.00515,
7.46094,62.48430,-10.55992,-18.49156,1.10899,1.61624,2.27706,,,0.63172,0.76525,-0.12362,-0.00597,
7.46875,-25.02707,33.76186,-3.04808,0.98537,0.88988,1.44585,,,0.63331,0.76420,-0.12200,-0.00455,
7.47656,-48.26746,51.87222,0.57533,0.85884,0.71207,1.33076,,,0.63626,0.76212,-0.11978,-0.00222,
7.48438,-88.23545,76.82347,2.65088,0.41574,0.31347,0.96424,,,0.64146,0.75825,-0.11656,0.00117,
7.49219,-104.89448,70.37863,5.39482,0.11566,0.06924,0.69684,,,0.64742,0.75358,-0.11377,0.00421,
7.50000,-108.35655,59.54122,7.04822,0.02355,0.01892,0.61512,,,0.65343,0.74870,-0.11153,0.00674,
7.50781,-111.27017,29.44129,11.41039,-0.03899,-0.00208,0.54501,,,0.65931,0.74361,-0.11085,0.00790,
7.51563,-112.40134,14.28332,12.85272,-0.00263,0.01062,0.52470,,,0.66509,0.73843,-0.11091,0.00836,
7.52344,-115.04073,-7.35550,12.92308,0.15929,0.10978,0.56290,,,0.67080,0.73310,-0.11196,0.00770,
7.53125,-122.06769,-11.92810,10.63646,0.32315,0.25779,0.63978,,,0.67678,0.72741,-0.11310,0.00666,
7.53906,-128.10060,-9.08373,9.15895,0.37599,0.35158,0.69877,,,0.68304,0.72141,-0.11403,0.00565,
7.54688,-145.37664,1.78969,7.89251,0.42495,0.50838,0.79645,,,0.69017,0.71454,-0.11438,0.00497,
7.55469,-168.30852,10.21479,10.74199,0.36872,0.66176,0.89799,,,0.69840,0.70648,-0.11448,0.00467,
7.56250,-181.29983,10.93488,14.08398,0.34060,0.72770,0.93813,,,0.70716,0.69768,-0.11468,0.00445,
7.57031,-209.92185,5.64219,23.51188,0.26643,0.80195,0.93619,,,0.71711,0.68730,-0.11558,0.00421,
7.57813,-236.72713,-4.79917,33.57301,0.24364,0.78046,0.84770,,,0.72806,0.67537,-0.11744,0.00376,
7.58594,-247.69605,-9.73181,37.61857,0.23879,0.76727,0.79935,,,0.73927,0.66267,-0.11970,0.00320,
7.59375,-264.42364,-17.58084,43.77485,0.25479,0.78681,0.73456,,,0.75094,0.64888,-0.12260,0.00245,
7.60156,-275.90672,-20.85726,46.37808,0.28727,0.79804,0.67411,,,0.76283,0.63425,-0.12574,0.00160,
7.60938,-280.26001,-21.14530,46.58915,0.29600,0.82735,0.65525,,,0.77462,0.61916,-0.12887,0.00070,
7.61719,-287.32125,-19.95715,46.51880,0.33381,0.84884,0.62431,,,0.78642,0.60346,-0.13187,-0.00021,
7.62500,-289.27509,-18.66098,46.76505,0.35078,0.85226,0.60400,,,0.79799,0.58741,-0.13476,-0.00107,
7.63281,-289.72070,-16.28467,48.48881,0.33624,0.85715,0.60883,,,0.80929,0.57108,-0.13754,-0.00174,
7.64063,-286.94420,-17.29280,52.85097,0.31345,0.93482,0.64220,,,0.82014,0.55464,-0.14049,-0.00219,
7.64844,-285.77875,-19.02103,55.66528,0.32315,0.97292,0.65574,,,0.83061,0.53802,-0.14359,-0.00253,
7.65625,-282.45380,-23.19757,62.70103,0.33187,1.03105,0.67266,,,0.84059,0.52130,-0.14713,-0.00260,
7.66406,-277.68917,-25.57388,69.59607,0.35951,1.10969,0.71280,,,0.85005,0.50459,-0.15099,-0.00230,
7.67188,-275.73534,-25.39386,72.41037,0.37744,1.12630,0.71715,,,0.85912,0.48777,-0.15488,-0.00182,
7.67969,-270.01093,-22.33346,76.98361,0.37744,1.14584,0.74664,,,0.86772,0.47105,-0.15868,-0.00090,
7.68750,-262.74403,-18.04890,80.57184,0.37260,1.20201,0.78146,,,0.87581,0.45455,-0.16229,0.00044,
7.69531,-259.24769,-16.10465,82.36596,0.37647,1.21911,0.78774,,,0.88351,0.43809,-0.16579,0.00199,
7.70313,-251.50089,-9.65981,85.98937,0.43319,1.20690,0.77952,,,0.89075,0.42190,-0.16894,0.00404,
7.71094,-240.63481,-0.40660,90.56261,0.47149,1.19224,0.77711,,,0.89751,0.40618,-0.17161,0.00675,
7.71875,-234.56763,4.77808,93.62316,0.46277,1.19175,0.78678,,,0.90388,0.39067,-0.17400,0.00987,
7.72656,-222.36471,13.23918,100.44784,0.44822,1.21276,0.79500,,,0.90977,0.37572,-0.17598,0.01377,
7.73438,-216.02330,16.37159,103.96572,0.43659,1.23034,0.79693,,,0.91528,0.36101,-0.17781,0.01804,
7.74219,-204.43739,21.16021,109.06664,0.42204,1.29043,0.78920,,,0.92031,0.34686,-0.17940,0.02289,
7.75000,-193.77697,24.86870,110.47379,0.41623,1.32804,0.75148,,,0.92492,0.33328,-0.18073,0.02803,
7.75781,-188.60102,26.27288,109.80539,0.40702,1.33292,0.73504,,,0.92921,0.31995,-0.18191,0.03323,
7.76563,-178.38622,27.20900,107.34288,0.37357,1.33146,0.69200,,,0.93310,0.30723,-0.18291,0.03840,
7.77344,-167.38302,23.75255,104.14161,0.30957,1.30313,0.65090,,,0.93654,0.29520,-0.18400,0.04343,
7.78125,-161.65862,19.75603,102.62893,0.28194,1.29727,0.64703,,,0.93966,0.28351,-0.18527,0.04835,
7.78906,-150.86109,8.55857,99.21659,0.25237,1.35539,0.68137,,,0.94228,0.27254,-0.18712,0.05296,
7.79688,-145.20525,-4.94319,96.68371,0.26061,1.46726,0.73214,,,0.94450,0.26199,-0.18974,0.05722,
7.80469,-144.99958,-10.88396,95.34692,0.26740,1.49363,0.73359,,,0.94651,0.25145,-0.19270,0.06129,
7.81250,-147.70753,-18.80500,92.11048,0.28582,1.54053,0.72005,,,0.94834,0.24077,-0.19609,0.06496,
7.82031,-152.36932,-20.13717,86.86884,0.25479,1.52050,0.65042,,,0.95012,0.22984,-0.19948,0.06821,
7.82813,-154.59738,-19.41708,83.73793,0.21552,1.49412,0.60352,,,0.95182,0.21876,-0.20275,0.07122,
7.83594,-157.78522,-17.04077,76.87807,0.11129,1.41157,0.47828,,,0.95350,0.20754,-0.20575,0.07376,
7.84375,-157.27105,-16.57271,73.32502,0.05797,1.36272,0.40961,,,0.95505,0.19636,-0.20864,0.07608,
7.85156,-151.71804,-16.86074,66.00783,0.00222,1.26747,0.24424,,,0.95644,0.18562,-0.21140,0.07799,
7.85938,-139.82362,-15.67259,56.36885,0.01288,1.17319,0.08951,,,0.95763,0.17577,-0.21386,0.07944,
7.86719,-131.66549,-13.62032,50.28292,0.02742,1.12435,0.01456,,,0.95869,0.16652,-0.21605,0.08064,
7.87500,-111.47583,-6.20335,36.49285,0.06330,1.07550,-0.06184,,,0.95963,0.15873,-0.21748,0.08131,
7.88281,-89.64084,1.24962,24.03957,0.07639,1.06426,-0.07635,,,0.96047,0.15250,-0.21815,0.08156,
7.89063,-79.11753,3.19387,19.11454,0.07881,1.06524,-0.07296,,,0.96122,0.14702,-0.21858,0.08167,
7.89844,-59.44204,3.58992,12.43057,0.09578,1.08136,-0.04830,,,0.96179,0.14293,-0.21879,0.08163,
7.90625,-42.37167,1.10560,9.05341,0.14571,1.08820,-0.02606,,,0.96216,0.14001,-0.21904,0.08160,
7.91406,-34.38493,-0.29858,8.24430,0.17092,1.07745,-0.02122,,,0.96244,0.13764,-0.21933,0.08162,
7.92188,-18.85706,-2.60289,7.32965,0.22134,1.08527,0.03003,,,0.96253,0.13631,-0.21968,0.08180,
7.92969,-6.24281,-2.13482,7.68144,0.28921,1.08966,0.07259,,,0.96251,0.13581,-0.21993,0.08219,
7.93750,-0.38129,-0.62263,8.03323,0.32072,1.08624,0.09338,,,0.96246,0.13567,-0.22004,0.08270,
7.94531,10.69046,5.13812,8.98306,0.34836,1.03984,0.11224,,,0.96239,0.13622,-0.21973,0.08350,
7.95313,16.17491,8.41455,9.47556,0.35078,1.02518,0.13545,,,0.96231,0.13709,-0.21917,0.08444,
7.96094,27.04100,13.77925,11.23450,0.31878,1.00027,0.16929,,,0.96219,0.13862,-0.21822,0.08570,
7.96875,37.35863,15.79551,13.66183,0.31587,0.97096,0.21281,,,0.96199,0.14078,-0.21709,0.08730,
7.97656,42.15753,16.55161,14.89309,0.31151,0.93384,0.22732,,,0.96174,0.14324,-0.21590,0.08906,
7.98438,52.54372,16.83965,17.07417,0.28921,0.88450,0.25246,,,0.96136,0.14633,-0.21464,0.09112,
7.99219,61.90158,14.31932,18.90347,0.38908,0.57383,0.42025,,,0.96082,0.15003,-0.21351,0.09340,
8.00000,70.50532,17.99180,15.24488,0.51318,0.26267,0.26939,,,0.96025,0.15431,-0.21203,0.09561,
8.00781,125.58984,45.93144,-14.62190,0.71389,-0.49837,0.27035,1021.837,25.3,0.95965,0.16244,-0.20805,0.09695,
8.01563,168.60855,49.24387,-34.53308,0.25285,-0.36014,1.01066,,,0.95864,0.17362,-0.20331,0.09762,
8.02344,171.31651,43.08707,-42.69455,0.27903,-0.57213,1.34430,,,0.95742,0.18510,-0.19884,0.09771,
8.03125,162.88415,56.84086,-49.37851,0.00512,0.12248,1.69777,,,0.95639,0.19600,-0.19340,0.09740,
8.03906,143.58572,27.06498,-45.15706,-0.44816,0.37551,1.05901,,,0.95508,0.20577,-0.19007,0.09671,
8.04688,144.88828,15.97554,-48.04172,-0.42295,0.66811,0.96085,,,0.95352,0.21571,-0.18738,0.09568,
8.05469,142.52310,6.14626,-52.68532,-0.42537,1.17954,1.12332,,,0.95180,0.22559,-0.18526,0.09416,
8.06250,135.39331,-2.85492,-55.71069,-0.33762,1.20690,1.25001,,,0.94999,0.23509,-0.18371,0.09220,
8.07031,112.66709,-4.65515,-71.25971,-0.00748,1.24940,1.41635,,,0.94854,0.24330,-0.18215,0.08892,
8.07813,94.36271,2.58179,-80.75797,0.30230,0.95973,1.23647,,,0.94746,0.25039,-0.18006,0.08490,
8.08594,94.94543,-0.11856,-79.21011,0.53888,0.96168,1.15234,,,0.94626,0.25749,-0.17816,0.08095,
8.09375,98.06472,2.43777,-63.94252,0.77594,1.08624,0.94296,,,0.94489,0.26457,-0.17633,0.07805,
8.10156,97.99616,16.22757,-43.53884,0.91944,1.32609,1.11510,,,0.94352,0.27131,-0.17398,0.07672,
8.10938,90.04370,27.96510,-34.32200,0.76673,1.31436,1.19682,,,0.94235,0.27736,-0.17107,0.07609,
8.11719,67.55743,40.63875,-22.04462,0.26982,0.85910,1.03870,,,0.94164,0.28175,-0.16769,0.07623,
8.12500,59.98202,34.37393,-22.71301,0.10354,0.66420,1.02130,,,0.94099,0.28568,-0.16473,0.07612,
8.13281,56.28001,33.00576,-24.61266,0.09966,0.64320,0.98696,,,0.94038,0.28939,-0.16183,0.07581,
8.14063,48.73888,29.22526,-25.10517,0.32121,0.75213,1.00389,,,0.93986,0.29264,-0.15921,0.07531,
8.14844,35.47335,30.26940,-19.72282,0.33042,0.67641,0.95698,,,0.93958,0.29497,-0.15669,0.07504,
8.15625,29.68039,30.23340,-17.71763,0.23298,0.58067,0.94248,,,0.93939,0.29690,-0.15425,0.07483,
8.16406,22.85910,28.68519,-17.18995,0.21989,0.60656,0.96714,,,0.93932,0.29840,-0.15194,0.07455,
8.17188,18.40298,28.14512,-17.26030,0.25140,0.61291,0.93426,,,0.93932,0.29961,-0.14970,0.07421,
8.17969,10.62190,25.40877,-14.16457,0.23637,0.60314,0.86173,,,0.93943,0.30031,-0.14772,0.07393,
8.18750,9.86779,20.26010,-9.94312,0.13165,0.53133,0.90718,,,0.93948,0.30094,-0.14617,0.07380,
8.19531,7.98251,17.63175,-8.74704,0.06912,0.53036,0.87623,,,0.93954,0.30145,-0.14482,0.07368,
8.20313,4.24622,11.79899,-7.30471,0.21407,0.56504,0.88445,,,0.93960,0.30173,-0.14389,0.07350,
8.21094,4.07483,9.09864,-5.54577,0.17965,0.56504,0.89751,,,0.93964,0.30200,-0.14317,0.07337,
8.21875,3.69777,6.90235,-4.34970,0.20292,0.51766,0.87140,,,0.93965,0.30224,-0.14262,0.07327,
8.22656,4.38333,5.46217,-2.97772,0.15783,0.50154,0.86995,,,0.93963,0.30253,-0.14219,0.07323,
8.23438,4.07483,2.79782,-2.27415,0.21116,0.50447,0.86366,,,0.93958,0.30279,-0.14194,0.07319,
8.24219,4.31477,1.39364,-1.42986,0.23831,0.52938,0.80709,,,0.93951,0.30308,-0.14180,0.07316,
8.25000,5.20600,0.45751,-1.04289,0.24510,0.58507,0.86366,,,0.93941,0.30342,-0.14172,0.07316,
8.25781,4.72611,0.56553,0.18836,0.13796,0.50300,0.83900,,,0.93932,0.30372,-0.14167,0.07323,
8.26563,5.85728,-1.81078,0.54015,0.21649,0.52743,0.89654,,,0.93918,0.30409,-0.14176,0.07328,
8.27344,6.71423,-2.09882,0.36426,0.25091,0.54648,0.89364,,,0.93902,0.30453,-0.14187,0.07332,
8.28125,6.50856,-4.69116,1.20855,0.24219,0.48102,0.83368,,,0.93883,0.30496,-0.14216,0.07337,
8.28906,8.63379,-3.21496,-0.16342,0.22086,0.55625,0.86801,,,0.93862,0.30553,-0.14232,0.07337,
8.29688,8.25673,-2.31485,0.54015,0.20049,0.49470,0.76163,,,0.93843,0.30606,-0.14244,0.07344,
8.30469,10.24484,-2.60289,0.01247,0.23201,0.52938,0.87768,,,0.93819,0.30673,-0.14256,0.07349,
8.31250,10.00490,-1.01868,-0.37450,0.18498,0.50642,0.83997,,,0.93797,0.30738,-0.14256,0.07354,
8.32031,9.35362,-1.23471,-0.65593,0.28000,0.55038,0.72343,,,0.93776,0.30799,-0.14258,0.07356,
8.32813,10.34768,1.86170,-1.78165,0.21698,0.58995,0.84045,,,0.93757,0.30866,-0.14237,0.07359,
8.33594,8.29101,1.50165,-1.60575,0.14862,0.50349,0.77517,,,0.93742,0.30920,-0.14220,0.07360,
8.34375,7.53689,-1.52274,-1.50022,0.26109,0.51717,0.77372,,,0.93726,0.30970,-0.14223,0.07354,
8.35156,7.60545,-0.01055,-1.35950,0.19031,0.52498,0.78968,,,0.93710,0.31020,-0.14216,0.07353,
8.35938,6.98845,-2.31485,-1.11325,0.23249,0.52450,0.76937,,,0.93694,0.31067,-0.14225,0.07347,
8.36719,7.81112,-1.27071,-1.53540,0.21552,0.56797,0.80273,,,0.93677,0.31119,-0.14226,0.07343,
8.37500,7.09128,-2.20683,-0.83182,0.18304,0.52987,0.78533,,,0.93660,0.31166,-0.14234,0.07339,
8.38281,7.33123,-3.10695,-0.37450,0.17916,0.51375,0.81337,,,0.93642,0.31215,-0.14250,0.07337,
8.39063,6.88561,-3.03494,0.08283,0.16026,0.51570,0.80080,,,0.93624,0.31260,-0.14266,0.07338,
8.39844,6.37145,-4.18709,0.89194,0.20195,0.53036,0.75680,,,0.93606,0.31302,-0.14291,0.07341,
8.40625,6.95417,-3.79104,0.57533,0.20583,0.57383,0.81337,,,0.93587,0.31347,-0.14313,0.07344,
8.41406,5.89156,-5.73529,1.91212,0.24073,0.53182,0.76308,,,0.93568,0.31386,-0.14351,0.07349,
8.42188,5.68589,-4.69116,1.45480,0.24364,0.49372,0.84915,,,0.93551,0.31423,-0.14381,0.07354,
8.42969,4.79466,-1.59475,0.54015,0.17916,0.54697,0.85157,,,0.93538,0.31454,-0.14390,0.07359,
8.43750,3.45783,-3.79104,0.15319,0.30521,0.50398,0.80273,,,0.93527,0.31478,-0.14412,0.07355,
8.44531,3.28644,0.16948,-0.83182,0.18304,0.55869,0.84529,,,0.93521,0.31499,-0.14408,0.07353,
8.45313,1.77821,-0.11856,-1.42986,0.19274,0.50593,0.82836,,,0.93518,0.31512,-0.14404,0.07346,
8.46094,1.94960,-0.37059,-2.34451,0.24461,0.49470,0.82740,,,0.93514,0.31527,-0.14401,0.07332,
8.46875,2.32666,2.04172,-4.06827,0.19807,0.50154,0.84190,,,0.93513,0.31545,-0.14378,0.07312,
8.47656,2.46377,1.10560,-4.52559,0.22134,0.51131,0.81144,,,0.93511,0.31564,-0.14360,0.07288,
8.48438,3.56066,4.05798,-6.17899,0.11905,0.62121,0.83803,,,0.93511,0.31591,-0.14319,0.07261,
8.49219,2.49805,1.50165,-4.94774,0.18983,0.52450,0.78484,,,0.93509,0.31611,-0.14297,0.07235,
8.50000,3.59494,3.37389,-5.75685,0.12099,0.53573,0.86608,,,0.93508,0.31638,-0.14261,0.07209,
8.50781,3.49211,2.40177,-5.68649,0.16559,0.51766,0.83320,,,0.93505,0.31664,-0.14232,0.07182,
8.51563,3.97200,-0.26258,-5.08845,0.27176,0.52352,0.78339,,,0.93499,0.31695,-0.14221,0.07152,
8.52344,5.10317,2.07772,-5.40506,0.16898,0.56162,0.81821,,,0.93493,0.31731,-0.14193,0.07127,
8.53125,4.86322,-0.04655,-5.58095,0.22231,0.52840,0.79306,,,0.93485,0.31768,-0.14179,0.07096,
8.53906,5.03461,-0.51461,-5.51060,0.24510,0.49909,0.80902,,,0.93476,0.31805,-0.14168,0.07065,
8.54688,5.10317,1.10560,-6.14381,0.18886,0.51131,0.81772,,,0.93469,0.31843,-0.14145,0.07033,
8.55469,4.21194,0.85357,-7.97311,0.27952,0.54110,0.74664,,,0.93465,0.31877,-0.14120,0.06988,
8.56250,5.41167,2.54579,-10.01348,0.18353,0.55820,0.83175,,,0.93460,0.31920,-0.14079,0.06935,
8.57031,5.13744,-0.08256,-8.53597,0.24170,0.53085,0.76792,,,0.93453,0.31961,-0.14059,0.06886,
8.57813,6.57711,0.52952,-7.48061,0.21455,0.47076,0.83030,,,0.93442,0.32010,-0.14036,0.06845,
8.58594,7.19412,0.49352,-6.53078,0.16704,0.49128,0.81676,,,0.93430,0.32062,-0.14015,0.06812,
8.59375,8.42812,-0.98267,-6.21417,0.30230,0.48981,0.78436,,,0.93414,0.32122,-0.14004,0.06778,
8.60156,10.82757,2.76181,-6.00310,0.13408,0.56602,0.83755,,,0.93396,0.32195,-0.13968,0.06756,
8.60938,10.41623,-0.37059,-5.33470,0.25722,0.51766,0.76357,,,0.93375,0.32267,-0.13954,0.06731,
8.61719,11.58168,1.28562,-4.80702,0.24703,0.48639,0.81289,,,0.93353,0.32344,-0.13930,0.06715,
8.62500,13.08991,3.01385,-6.24935,0.20922,0.47614,0.85109,,,0.93330,0.32432,-0.13891,0.06694,
8.63281,13.80974,1.35763,-6.49560,0.27515,0.49177,0.78678,,,0.93303,0.32525,-0.13861,0.06669,
8.64063,17.44320,3.30188,-8.39525,0.19565,0.57872,0.80902,,,0.93271,0.32643,-0.13814,0.06639,
8.64844,19.94548,3.40990,-8.60633,0.12196,0.55185,0.82546,,,0.93234,0.32776,-0.13764,0.06611,
8.65625,21.28232,2.36576,-9.27472,0.19807,0.49421,0.84915,,,0.93193,0.32919,-0.13718,0.06577,
8.66406,25.25855,3.48191,-8.92294,0.12438,0.53280,0.85447,,,0.93143,0.33086,-0.13665,0.06552,
8.67188,30.36595,1.42964,-7.55096,0.17141,0.55332,0.81386,,,0.93079,0.33285,-0.13625,0.06535,
8.67969,34.13651,2.65380,-7.83239,0.07445,0.51619,0.83126,,,0.93008,0.33508,-0.13575,0.06523,
8.68750,41.30059,-2.60289,-5.72167,0.12584,0.50984,0.81676,,,0.92913,0.33776,-0.13560,0.06519,
8.69531,46.03093,-4.04307,-5.15881,0.15153,0.50984,0.86463,,,0.92805,0.34074,-0.13553,0.06520,
8.70313,53.98339,-5.87931,-3.36469,0.11032,0.52205,0.85061,,,0.92675,0.34421,-0.13558,0.06534,
8.71094,62.68997,-8.18361,-2.80183,0.19856,0.55527,0.80854,,,0.92521,0.34822,-0.13575,0.06555,
8.71875,67.72881,-6.77943,-3.32951,0.13990,0.58360,0.77952,,,0.92355,0.35255,-0.13580,0.06581,
8.72656,76.57250,-10.05586,-3.11844,0.18547,0.57237,0.77276,,,0.92161,0.35744,-0.13601,0.06608,
8.73438,85.24480,-12.14413,-4.77184,0.25673,0.52645,0.82643,,,0.91943,0.36289,-0.13627,0.06627,
8.74219,88.77542,-12.21614,-4.10345,0.16898,0.55332,0.77324,,,0.91712,0.36854,-0.13653,0.06654,
8.75000,97.07066,-13.83635,-6.60114,0.16947,0.52840,0.79065,,,0.91456,0.37472,-0.13678,0.06668,
8.75781,105.33163,-15.38455,-8.71186,0.25722,0.58018,0.71086,,,0.91174,0.38143,-0.13704,0.06672,
8.76563,109.71919,-14.80848,-9.06365,0.19613,0.59337,0.81095,,,0.90877,0.38839,-0.13722,0.06680,
8.77344,119.04277,-16.96876,-13.17957,0.28291,0.61731,0.85302,,,0.90549,0.39595,-0.13737,0.06664,
8.78125,128.74340,-12.10812,-14.19975,0.18595,0.59142,0.89074,,,0.90193,0.40407,-0.13715,0.06664,
8.78906,133.30236,-12.93623,-15.67726,0.20874,0.56113,0.84287,,,0.89817,0.41246,-0.13690,0.06656,
8.79688,147.11634,-13.90836,-18.73781,0.23152,0.57383,0.78339,,,0.89394,0.42168,-0.13655,0.06640,
8.80469,154.96597,-14.23240,-19.75800,0.19080,0.54403,0.79403,,,0.88939,0.43135,-0.13614,0.06622,
8.81250,172.72190,-17.65285,-22.32605,0.16607,0.56895,0.85302,,,0.88419,0.44207,-0.13576,0.06595,
8.82031,191.02627,-21.14530,-24.36641,0.15589,0.63245,0.79403,,,0.87827,0.45387,-0.13543,0.06560,
8.82813,202.85214,-23.12556,-24.78856,0.13699,0.69693,0.89316,,,0.87181,0.46630,-0.13512,0.06527,
8.83594,225.95541,-29.93045,-24.43677,0.10014,0.72282,0.88155,,,0.86435,0.48003,-0.13510,0.06494,
8.84375,255.98282,-40.47982,-23.52212,0.08851,0.75555,0.97052,,,0.85557,0.49543,-0.13556,0.06457,
8.85156,271.71636,-49.30097,-23.17034,0.17577,0.72477,0.99132,,,0.84589,0.51161,-0.13643,0.06406,
8.85938,301.33243,-61.97462,-26.47714,0.25915,0.79609,0.93813,,,0.83474,0.52939,-0.13774,0.06316,
8.86719,327.89777,-76.16047,-29.11555,0.31006,1.13656,1.03919,,,0.82210,0.54850,-0.13957,0.06182,
8.87500,334.89045,-79.32889,-32.14092,0.17819,1.06475,0.80032,,,0.80874,0.56775,-0.14136,0.06022,
8.88281,355.25150,-104.92822,-37.83988,0.58396,1.47116,1.12768,,,0.79388,0.58794,-0.14418,0.05748,
8.89063,347.26476,-99.52752,-54.54979,0.56748,1.29775,1.03387,,,0.77895,0.60747,-0.14597,0.05393,
8.89844,346.54492,-101.68780,-59.75625,0.41186,1.28261,0.97439,,,0.76357,0.62664,-0.14758,0.04998,
8.90625,342.43158,-117.49386,-65.20896,0.57524,1.55811,1.09770,,,0.74775,0.64532,-0.14969,0.04500,
8.91406,332.49100,-110.47295,-70.45059,0.60045,1.52099,1.05756,,,0.73200,0.66312,-0.15116,0.03993,
8.92188,310.48461,-89.01415,-83.43156,0.60917,1.49608,1.02903,,,0.71709,0.67954,-0.15095,0.03493,
8.92969,287.75839,-69.39159,-91.20607,0.43174,1.24744,0.89703,,,0.70311,0.69455,-0.14939,0.03021,
8.93750,276.17248,-62.80273,-94.40733,0.30763,1.18443,1.00147,,,0.68946,0.70873,-0.14733,0.02552,
8.94531,246.31646,-65.43108,-94.79430,0.15638,0.97389,1.14702,,,0.67695,0.72124,-0.14537,0.02037,
8.95313,210.77032,-74.32423,-91.62821,0.27273,0.55185,0.93232,,,0.66589,0.73188,-0.14398,0.01458,
8.96094,205.32014,-76.59253,-88.42694,0.34836,0.41312,1.12477,,,0.65491,0.74204,-0.14283,0.00876,
8.96875,186.53587,-83.43342,-89.37677,0.84042,1.36761,1.72147,,,0.64464,0.75120,-0.14191,0.00237,
8.97656,95.76810,-61.79460,-75.58669,1.09251,1.68023,2.30558,,,0.63913,0.75610,-0.14073,-0.00319,
8.98438,35.50763,-34.14300,-64.78681,1.08378,1.30069,1.96614,,,0.63696,0.75824,-0.13889,-0.00743,
8.99219,-40.96628,0.31349,-43.50366,0.90247,0.76873,1.45552,,,0.63907,0.75686,-0.13660,-0.00968,
9.00000,-88.74961,29.90935,-31.08556,0.57475,0.33985,1.08029,,,0.64391,0.75327,-0.13364,-0.01032,
9.00781,-103.35198,34.15791,-25.42178,0.41865,0.16449,0.92410,1021.825,25.3,0.64950,0.74896,-0.13075,-0.01062,
9.01563,-118.43424,30.41342,-16.87334,0.21940,-0.06070,0.66347,,,0.65579,0.74386,-0.12846,-0.01087,
9.02344,-121.31358,23.68054,-13.42582,0.17626,-0.10027,0.60835,,,0.66212,0.73854,-0.12662,-0.01133,
9.03125,-125.46120,6.65032,-6.28453,0.17674,-0.07633,0.54017,,,0.66847,0.73290,-0.12590,-0.01236,
9.03906,-130.12299,-5.12321,-0.79664,0.28291,0.00036,0.55226,,,0.67490,0.72694,-0.12598,-0.01377,
9.04688,-133.41366,-7.67955,1.63069,0.33914,0.04139,0.56822,,,0.68142,0.72075,-0.12629,-0.01521,
9.05469,-141.53752,-5.98733,7.25930,0.42592,0.13127,0.60980,,,0.68831,0.71407,-0.12677,-0.01639,
9.06250,-151.75232,1.28562,14.68202,0.45695,0.23581,0.68137,,,0.69569,0.70678,-0.12725,-0.01694,
9.07031,-158.05944,4.85009,19.74776,0.45743,0.29100,0.72198,,,0.70333,0.69907,-0.12779,-0.01714,
9.07813,-172.73037,8.88261,33.11569,0.42204,0.39896,0.80032,,,0.71163,0.69046,-0.12873,-0.01663,
9.08594,-191.03475,8.55857,49.54417,0.38132,0.51424,0.86414,,,0.72069,0.68070,-0.13042,-0.01550,
9.09375,-201.55805,7.69446,58.02225,0.38181,0.55038,0.87478,,,0.73011,0.67021,-0.13251,-0.01408,
9.10156,-221.43921,6.50630,73.07876,0.35902,0.59923,0.87720,,,0.74027,0.65845,-0.13529,-0.01214,
9.10938,-239.60647,6.03824,85.35615,0.29551,0.67495,0.86898,,,0.75104,0.64547,-0.13860,-0.00977,
9.11719,-248.65583,6.03824,90.14046,0.26012,0.68081,0.83707,,,0.76198,0.63179,-0.14207,-0.00724,
9.12500,-262.67547,4.27401,96.40228,0.19759,0.68472,0.78194,,,0.77324,0.61709,-0.14584,-0.00459,
9.13281,-267.30298,2.58179,97.66872,0.17674,0.68814,0.75535,,,0.78440,0.60191,-0.14970,-0.00199,
9.14063,-273.09594,-1.12669,97.35211,0.16268,0.70328,0.74713,,,0.79546,0.58620,-0.15369,0.00038,
9.14844,-275.39256,-4.40312,94.78406,0.19419,0.78290,0.77662,,,0.80626,0.57015,-0.15769,0.00246,
9.15625,-276.28378,-4.97919,93.30655,0.22861,0.82295,0.79645,,,0.81677,0.55385,-0.16161,0.00443,
9.16406,-277.55206,-4.11508,90.21082,0.27176,0.93384,0.86801,,,0.82702,0.53729,-0.16529,0.00623,
9.17188,-279.57446,-1.77478,87.88902,0.30812,1.08478,0.93523,,,0.83703,0.52043,-0.16870,0.00797,
9.17969,-281.35690,-0.76665,87.18545,0.32751,1.14584,0.95747,,,0.84679,0.50327,-0.17195,0.00968,
9.18750,-285.23030,1.17761,86.86884,0.39683,1.21276,0.95892,,,0.85636,0.48568,-0.17501,0.01139,
9.19531,-285.64164,4.92210,88.20563,0.47780,1.22644,0.94054,,,0.86563,0.46785,-0.17783,0.01329,
9.20313,-283.68780,7.55044,89.89421,0.49234,1.23425,0.94780,,,0.87451,0.44992,-0.18047,0.01540,
9.21094,-276.69512,12.44708,95.48764,0.49767,1.25721,0.98600,,,0.88287,0.43215,-0.18291,0.01806,
9.21875,-267.68004,14.96741,101.99571,0.49913,1.29238,1.01114,,,0.89065,0.41467,-0.18531,0.02130,
9.22656,-262.29841,15.07542,105.23215,0.49379,1.32462,1.02613,,,0.89793,0.39732,-0.18772,0.02480,
9.23438,-251.98078,15.18343,110.22754,0.52870,1.38177,1.05369,,,0.90461,0.38039,-0.19016,0.02873,
9.24219,-246.90766,16.11956,111.66987,0.57427,1.41792,1.06385,,,0.91085,0.36362,-0.19252,0.03283,
9.25000,-237.92686,21.19622,112.54934,0.66105,1.50633,1.06433,,,0.91662,0.34727,-0.19449,0.03721,
9.25781,-229.90584,28.72120,113.39363,0.66929,1.60305,1.03919,,,0.92201,0.33128,-0.19593,0.04192,
9.26563,-226.27238,31.38555,114.55453,0.63875,1.64408,1.01791,,,0.92707,0.31539,-0.19716,0.04680,
9.27344,-220.06809,32.57370,117.05222,0.55779,1.71833,0.95602,,,0.93173,0.29977,-0.19829,0.05193,
9.28125,-214.13802,28.03711,116.73561,0.50203,1.76474,0.88881,,,0.93594,0.28445,-0.19963,0.05701,
9.28906,-211.77285,24.54465,114.62488,0.48749,1.79307,0.83803,,,0.93981,0.26926,-0.20108,0.06191,
9.29688,-208.27651,16.98367,107.65949,0.42689,1.80626,0.70506,,,0.94328,0.25434,-0.20282,0.06625,
9.30469,-203.95750,6.39829,99.92016,0.28097,1.77304,0.54742,,,0.94634,0.23979,-0.20503,0.06996,
9.31250,-200.87249,-1.45073,97.24658,0.20340,1.74520,0.46764,,,0.94903,0.22547,-0.20765,0.07339,
9.32031,-192.44014,-18.55296,93.06030,0.11420,1.64360,0.26697,,,0.95116,0.21178,-0.21121,0.07639,
9.32813,-179.82589,-33.56692,90.35154,0.08899,1.57912,0.10885,,,0.95271,0.19898,-0.21561,0.07916,
9.33594,-172.49042,-37.99550,88.41671,0.08366,1.55958,0.03970,,,0.95392,0.18668,-0.22018,0.08185,
9.34375,-155.31722,-39.86774,83.03435,0.05991,1.56837,-0.06232,,,0.95477,0.17555,-0.22468,0.08440,
9.35156,-146.37069,-38.60758,79.55166,0.03470,1.61184,-0.09569,,,0.95540,0.16503,-0.22897,0.08686,
9.35938,-131.28844,-32.05472,70.44036,-0.01475,1.60940,-0.21319,,,0.95591,0.15557,-0.23261,0.08903,
9.36719,-114.66367,-23.26958,57.74082,-0.05111,1.51317,-0.33988,,,0.95637,0.14733,-0.23543,0.09072,
9.37500,-104.20893,-18.30093,49.89596,-0.06614,1.44821,-0.40709,,,0.95678,0.13986,-0.23776,0.09211,
9.38281,-78.98042,-7.93158,31.11050,-0.07487,1.33097,-0.48687,,,0.95719,0.13426,-0.23906,0.09278,
9.39063,-49.39863,0.31349,11.69182,-0.04772,1.27724,-0.45786,,,0.95757,0.13086,-0.23946,0.09274,
9.39844,-35.17332,3.04985,3.35445,-0.03172,1.28115,-0.40225,,,0.95791,0.12850,-0.23951,0.09241,
9.40625,-11.38448,7.22640,-9.02847,0.07106,1.29824,-0.26348,,,0.95818,0.12787,-0.23903,0.09169,
9.41406,6.26861,12.41107,-15.07922,0.19177,1.32413,-0.12083,,,0.95842,0.12846,-0.23805,0.09091,
9.42188,12.91852,16.26357,-15.92351,0.23104,1.30117,-0.07199,,,0.95866,0.12947,-0.23677,0.09022,
9.42969,25.32710,24.58066,-13.49618,0.25188,1.20543,-0.00430,,,0.95892,0.13121,-0.23489,0.08996,
9.43750,38.69547,30.08938,-6.24935,0.27224,1.13314,0.08806,,,0.95908,0.13366,-0.23263,0.09044,
9.44531,45.27682,32.28566,-1.46504,0.28291,1.12825,0.14222,,,0.95918,0.13645,-0.23023,0.09135,
9.45313,54.08623,38.51447,8.70163,0.33818,1.10383,0.24521,,,0.95922,0.13962,-0.22745,0.09313,
9.46094,57.20551,43.05107,13.31004,0.35078,1.10432,0.31581,,,0.95924,0.14289,-0.22440,0.09529,
9.46875,58.30240,54.28453,20.59205,-0.15292,0.51815,0.31629,,,0.95936,0.14604,-0.22066,0.09805,
9.47656,94.91116,4.52604,-7.90275,0.68819,0.32373,1.07158,,,0.95851,0.15234,-0.21965,0.09901,
9.48438,78.38923,28.03711,-24.68302,0.57815,-1.83338,-0.13679,,,0.95827,0.15764,-0.21703,0.09886,
9.49219,144.78544,54.14051,-78.96386,0.48749,-0.75434,1.72485,,,0.95798,0.16787,-0.21166,0.09642,
9.50000,115.75210,94.14173,-116.42924,-0.31872,-0.04214,1.56963,,,0.95870,0.17647,-0.20340,0.09156,
9.50781,101.14973,86.07667,-129.86753,-0.57420,0.13274,0.90331,,,0.95941,0.18433,-0.19555,0.08550,
9.51563,119.76261,73.18699,-155.30177,-0.58244,0.81807,0.72440,,,0.95969,0.19378,-0.18809,0.07785,
9.52344,125.52129,47.83969,-153.33176,-0.36235,1.24207,1.20794,,,0.95937,0.20369,-0.18224,0.07005,
9.53125,120.68811,24.76068,-137.88829,0.05021,1.19664,1.35833,,,0.95858,0.21317,-0.17811,0.06287,
9.53906,106.97696,6.43429,-102.32256,0.66202,0.81905,1.09915,,,0.95750,0.22137,-0.17574,0.05757,
9.54688,119.65977,5.60618,-84.13513,0.64553,0.68227,0.95167,,,0.95604,0.23016,-0.17362,0.05359,
9.55469,127.64651,-1.37873,-51.94656,0.64650,0.75115,1.05128,,,0.95417,0.23909,-0.17242,0.05169,
9.56250,130.21735,3.94997,-35.58844,0.52918,1.08820,1.33415,,,0.95218,0.24795,-0.17112,0.05097,
9.57031,122.12778,9.99876,-33.82950,0.35514,1.19469,1.40958,,,0.95031,0.25624,-0.16947,0.05037,
9.57813,98.03044,15.57948,-32.87967,0.28824,0.93726,1.05659,,,0.94886,0.26291,-0.16754,0.04964,
9.58594,90.07798,15.43547,-28.09536,0.36629,0.69497,0.91878,,,0.94750,0.26900,-0.16573,0.04912,
9.59375,87.98703,17.52374,-23.73320,0.40847,0.56309,0.86511,,,0.94615,0.27489,-0.16386,0.04891,
9.60156,87.09581,22.24035,-16.38083,0.50349,0.50691,0.83223,,,0.94480,0.28061,-0.16183,0.04924,
9.60938,86.61592,32.10564,-15.21993,0.42398,0.69742,0.88977,,,0.94353,0.28624,-0.15918,0.04983,
9.61719,83.05102,35.99415,-16.55673,0.36629,0.83370,0.95505,,,0.94234,0.29164,-0.15625,0.05036,
9.62500,65.56931,42.36698,-21.27068,0.20195,1.35588,1.38879,,,0.94154,0.29593,-0.15288,0.05054,
9.63281,20.93954,35.56209,-18.45638,-0.03511,0.84005,1.11510,,,0.94155,0.29735,-0.15015,0.05029,
9.64063,9.04512,29.26127,-17.40102,0.00270,0.44292,0.81386,,,0.94172,0.29800,-0.14788,0.04985,
9.64844,11.51313,22.09633,-14.58672,0.22328,0.58604,1.06772,,,0.94176,0.29881,-0.14612,0.04948,
9.65625,5.30883,20.29610,-12.47599,0.10693,0.54062,0.88010,,,0.94189,0.29921,-0.14455,0.04915,
9.66406,5.51450,13.67124,-9.62651,0.08899,0.69986,0.95602,,,0.94195,0.29961,-0.14345,0.04886,
9.67188,1.84677,7.98249,-3.85719,0.01288,0.53768,0.96085,,,0.94200,0.29974,-0.14285,0.04879,
9.67969,2.60088,2.72581,-2.02790,0.12147,0.51180,0.91250,,,0.94198,0.29992,-0.14262,0.04874,
9.68750,3.32072,0.45751,-1.39468,0.23443,0.52792,0.89219,,,0.94192,0.30014,-0.14255,0.04870,
9.69531,5.68589,1.32163,-0.62075,0.12923,0.56650,0.84239,,,0.94182,0.30051,-0.14244,0.04874,
9.70313,7.36550,-0.98267,-0.33932,0.19225,0.59630,0.82933,,,0.94166,0.30099,-0.14247,0.04877,
9.71094,8.35956,-1.45073,-0.05789,0.14523,0.56455,0.90234,,,0.94148,0.30153,-0.14253,0.04881,
9.71875,7.60545,-1.66676,-0.02271,0.11760,0.49958,0.85302,,,0.94131,0.30202,-0.14261,0.04885,
9.72656,8.70234,-3.68303,-0.23378,0.18837,0.52889,0.86560,,,0.94109,0.30259,-0.14281,0.04885,
9.73438,8.97656,-3.28697,0.22354,0.11517,0.58262,0.85447,,,0.94088,0.30318,-0.14299,0.04888,
9.74219,7.77684,-5.01520,0.39944,0.12099,0.49568,0.79403,,,0.94066,0.30369,-0.14330,0.04888,
9.75000,8.42812,-4.72716,-0.40967,0.14911,0.49763,0.89944,,,0.94045,0.30425,-0.14356,0.04883,
9.75781,8.29101,-4.33111,-0.79664,0.16995,0.47760,0.81095,,,0.94023,0.30480,-0.14379,0.04877,
9.76563,9.66212,-3.75504,-1.92236,0.18159,0.50105,0.90186,,,0.94000,0.30545,-0.14396,0.04867,
9.77344,9.83351,-2.35085,-2.62594,0.14668,0.54306,0.83271,,,0.93978,0.30611,-0.14402,0.04855,
9.78125,8.97656,-3.25097,-3.39987,0.22134,0.52156,0.80370,,,0.93958,0.30673,-0.14413,0.04835,
9.78906,9.38790,-0.51461,-3.75166,0.14474,0.51424,0.86414,,,0.93939,0.30737,-0.14405,0.04819,
9.79688,8.77090,-0.83866,-3.71648,0.16995,0.49421,0.84190,,,0.93921,0.30797,-0.14400,0.04802,
9.80469,8.42812,-1.09069,-4.84220,0.22425,0.55625,0.78484,,,0.93904,0.30856,-0.14394,0.04777,
9.81250,8.90801,0.09747,-5.33470,0.18692,0.59142,0.80419,,,0.93887,0.30918,-0.14379,0.04752,
9.82031,8.11962,-0.98267,-6.00310,0.22134,0.54355,0.76308,,,0.93871,0.30977,-0.14370,0.04719,
9.82813,7.87967,-1.01868,-6.77703,0.21940,0.47956,0.82353,,,0.93855,0.31034,-0.14359,0.04681,
9.83594,7.77684,-1.05468,-6.00310,0.18110,0.51668,0.78484,,,0.93840,0.31090,-0.14351,0.04648,
9.84375,7.91395,-2.20683,-5.86238,0.21213,0.49128,0.81289,,,0.93823,0.31147,-0.14350,0.04614,
9.85156,8.90801,-0.15457,-5.61613,0.06136,0.55576,0.83175,,,0.93805,0.31209,-0.14336,0.04586,
9.85938,8.59951,-3.25097,-5.33470,0.20195,0.54159,0.76115,,,0.93785,0.31271,-0.14343,0.04554,
9.86719,9.21651,-2.67489,-4.34970,0.15250,0.48737,0.83900,,,0.93765,0.31334,-0.14347,0.04529,
9.87500,8.87373,-4.29511,-3.71648,0.18110,0.48346,0.82159,,,0.93743,0.31396,-0.14364,0.04505,
9.88281,8.94229,-3.89905,-4.17380,0.21358,0.50300,0.82401,,,0.93721,0.31458,-0.14377,0.04478,
9.89063,9.55929,-2.02681,-4.31452,0.13990,0.60265,0.83223,,,0.93700,0.31524,-0.14378,0.04456,
