Gait Up - Physilog data export
Created on: YYYY-MM-DD hh:mm:ss
Total data points: 19655

Time [128 hz],Gyro [128 hz],,,Accel [128 hz],,,Baro [1 hz],,Event [128 hz],Quaternion [128 hz],,,,
Time,Gyro X,Gyro Y,Gyro Z,Accel X,Accel Y,Accel Z,Pressure,Temperature,Quat W,Quat X,Quat Y,Quat Z,
[s],[deg/s],[deg/s],[deg/s],[g],[g],[g],[mBar],[degree C],[],[],[],[],
0.00781,0.19727,0.07486,-0.71137,0.10804,0.95918,0.31241,1022.731,24.9,0.80561,0.58857,-0.06768,-0.00033,
0.01563,0.23162,0.18171,-0.60659,0.10998,0.96650,0.30903,,,0.80560,0.58859,-0.06765,-0.00035,
0.02344,0.30030,0.21733,-0.67645,0.11289,0.96113,0.30854,,,0.80559,0.58860,-0.06761,-0.00038,
0.03125,0.19727,-0.03200,-0.74630,0.11435,0.96698,0.31241,,,0.80558,0.58862,-0.06758,-0.00042,
0.03906,0.23162,0.32418,-0.85107,0.11483,0.96259,0.30903,,,0.80557,0.58864,-0.06753,-0.00045,
0.04688,0.30030,0.21733,-0.92092,0.11532,0.96357,0.31338,,,0.80556,0.58866,-0.06748,-0.00049,
0.05469,0.16293,0.39542,-0.81615,0.11095,0.96454,0.29596,,,0.80556,0.58867,-0.06743,-0.00052,
0.06250,0.23162,0.28856,-0.71137,0.11386,0.95722,0.29015,,,0.80555,0.58869,-0.06738,-0.00055,
0.07031,0.43768,0.00362,-0.71137,0.11192,0.95869,0.29499,,,0.80553,0.58871,-0.06735,-0.00058,
0.07813,0.54071,0.21733,-0.88600,0.11240,0.95576,0.29112,,,0.80551,0.58875,-0.06731,-0.00062,
0.08594,0.26596,0.21733,-0.60659,0.11435,0.95186,0.29644,,,0.80550,0.58876,-0.06727,-0.00064,
0.09375,0.43768,0.35980,-0.64152,0.10561,0.95234,0.29789,,,0.80549,0.58879,-0.06722,-0.00066,
0.10156,0.43768,0.14609,-0.67645,0.10755,0.95771,0.30080,,,0.80547,0.58882,-0.06719,-0.00069,
0.10938,0.43768,0.25295,-0.64152,0.10707,0.96308,0.30564,,,0.80545,0.58884,-0.06715,-0.00072,
0.11719,0.23162,0.32418,-0.64152,0.11143,0.95771,0.30273,,,0.80544,0.58886,-0.06711,-0.00074,
0.12500,0.43768,0.35980,-0.71137,0.10755,0.96942,0.30419,,,0.80543,0.58889,-0.06706,-0.00076,
0.13281,0.54071,0.43104,-0.57167,0.11095,0.96698,0.30757,,,0.80541,0.58892,-0.06701,-0.00077,
0.14063,0.43768,0.35980,-0.50182,0.11143,0.96357,0.31096,,,0.80539,0.58895,-0.06697,-0.00078,
0.14844,0.33465,0.28856,-0.46689,0.11046,0.96698,0.30370,,,0.80538,0.58897,-0.06694,-0.00079,
0.15625,0.47202,0.03924,-0.29227,0.12065,0.96015,0.30322,,,0.80536,0.58899,-0.06692,-0.00081,
0.16406,0.40333,0.35980,-0.74630,0.11192,0.95820,0.29499,,,0.80535,0.58902,-0.06687,-0.00083,
0.17188,0.43768,0.43104,-0.64152,0.10949,0.96064,0.29257,,,0.80533,0.58905,-0.06682,-0.00085,
0.17969,0.47202,0.14609,-0.57167,0.11483,0.95332,0.28773,,,0.80531,0.58908,-0.06679,-0.00087,
0.18750,0.30030,0.35980,-0.64152,0.11192,0.94356,0.28773,,,0.80530,0.58909,-0.06675,-0.00089,
0.19531,0.50636,0.18171,-0.78122,0.10658,0.95039,0.28531,,,0.80528,0.58913,-0.06671,-0.00092,
0.20313,0.36899,0.43104,-0.60659,0.10318,0.96601,0.28967,,,0.80527,0.58915,-0.06666,-0.00094,
0.21094,0.47202,0.21733,-0.53674,0.11240,0.95625,0.30322,,,0.80525,0.58918,-0.06662,-0.00096,
0.21875,0.43768,0.32418,-0.50182,0.11435,0.96210,0.30031,,,0.80524,0.58920,-0.06659,-0.00097,
0.22656,0.40333,0.32418,-0.32719,0.09251,0.95722,0.29935,,,0.80522,0.58923,-0.06656,-0.00097,
0.23438,0.43768,0.14609,-0.22242,0.12017,0.96601,0.30951,,,0.80520,0.58925,-0.06654,-0.00098,
0.24219,0.33465,0.25295,-0.81615,0.10658,0.96259,0.30806,,,0.80519,0.58927,-0.06649,-0.00101,
0.25000,0.26596,0.28856,-0.99077,0.11192,0.96698,0.30322,,,0.80518,0.58929,-0.06644,-0.00105,
0.25781,0.33465,0.14609,-0.85107,0.11143,0.96747,0.30564,,,0.80517,0.58932,-0.06639,-0.00109,
0.26563,0.33465,0.03924,-0.71137,0.11289,0.95625,0.30322,,,0.80516,0.58934,-0.06636,-0.00113,
0.27344,0.26596,0.03924,-0.64152,0.11629,0.96357,0.30370,,,0.80515,0.58935,-0.06634,-0.00116,
0.28125,0.26596,0.03924,-0.88600,0.11046,0.95918,0.29402,,,0.80513,0.58937,-0.06630,-0.00120,
0.28906,0.23162,0.18171,-0.85107,0.11386,0.95771,0.29209,,,0.80513,0.58939,-0.06625,-0.00124,
0.29688,0.33465,0.18171,-0.81615,0.10561,0.95478,0.28725,,,0.80511,0.58941,-0.06621,-0.00128,
0.30469,0.16293,0.14609,-0.81615,0.11386,0.96015,0.29306,,,0.80511,0.58942,-0.06617,-0.00132,
0.31250,0.30030,0.18171,-0.85107,0.11532,0.95771,0.30419,,,0.80510,0.58945,-0.06613,-0.00136,
0.32031,0.43768,0.00362,-0.88600,0.11629,0.96113,0.30467,,,0.80508,0.58947,-0.06609,-0.00140,
0.32813,0.30030,0.25295,-0.85107,0.10755,0.96406,0.30370,,,0.80507,0.58949,-0.06604,-0.00144,
0.33594,0.23162,-0.03200,-0.67645,0.10755,0.95918,0.30370,,,0.80506,0.58951,-0.06602,-0.00147,
0.34375,0.26596,0.00362,-0.57167,0.10804,0.96796,0.31628,,,0.80505,0.58953,-0.06599,-0.00150,
0.35156,0.16293,0.07486,-0.29227,0.10852,0.96601,0.31483,,,0.80504,0.58954,-0.06598,-0.00152,
0.35938,0.26596,0.18171,-0.43197,0.11338,0.96991,0.31435,,,0.80503,0.58955,-0.06595,-0.00153,
0.36719,0.36899,0.14609,-0.39704,0.11677,0.96406,0.31290,,,0.80502,0.58958,-0.06593,-0.00155,
0.37500,0.26596,0.25295,-0.46689,0.11143,0.96308,0.30757,,,0.80501,0.58959,-0.06589,-0.00156,
0.38281,0.33465,0.21733,-0.43197,0.11532,0.95869,0.30225,,,0.80499,0.58961,-0.06587,-0.00157,
0.39063,0.36899,0.25295,-0.64152,0.11726,0.94893,0.29838,,,0.80498,0.58964,-0.06583,-0.00160,
0.39844,0.40333,0.25295,-0.67645,0.11871,0.95820,0.29499,,,0.80497,0.58966,-0.06578,-0.00162,
0.40625,0.43768,0.21733,-0.71137,0.10901,0.95478,0.29306,,,0.80495,0.58969,-0.06574,-0.00165,
0.41406,0.43768,0.07486,-0.81615,0.10998,0.96064,0.29112,,,0.80493,0.58972,-0.06571,-0.00169,
0.42188,0.40333,0.28856,-0.71137,0.10949,0.95430,0.29354,,,0.80492,0.58974,-0.06566,-0.00172,
0.42969,0.40333,0.11047,-0.64152,0.11386,0.95918,0.29064,,,0.80490,0.58977,-0.06563,-0.00174,
0.43750,0.47202,0.28856,-0.53674,0.10658,0.95478,0.29596,,,0.80488,0.58979,-0.06559,-0.00176,
0.44531,0.40333,0.43104,-0.50182,0.11386,0.95918,0.30370,,,0.80487,0.58982,-0.06555,-0.00177,
0.45313,0.54071,0.18171,-0.50182,0.10610,0.96406,0.30564,,,0.80485,0.58985,-0.06552,-0.00179,
0.46094,0.47202,0.43104,-0.36212,0.10707,0.96991,0.31483,,,0.80483,0.58988,-0.06548,-0.00179,
0.46875,0.30030,0.21733,-0.36212,0.10998,0.96845,0.30903,,,0.80482,0.58990,-0.06545,-0.00180,
0.47656,0.54071,0.50227,-0.25734,0.10804,0.96796,0.31290,,,0.80480,0.58993,-0.06542,-0.00179,
0.48438,0.54071,0.28856,-0.29227,0.10949,0.96894,0.30467,,,0.80478,0.58996,-0.06539,-0.00179,
0.49219,0.30030,0.25295,-0.29227,0.11289,0.96601,0.30515,,,0.80477,0.58998,-0.06536,-0.00180,
0.50000,0.26596,0.28856,-0.36212,0.11629,0.96552,0.30612,,,0.80476,0.58999,-0.06533,-0.00180,
0.50781,0.33465,0.28856,-0.46689,0.11435,0.95722,0.29064,,,0.80475,0.59001,-0.06530,-0.00181,
0.51563,0.33465,0.25295,-0.60659,0.11386,0.95722,0.29789,,,0.80473,0.59003,-0.06526,-0.00184,
0.52344,0.36899,0.28856,-0.43197,0.11532,0.96162,0.30031,,,0.80472,0.59006,-0.06523,-0.00185,
0.53125,0.36899,0.35980,-0.60659,0.10901,0.95137,0.29306,,,0.80471,0.59008,-0.06518,-0.00186,
0.53906,0.43768,0.18171,-0.50182,0.10416,0.95527,0.29451,,,0.80469,0.59011,-0.06515,-0.00188,
0.54688,0.43768,0.21733,-0.43197,0.10367,0.95674,0.29548,,,0.80467,0.59013,-0.06512,-0.00190,
0.55469,0.33465,0.32418,-0.46689,0.11338,0.96162,0.30225,,,0.80466,0.59015,-0.06509,-0.00191,
0.56250,0.23162,0.21733,-0.60659,0.11338,0.96162,0.30322,,,0.80465,0.59017,-0.06505,-0.00193,
0.57031,0.43768,0.18171,-0.57167,0.11240,0.96113,0.30370,,,0.80464,0.59019,-0.06502,-0.00195,
0.57813,0.47202,-0.03200,-0.50182,0.11095,0.96601,0.31241,,,0.80462,0.59022,-0.06500,-0.00198,
0.58594,0.23162,0.14609,-0.53674,0.11046,0.96308,0.31822,,,0.80461,0.59024,-0.06497,-0.00200,
0.59375,0.23162,0.11047,-0.53674,0.11240,0.96991,0.31193,,,0.80460,0.59025,-0.06494,-0.00203,
0.60156,0.23162,0.21733,-0.60659,0.10998,0.96308,0.30419,,,0.80459,0.59027,-0.06491,-0.00205,
0.60938,0.26596,0.21733,-0.57167,0.11095,0.95869,0.30273,,,0.80458,0.59028,-0.06487,-0.00207,
0.61719,0.40333,0.07486,-0.60659,0.11338,0.96113,0.30419,,,0.80457,0.59031,-0.06484,-0.00210,
0.62500,0.43768,0.00362,-0.53674,0.11095,0.95918,0.29644,,,0.80455,0.59034,-0.06482,-0.00213,
0.63281,0.26596,0.18171,-0.53674,0.11677,0.96162,0.29257,,,0.80454,0.59035,-0.06479,-0.00215,
0.64063,0.19727,0.25295,-0.57167,0.11483,0.95722,0.28822,,,0.80453,0.59037,-0.06475,-0.00217,
0.64844,0.43768,0.14609,-0.57167,0.10998,0.95771,0.29354,,,0.80451,0.59039,-0.06472,-0.00219,
0.65625,0.36899,0.25295,-0.60659,0.10561,0.95625,0.29789,,,0.80450,0.59042,-0.06468,-0.00221,
0.66406,0.43768,0.21733,-0.60659,0.11774,0.96210,0.30128,,,0.80448,0.59044,-0.06465,-0.00223,
0.67188,0.23162,0.25295,-0.67645,0.10270,0.96357,0.29789,,,0.80448,0.59046,-0.06461,-0.00226,
0.67969,0.36899,0.00362,-0.67645,0.11095,0.96015,0.30419,,,0.80446,0.59048,-0.06458,-0.00230,
0.68750,0.30030,0.00362,-0.85107,0.11192,0.96650,0.31193,,,0.80445,0.59050,-0.06454,-0.00234,
0.69531,0.19727,0.07486,-0.71137,0.11143,0.96454,0.30999,,,0.80444,0.59052,-0.06451,-0.00238,
0.70313,0.26596,0.14609,-0.78122,0.11386,0.96942,0.31144,,,0.80443,0.59053,-0.06447,-0.00241,
0.71094,0.23162,0.21733,-0.78122,0.11143,0.96698,0.31338,,,0.80442,0.59055,-0.06443,-0.00245,
0.71875,0.30030,0.07486,-0.88600,0.11095,0.96552,0.31241,,,0.80441,0.59057,-0.06439,-0.00249,
0.72656,0.30030,0.18171,-0.92092,0.10901,0.96601,0.30709,,,0.80440,0.59059,-0.06434,-0.00253,
0.73438,0.26596,0.21733,-0.74630,0.10561,0.96064,0.30999,,,0.80439,0.59061,-0.06430,-0.00256,
0.74219,0.33465,0.14609,-0.64152,0.11677,0.96406,0.29886,,,0.80438,0.59063,-0.06427,-0.00259,
0.75000,0.43768,0.07486,-0.53674,0.11629,0.95918,0.29209,,,0.80436,0.59066,-0.06424,-0.00261,
0.75781,0.40333,0.14609,-0.46689,0.10852,0.95869,0.29789,,,0.80434,0.59068,-0.06421,-0.00263,
0.76563,0.40333,0.25295,-0.43197,0.10804,0.95869,0.29402,,,0.80433,0.59070,-0.06418,-0.00264,
0.77344,0.40333,0.21733,-0.36212,0.11143,0.95918,0.29935,,,0.80431,0.59073,-0.06416,-0.00265,
0.78125,0.36899,0.14609,-0.50182,0.10561,0.96162,0.30951,,,0.80430,0.59075,-0.06413,-0.00267,
0.78906,0.36899,0.25295,-0.32719,0.10707,0.96650,0.30806,,,0.80428,0.59077,-0.06410,-0.00268,
0.79688,0.43768,0.03924,-0.46689,0.10707,0.96942,0.30709,,,0.80427,0.59080,-0.06408,-0.00270,
0.80469,0.36899,0.07486,-0.39704,0.10561,0.96942,0.30903,,,0.80425,0.59082,-0.06406,-0.00272,
0.81250,0.30030,0.28856,-0.29227,0.11338,0.96894,0.31532,,,0.80424,0.59084,-0.06403,-0.00272,
0.82031,0.36899,0.25295,-0.36212,0.10707,0.96942,0.31870,,,0.80423,0.59086,-0.06400,-0.00273,
0.82813,0.40333,0.07486,-0.36212,0.10901,0.97040,0.31580,,,0.80421,0.59088,-0.06399,-0.00275,
0.83594,0.36899,0.21733,-0.46689,0.11726,0.96259,0.31386,,,0.80420,0.59091,-0.06396,-0.00276,
0.84375,0.40333,0.11047,-0.39704,0.10416,0.96308,0.30999,,,0.80418,0.59093,-0.06393,-0.00278,
0.85156,0.36899,0.14609,-0.22242,0.12260,0.96454,0.30177,,,0.80417,0.59095,-0.06392,-0.00278,
0.85938,0.30030,0.28856,-0.08272,0.11095,0.96015,0.29886,,,0.80416,0.59097,-0.06390,-0.00277,
0.86719,0.30030,0.18171,0.02206,0.11143,0.95478,0.29983,,,0.80414,0.59098,-0.06389,-0.00276,
0.87500,0.33465,0.35980,0.02206,0.11774,0.96064,0.30031,,,0.80413,0.59100,-0.06387,-0.00275,
0.88281,0.43768,0.21733,-0.01287,0.10416,0.96210,0.29499,,,0.80412,0.59103,-0.06386,-0.00274,
0.89063,0.43768,0.21733,-0.01287,0.11435,0.95478,0.30515,,,0.80410,0.59105,-0.06385,-0.00273,
0.89844,0.43768,0.28856,-0.04779,0.12065,0.96162,0.30273,,,0.80408,0.59107,-0.06383,-0.00271,
0.90625,0.40333,0.35980,0.02206,0.10707,0.95869,0.31290,,,0.80407,0.59110,-0.06381,-0.00270,
0.91406,0.43768,0.43104,0.02206,0.11192,0.96015,0.30564,,,0.80405,0.59112,-0.06379,-0.00268,
0.92188,0.33465,0.28856,-0.04779,0.11240,0.95674,0.30661,,,0.80404,0.59114,-0.06377,-0.00267,
0.92969,0.47202,0.18171,-0.11764,0.10804,0.96503,0.31435,,,0.80402,0.59117,-0.06375,-0.00266,
0.93750,0.26596,0.39542,-0.25734,0.10901,0.96796,0.30854,,,0.80401,0.59118,-0.06372,-0.00266,
0.94531,0.23162,0.25295,-0.25734,0.11435,0.96357,0.31386,,,0.80400,0.59120,-0.06370,-0.00266,
0.95313,0.16293,0.25295,-0.39704,0.11920,0.96259,0.30515,,,0.80400,0.59121,-0.06367,-0.00267,
0.96094,0.23162,0.18171,-0.64152,0.10561,0.96210,0.30080,,,0.80399,0.59122,-0.06363,-0.00270,
0.96875,0.23162,0.25295,-0.57167,0.11629,0.96601,0.29112,,,0.80398,0.59124,-0.06360,-0.00272,
0.97656,0.40333,0.25295,-0.53674,0.11871,0.95576,0.29451,,,0.80397,0.59126,-0.06356,-0.00274,
0.98438,0.33465,0.00362,-0.71137,0.11483,0.95283,0.29548,,,0.80395,0.59128,-0.06353,-0.00278,
0.99219,0.30030,0.07486,-0.78122,0.11192,0.95820,0.29451,,,0.80394,0.59130,-0.06350,-0.00281,
1.00000,0.26596,0.25295,-0.64152,0.11240,0.95966,0.29838,,,0.80393,0.59132,-0.06346,-0.00284,
1.00781,0.40333,0.14609,-0.60659,0.09833,0.96942,0.29693,1022.760,24.9,0.80392,0.59135,-0.06342,-0.00286,
1.01563,0.05990,0.46665,-0.29227,0.10658,0.94942,0.31096,,,0.80391,0.59135,-0.06339,-0.00286,
1.02344,0.26596,0.18171,-0.67645,0.10027,0.96503,0.30999,,,0.80390,0.59137,-0.06335,-0.00289,
1.03125,0.30030,0.00362,-0.60659,0.10852,0.96113,0.31048,,,0.80389,0.59139,-0.06332,-0.00292,
1.03906,0.16293,0.18171,-0.64152,0.11240,0.95381,0.31822,,,0.80389,0.59140,-0.06329,-0.00295,
1.04688,0.26596,0.07486,-0.74630,0.11338,0.96698,0.31144,,,0.80388,0.59142,-0.06325,-0.00298,
1.05469,0.30030,0.21733,-0.67645,0.11483,0.96747,0.30612,,,0.80386,0.59144,-0.06322,-0.00301,
1.06250,0.09424,0.21733,-0.64152,0.11532,0.95771,0.30515,,,0.80386,0.59144,-0.06318,-0.00304,
1.07031,0.05990,0.07486,-0.67645,0.11580,0.96113,0.30854,,,0.80386,0.59145,-0.06315,-0.00307,
1.07813,0.02556,0.11047,-0.88600,0.11435,0.95674,0.30080,,,0.80386,0.59146,-0.06310,-0.00312,
1.08594,0.16293,0.18171,-0.92092,0.11289,0.95576,0.29644,,,0.80385,0.59147,-0.06306,-0.00316,
1.09375,0.36899,0.11047,-0.95585,0.11046,0.95674,0.29693,,,0.80384,0.59149,-0.06301,-0.00320,
1.10156,0.19727,0.07486,-1.13047,0.10949,0.94795,0.28967,,,0.80383,0.59151,-0.06296,-0.00326,
1.10938,0.33465,-0.17447,-0.95585,0.11629,0.95478,0.29548,,,0.80382,0.59153,-0.06293,-0.00332,
1.11719,0.33465,0.11047,-1.02570,0.09930,0.96259,0.29741,,,0.80380,0.59155,-0.06289,-0.00337,
1.12500,0.09424,-0.06762,-0.99077,0.10610,0.96796,0.30757,,,0.80380,0.59156,-0.06285,-0.00343,
1.13281,0.02556,0.07486,-0.81615,0.10610,0.96406,0.31338,,,0.80380,0.59157,-0.06281,-0.00347,
1.14063,0.26596,0.00362,-0.74630,0.10367,0.96357,0.30999,,,0.80379,0.59159,-0.06278,-0.00351,
1.14844,0.36899,0.03924,-0.78122,0.10901,0.96894,0.31532,,,0.80377,0.59161,-0.06275,-0.00355,
1.15625,0.16293,-0.10323,-0.57167,0.11338,0.96796,0.31096,,,0.80376,0.59162,-0.06273,-0.00358,
1.16406,0.12859,0.03924,-0.53674,0.10076,0.96406,0.31096,,,0.80376,0.59163,-0.06271,-0.00361,
1.17188,0.05990,-0.03200,-0.50182,0.11046,0.96113,0.30419,,,0.80376,0.59163,-0.06269,-0.00364,
1.17969,0.19727,0.07486,-0.57167,0.10998,0.96454,0.31290,,,0.80375,0.59165,-0.06266,-0.00367,
1.18750,0.16293,0.18171,-0.43197,0.11143,0.96650,0.30999,,,0.80374,0.59166,-0.06264,-0.00368,
1.19531,0.02556,0.14609,-0.57167,0.11629,0.96503,0.30273,,,0.80374,0.59166,-0.06260,-0.00371,
1.20313,0.30030,0.18171,-0.60659,0.11580,0.96064,0.29160,,,0.80373,0.59168,-0.06257,-0.00373,
1.21094,0.30030,0.14609,-0.53674,0.11920,0.95039,0.29548,,,0.80372,0.59170,-0.06254,-0.00375,
1.21875,0.23162,0.00362,-0.53674,0.10610,0.94746,0.29257,,,0.80371,0.59172,-0.06252,-0.00378,
1.22656,0.26596,0.21733,-0.57167,0.11143,0.95527,0.31290,,,0.80370,0.59173,-0.06248,-0.00380,
1.23438,0.33465,0.14609,-0.57167,0.11192,0.96503,0.29935,,,0.80369,0.59175,-0.06245,-0.00383,
1.24219,0.33465,0.28856,-0.57167,0.11240,0.96796,0.31241,,,0.80367,0.59177,-0.06241,-0.00385,
1.25000,0.36899,0.11047,-0.57167,0.11386,0.96894,0.31580,,,0.80366,0.59180,-0.06239,-0.00387,
1.25781,0.43768,0.03924,-0.43197,0.10949,0.96308,0.31386,,,0.80364,0.59182,-0.06237,-0.00389,
1.26563,0.36899,0.25295,-0.29227,0.10949,0.95576,0.31338,,,0.80363,0.59184,-0.06234,-0.00390,
1.27344,0.40333,0.14609,-0.43197,0.11580,0.96601,0.31193,,,0.80361,0.59187,-0.06232,-0.00391,
1.28125,0.43768,0.14609,-0.50182,0.11338,0.96406,0.31290,,,0.80360,0.59189,-0.06229,-0.00393,
1.28906,0.26596,0.25295,-0.53674,0.11580,0.96552,0.30515,,,0.80359,0.59191,-0.06225,-0.00395,
1.29688,0.50636,0.18171,-0.53674,0.11726,0.96747,0.30757,,,0.80357,0.59194,-0.06222,-0.00397,
1.30469,0.33465,0.35980,-0.46689,0.11532,0.96162,0.30080,,,0.80355,0.59196,-0.06218,-0.00398,
1.31250,0.23162,0.25295,-0.53674,0.11095,0.95918,0.30467,,,0.80355,0.59198,-0.06215,-0.00400,
1.32031,0.47202,0.18171,-0.50182,0.10901,0.95234,0.29596,,,0.80353,0.59201,-0.06212,-0.00402,
1.32813,0.36899,0.18171,-0.53674,0.10852,0.94746,0.29402,,,0.80351,0.59203,-0.06208,-0.00404,
1.33594,0.40333,0.14609,-0.60659,0.10901,0.95674,0.29354,,,0.80350,0.59205,-0.06205,-0.00406,
1.34375,0.30030,0.28856,-0.46689,0.11435,0.96113,0.29935,,,0.80349,0.59207,-0.06202,-0.00407,
1.35156,0.50636,0.35980,-0.50182,0.11677,0.96308,0.30273,,,0.80347,0.59210,-0.06198,-0.00409,
1.35938,0.40333,0.28856,-0.46689,0.09930,0.96454,0.30757,,,0.80345,0.59213,-0.06194,-0.00410,
1.36719,0.23162,0.28856,-0.57167,0.10513,0.96113,0.30999,,,0.80344,0.59214,-0.06190,-0.00412,
1.37500,0.26596,0.18171,-0.46689,0.10707,0.96454,0.32016,,,0.80343,0.59216,-0.06188,-0.00413,
1.38281,0.36899,0.11047,-0.50182,0.11095,0.96796,0.31483,,,0.80342,0.59218,-0.06185,-0.00415,
1.39063,0.36899,0.14609,-0.39704,0.11338,0.96357,0.30903,,,0.80340,0.59220,-0.06183,-0.00417,
1.39844,0.33465,0.35980,-0.50182,0.11774,0.95527,0.29644,,,0.80339,0.59222,-0.06179,-0.00418,
1.40625,0.30030,0.25295,-0.57167,0.11192,0.95722,0.29693,,,0.80338,0.59224,-0.06175,-0.00420,
1.41406,0.36899,0.14609,-0.64152,0.11968,0.96454,0.30999,,,0.80337,0.59226,-0.06171,-0.00423,
1.42188,0.40333,0.21733,-0.60659,0.11143,0.95332,0.30322,,,0.80335,0.59229,-0.06168,-0.00425,
1.42969,0.43768,0.32418,-0.67645,0.11338,0.95625,0.29596,,,0.80333,0.59232,-0.06163,-0.00427,
1.43750,0.50636,0.28856,-0.92092,0.11435,0.95771,0.30515,,,0.80331,0.59235,-0.06158,-0.00431,
1.44531,0.40333,0.25295,-1.06062,0.10658,0.94795,0.29451,,,0.80330,0.59237,-0.06152,-0.00436,
1.45313,0.33465,0.11047,-1.02570,0.10998,0.95186,0.29789,,,0.80329,0.59240,-0.06148,-0.00441,
1.46094,0.40333,0.11047,-0.99077,0.11483,0.95771,0.29741,,,0.80327,0.59242,-0.06143,-0.00445,
1.46875,0.40333,0.32418,-1.06062,0.11823,0.95381,0.30080,,,0.80325,0.59245,-0.06137,-0.00450,
1.47656,0.19727,0.14609,-1.02570,0.11289,0.95478,0.30031,,,0.80325,0.59246,-0.06132,-0.00455,
1.48438,0.12859,0.32418,-1.06062,0.10901,0.95918,0.29838,,,0.80324,0.59248,-0.06126,-0.00459,
1.49219,0.16293,0.18171,-1.09555,0.11046,0.96503,0.31580,,,0.80324,0.59249,-0.06121,-0.00464,
1.50000,0.26596,0.18171,-0.95585,0.10658,0.96064,0.31290,,,0.80323,0.59251,-0.06116,-0.00469,
1.50781,0.36899,0.21733,-0.95585,0.10707,0.96942,0.31193,,,0.80321,0.59253,-0.06111,-0.00473,
1.51563,0.23162,0.32418,-0.95585,0.10658,0.96601,0.30661,,,0.80320,0.59255,-0.06105,-0.00477,
1.52344,0.16293,0.11047,-0.88600,0.10804,0.96552,0.30806,,,0.80320,0.59256,-0.06101,-0.00481,
1.53125,0.12859,0.14609,-0.88600,0.11338,0.96259,0.30806,,,0.80319,0.59257,-0.06097,-0.00485,
1.53906,0.16293,0.14609,-0.95585,0.11580,0.95722,0.29741,,,0.80319,0.59259,-0.06092,-0.00490,
1.54688,0.33465,0.07486,-0.95585,0.11532,0.95771,0.30177,,,0.80317,0.59261,-0.06088,-0.00495,
1.55469,0.30030,0.03924,-1.06062,0.10755,0.95674,0.28918,,,0.80316,0.59263,-0.06083,-0.00500,
1.56250,0.16293,0.07486,-1.09555,0.11823,0.95869,0.30177,,,0.80315,0.59264,-0.06078,-0.00506,
1.57031,0.12859,0.14609,-1.06062,0.10949,0.95332,0.29499,,,0.80315,0.59265,-0.06073,-0.00511,
1.57813,0.19727,0.00362,-0.74630,0.11532,0.95186,0.29741,,,0.80314,0.59267,-0.06070,-0.00515,
1.58594,0.33465,0.00362,-0.74630,0.11095,0.96064,0.30031,,,0.80313,0.59269,-0.06067,-0.00519,
1.59375,0.16293,-0.03200,-0.67645,0.11192,0.95869,0.30128,,,0.80312,0.59270,-0.06065,-0.00523,
1.60156,0.09424,0.28856,-0.64152,0.10707,0.95674,0.31338,,,0.80312,0.59271,-0.06060,-0.00525,
1.60938,0.30030,0.03924,-0.64152,0.11095,0.96552,0.31386,,,0.80310,0.59273,-0.06058,-0.00528,
1.61719,0.47202,0.21733,-0.60659,0.10610,0.97137,0.31774,,,0.80309,0.59276,-0.06054,-0.00530,
1.62500,0.19727,0.14609,-0.60659,0.11240,0.96015,0.31144,,,0.80308,0.59277,-0.06051,-0.00533,
1.63281,0.30030,0.14609,-0.81615,0.11338,0.96210,0.30999,,,0.80307,0.59279,-0.06047,-0.00537,
1.64063,0.26596,0.21733,-0.85107,0.11095,0.96259,0.30903,,,0.80306,0.59281,-0.06042,-0.00541,
1.64844,0.26596,0.25295,-0.92092,0.11726,0.96357,0.30031,,,0.80305,0.59283,-0.06037,-0.00544,
1.65625,0.36899,0.11047,-0.85107,0.10804,0.95869,0.29983,,,0.80303,0.59285,-0.06033,-0.00549,
1.66406,0.47202,0.28856,-0.67645,0.10755,0.95478,0.30031,,,0.80301,0.59288,-0.06029,-0.00551,
1.67188,0.40333,0.25295,-0.67645,0.10949,0.95430,0.30322,,,0.80300,0.59290,-0.06025,-0.00553,
1.67969,0.36899,0.39542,-0.57167,0.11240,0.96064,0.30757,,,0.80298,0.59293,-0.06020,-0.00555,
1.68750,0.30030,0.21733,-0.50182,0.11483,0.95186,0.30273,,,0.80297,0.59294,-0.06017,-0.00556,
1.69531,0.33465,0.28856,-0.57167,0.10707,0.95625,0.30806,,,0.80296,0.59297,-0.06013,-0.00558,
1.70313,0.09424,0.35980,-0.74630,0.09930,0.96747,0.30903,,,0.80296,0.59297,-0.06008,-0.00561,
1.71094,0.36899,0.32418,-0.67645,0.10416,0.98162,0.30128,,,0.80294,0.59300,-0.06004,-0.00563,
1.71875,-0.00879,0.25295,-0.78122,0.10464,0.94746,0.33225,,,0.80294,0.59300,-0.05999,-0.00566,
1.72656,0.57505,0.11047,-0.78122,0.10270,0.96650,0.31677,,,0.80292,0.59303,-0.05995,-0.00570,
1.73438,0.54071,0.50227,-0.92092,0.10367,0.97137,0.30951,,,0.80290,0.59307,-0.05989,-0.00573,
1.74219,0.16293,0.18171,-0.46689,0.10124,0.97284,0.30806,,,0.80290,0.59308,-0.05986,-0.00575,
1.75000,0.12859,0.18171,-0.18749,0.13133,0.94405,0.31096,,,0.80289,0.59309,-0.05984,-0.00575,
1.75781,0.40333,0.14609,-0.11764,0.13473,0.94795,0.30854,,,0.80288,0.59311,-0.05983,-0.00575,
1.76563,0.81545,0.25295,-1.27017,0.11726,0.96747,0.29983,,,0.80284,0.59316,-0.05976,-0.00580,
1.77344,0.33465,0.32418,-1.58450,0.10318,0.95966,0.29983,,,0.80283,0.59318,-0.05968,-0.00587,
1.78125,0.54071,0.28856,-1.30510,0.09833,0.95332,0.30031,,,0.80281,0.59322,-0.05961,-0.00593,
1.78906,0.36899,-0.03200,-0.25734,0.12793,0.96308,0.30031,,,0.80279,0.59324,-0.05961,-0.00595,
1.79688,0.40333,0.28856,-0.85107,0.09930,0.95478,0.30515,,,0.80278,0.59327,-0.05956,-0.00598,
1.80469,0.50636,0.00362,-1.09555,0.09639,0.96113,0.29451,,,0.80276,0.59330,-0.05951,-0.00604,
1.81250,0.40333,0.14609,-0.81615,0.10513,0.96698,0.30419,,,0.80274,0.59332,-0.05947,-0.00607,
1.82031,0.23162,0.14609,-0.60659,0.10513,0.96503,0.31241,,,0.80273,0.59334,-0.05944,-0.00610,
1.82813,0.23162,0.14609,-0.53674,0.11240,0.95381,0.30225,,,0.80272,0.59335,-0.05941,-0.00612,
1.83594,0.19727,0.28856,-0.60659,0.10561,0.96357,0.30467,,,0.80272,0.59337,-0.05937,-0.00614,
1.84375,0.16293,0.21733,-0.60659,0.11289,0.96601,0.30806,,,0.80271,0.59338,-0.05933,-0.00617,
1.85156,0.12859,0.14609,-0.64152,0.11192,0.95869,0.30854,,,0.80270,0.59339,-0.05930,-0.00620,
1.85938,0.19727,0.14609,-0.81615,0.11726,0.96308,0.30515,,,0.80270,0.59340,-0.05926,-0.00623,
1.86719,0.40333,0.18171,-0.81615,0.10513,0.96503,0.29886,,,0.80268,0.59343,-0.05921,-0.00627,
1.87500,0.36899,0.07486,-0.81615,0.11143,0.96454,0.29935,,,0.80267,0.59345,-0.05918,-0.00631,
1.88281,0.26596,-0.03200,-0.60659,0.11192,0.94893,0.29789,,,0.80266,0.59347,-0.05916,-0.00634,
1.89063,0.30030,0.21733,-0.57167,0.11435,0.95820,0.28676,,,0.80264,0.59349,-0.05912,-0.00636,
1.89844,0.30030,0.28856,-0.60659,0.10852,0.95234,0.29499,,,0.80263,0.59351,-0.05908,-0.00639,
1.90625,0.33465,0.14609,-0.46689,0.10852,0.95674,0.29548,,,0.80262,0.59353,-0.05905,-0.00640,
1.91406,0.33465,0.21733,-0.43197,0.10610,0.96259,0.29983,,,0.80261,0.59355,-0.05902,-0.00642,
1.92188,0.30030,0.21733,-0.39704,0.11046,0.95186,0.30177,,,0.80259,0.59357,-0.05900,-0.00643,
1.92969,0.23162,0.21733,-0.50182,0.10852,0.95820,0.30709,,,0.80259,0.59358,-0.05896,-0.00645,
1.93750,0.30030,0.25295,-0.50182,0.10804,0.96650,0.31338,,,0.80257,0.59360,-0.05893,-0.00646,
1.94531,0.36899,0.32418,-0.60659,0.11338,0.96650,0.31435,,,0.80256,0.59362,-0.05889,-0.00648,
1.95313,0.43768,0.21733,-0.64152,0.11095,0.96796,0.31241,,,0.80254,0.59365,-0.05885,-0.00651,
1.96094,0.36899,0.25295,-0.64152,0.11289,0.95722,0.30757,,,0.80253,0.59367,-0.05881,-0.00653,
1.96875,0.47202,0.32418,-0.64152,0.11289,0.96503,0.29886,,,0.80251,0.59370,-0.05877,-0.00655,
1.97656,0.26596,0.35980,-0.57167,0.11192,0.95820,0.29983,,,0.80250,0.59372,-0.05872,-0.00656,
1.98438,0.36899,0.25295,-0.78122,0.11871,0.95771,0.30419,,,0.80249,0.59374,-0.05868,-0.00660,
1.99219,0.36899,0.43104,-0.81615,0.10852,0.95722,0.29548,,,0.80247,0.59376,-0.05862,-0.00662,
2.00000,0.54071,0.46665,-0.74630,0.10804,0.95381,0.29306,,,0.80245,0.59380,-0.05857,-0.00664,
2.00781,0.47202,0.35980,-0.81615,0.11532,0.95918,0.29935,1022.728,24.9,0.80244,0.59383,-0.05852,-0.00667,
2.01563,0.50636,0.35980,-0.60659,0.10901,0.95527,0.29548,,,0.80242,0.59386,-0.05847,-0.00669,
2.02344,0.57505,0.46665,-0.53674,0.10173,0.96650,0.29838,,,0.80239,0.59389,-0.05842,-0.00669,
2.03125,0.54071,0.46665,-0.57167,0.11046,0.96210,0.30564,,,0.80237,0.59392,-0.05838,-0.00670,
2.03906,0.47202,0.32418,-0.74630,0.09833,0.96601,0.30806,,,0.80236,0.59395,-0.05833,-0.00673,
2.04688,0.02556,0.68036,-0.22242,0.08426,0.96601,0.30999,,,0.80236,0.59395,-0.05828,-0.00671,
2.05469,0.23162,0.07486,0.26653,0.15365,0.95820,0.31919,,,0.80235,0.59396,-0.05829,-0.00670,
2.06250,0.60939,0.60913,-1.40987,0.11192,0.96650,0.31483,,,0.80233,0.59400,-0.05820,-0.00675,
2.07031,0.64374,0.50227,-1.54957,0.09882,0.96747,0.30854,,,0.80230,0.59405,-0.05811,-0.00681,
2.07813,0.43768,0.50227,-1.02570,0.10755,0.96698,0.30709,,,0.80228,0.59407,-0.05804,-0.00684,
2.08594,0.36899,0.46665,-1.06062,0.11580,0.95966,0.30370,,,0.80227,0.59410,-0.05797,-0.00688,
2.09375,0.40333,0.43104,-1.44480,0.08377,0.96357,0.29306,,,0.80226,0.59413,-0.05789,-0.00694,
2.10156,0.33465,0.11047,-1.06062,0.11823,0.96454,0.29886,,,0.80224,0.59415,-0.05784,-0.00699,
2.10938,0.50636,0.18171,-1.06062,0.10270,0.95576,0.30322,,,0.80222,0.59418,-0.05779,-0.00704,
2.11719,0.50636,0.35980,-0.92092,0.09591,0.96308,0.29789,,,0.80220,0.59421,-0.05773,-0.00707,
2.12500,0.47202,0.28856,-0.53674,0.12065,0.95918,0.29741,,,0.80218,0.59424,-0.05769,-0.00709,
2.13281,0.57505,0.11047,-0.81615,0.10464,0.96210,0.31048,,,0.80216,0.59428,-0.05766,-0.00713,
2.14063,0.30030,0.14609,-0.74630,0.09639,0.95771,0.31193,,,0.80215,0.59429,-0.05762,-0.00716,
2.14844,0.50636,0.25295,-0.67645,0.11532,0.95869,0.30854,,,0.80213,0.59433,-0.05758,-0.00719,
2.15625,0.57505,0.28856,-0.95585,0.10464,0.96552,0.30661,,,0.80211,0.59436,-0.05752,-0.00722,
2.16406,0.33465,0.14609,-0.92092,0.10561,0.96650,0.31241,,,0.80209,0.59438,-0.05748,-0.00727,
2.17188,0.40333,0.18171,-0.99077,0.10658,0.96406,0.32064,,,0.80208,0.59441,-0.05743,-0.00731,
2.17969,0.50636,0.35980,-1.27017,0.09591,0.97186,0.32064,,,0.80206,0.59444,-0.05736,-0.00737,
2.18750,0.47202,0.03924,-0.88600,0.12842,0.96454,0.30854,,,0.80204,0.59447,-0.05732,-0.00741,
2.19531,0.60939,0.32418,-1.58450,0.10173,0.96894,0.30177,,,0.80201,0.59451,-0.05724,-0.00748,
2.20313,0.40333,0.32418,-1.20032,0.08911,0.96259,0.31048,,,0.80200,0.59454,-0.05717,-0.00753,
2.21094,0.40333,0.28856,-0.92092,0.13279,0.95088,0.29789,,,0.80198,0.59456,-0.05712,-0.00757,
2.21875,0.47202,0.28856,-1.37495,0.09736,0.96552,0.29935,,,0.80196,0.59459,-0.05705,-0.00763,
2.22656,0.23162,0.25295,-0.95585,0.11774,0.95869,0.29644,,,0.80195,0.59461,-0.05699,-0.00767,
2.23438,0.57505,0.39542,-1.23525,0.10076,0.96210,0.29886,,,0.80193,0.59465,-0.05692,-0.00772,
2.24219,0.47202,0.32418,-0.81615,0.08911,0.95869,0.30031,,,0.80191,0.59468,-0.05687,-0.00775,
2.25000,0.50636,0.25295,-0.85107,0.11386,0.95430,0.30467,,,0.80189,0.59471,-0.05682,-0.00779,
2.25781,0.36899,0.46665,-1.16540,0.09736,0.96259,0.30612,,,0.80188,0.59473,-0.05675,-0.00783,
2.26563,0.40333,0.39542,-0.92092,0.09785,0.96698,0.30612,,,0.80186,0.59476,-0.05669,-0.00786,
2.27344,0.19727,0.21733,-0.50182,0.11483,0.96259,0.30903,,,0.80186,0.59477,-0.05666,-0.00788,
2.28125,0.23162,0.39542,-0.88600,0.11435,0.96357,0.31241,,,0.80185,0.59479,-0.05660,-0.00791,
2.28906,0.19727,0.32418,-1.06062,0.10658,0.96942,0.31338,,,0.80184,0.59480,-0.05654,-0.00796,
2.29688,0.26596,0.28856,-0.92092,0.09688,0.96747,0.31338,,,0.80183,0.59482,-0.05649,-0.00799,
2.30469,0.16293,0.28856,-0.78122,0.10318,0.96454,0.31048,,,0.80183,0.59483,-0.05644,-0.00802,
2.31250,0.33465,0.18171,-0.71137,0.11435,0.96406,0.30564,,,0.80181,0.59485,-0.05640,-0.00805,
2.32031,0.26596,0.07486,-0.74630,0.10513,0.96259,0.30273,,,0.80180,0.59487,-0.05637,-0.00809,
2.32813,0.12859,0.21733,-0.57167,0.11240,0.95527,0.28918,,,0.80180,0.59488,-0.05633,-0.00811,
2.33594,0.09424,0.00362,-0.67645,0.10852,0.95576,0.28483,,,0.80179,0.59489,-0.05631,-0.00815,
2.34375,0.09424,-0.03200,-0.78122,0.11580,0.95137,0.29402,,,0.80179,0.59490,-0.05628,-0.00819,
2.35156,0.02556,0.11047,-0.67645,0.11095,0.95820,0.29548,,,0.80179,0.59490,-0.05624,-0.00822,
2.35938,-0.04313,0.03924,-0.67645,0.10852,0.95820,0.29983,,,0.80179,0.59490,-0.05621,-0.00826,
2.36719,0.16293,0.03924,-0.67645,0.10998,0.95869,0.29741,,,0.80178,0.59491,-0.05618,-0.00830,
2.37500,0.12859,0.03924,-0.67645,0.10367,0.96308,0.29886,,,0.80178,0.59492,-0.05615,-0.00833,
2.38281,0.02556,0.14609,-0.50182,0.10124,0.97040,0.31096,,,0.80178,0.59493,-0.05613,-0.00835,
2.39063,0.09424,0.07486,-0.32719,0.10416,0.96650,0.31241,,,0.80177,0.59493,-0.05611,-0.00837,
2.39844,0.16293,-0.06762,-0.15257,0.10707,0.96552,0.31096,,,0.80176,0.59494,-0.05611,-0.00838,
2.40625,0.19727,-0.03200,-0.01287,0.10755,0.96845,0.30757,,,0.80176,0.59495,-0.05611,-0.00838,
2.41406,0.33465,-0.03200,0.09191,0.11386,0.96503,0.30612,,,0.80174,0.59497,-0.05611,-0.00837,
2.42188,0.26596,0.18171,0.05698,0.10852,0.95625,0.29838,,,0.80173,0.59498,-0.05611,-0.00836,
2.42969,0.16293,0.25295,0.02206,0.11386,0.95576,0.30709,,,0.80173,0.59499,-0.05609,-0.00835,
2.43750,0.40333,0.14609,-0.11764,0.10416,0.95137,0.29789,,,0.80171,0.59502,-0.05608,-0.00835,
2.44531,0.26596,0.25295,0.05698,0.11677,0.95186,0.29209,,,0.80170,0.59503,-0.05607,-0.00833,
2.45313,0.40333,0.28856,-0.11764,0.11192,0.95283,0.29693,,,0.80169,0.59505,-0.05605,-0.00833,
2.46094,0.40333,0.28856,-0.25734,0.10755,0.95332,0.29741,,,0.80167,0.59508,-0.05602,-0.00833,
2.46875,0.54071,0.25295,-0.36212,0.10804,0.95625,0.29789,,,0.80165,0.59511,-0.05600,-0.00833,
2.47656,0.43768,0.07486,-0.32719,0.11677,0.95381,0.30370,,,0.80163,0.59513,-0.05598,-0.00835,
2.48438,0.36899,0.25295,-0.29227,0.10610,0.96064,0.31193,,,0.80162,0.59515,-0.05595,-0.00835,
2.49219,0.36899,0.25295,-0.43197,0.10949,0.96601,0.31628,,,0.80160,0.59518,-0.05592,-0.00836,
2.50000,0.43768,0.39542,-0.60659,0.10755,0.96162,0.31241,,,0.80159,0.59520,-0.05588,-0.00838,
2.50781,0.47202,0.32418,-0.67645,0.10464,0.96650,0.31096,,,0.80157,0.59523,-0.05583,-0.00840,
2.51563,0.40333,0.28856,-0.60659,0.10561,0.96747,0.31241,,,0.80155,0.59526,-0.05579,-0.00842,
2.52344,0.33465,0.50227,-0.64152,0.11095,0.97040,0.31096,,,0.80154,0.59528,-0.05574,-0.00843,
2.53125,0.47202,0.57351,-0.60659,0.10755,0.96552,0.30854,,,0.80152,0.59531,-0.05568,-0.00844,
2.53906,0.57505,0.39542,-0.53674,0.10901,0.96601,0.31048,,,0.80150,0.59534,-0.05564,-0.00845,
2.54688,0.71242,0.35980,-0.57167,0.11338,0.96552,0.29935,,,0.80147,0.59538,-0.05560,-0.00847,
2.55469,0.64374,0.25295,-0.60659,0.10949,0.95869,0.30467,,,0.80145,0.59542,-0.05556,-0.00849,
2.56250,0.50636,0.39542,-0.67645,0.11580,0.96015,0.29402,,,0.80143,0.59545,-0.05551,-0.00851,
2.57031,0.64374,0.21733,-0.81615,0.10124,0.95820,0.30903,,,0.80140,0.59549,-0.05546,-0.00854,
2.57813,0.54071,0.14609,-0.71137,0.11240,0.96259,0.30177,,,0.80138,0.59552,-0.05543,-0.00857,
2.58594,0.54071,0.18171,-0.92092,0.12308,0.96406,0.30031,,,0.80136,0.59555,-0.05538,-0.00861,
2.59375,0.43768,0.18171,-0.92092,0.09979,0.96650,0.30661,,,0.80134,0.59558,-0.05533,-0.00865,
2.60156,0.50636,0.14609,-0.81615,0.11240,0.96552,0.30419,,,0.80132,0.59561,-0.05529,-0.00869,
2.60938,0.33465,0.07486,-0.57167,0.11095,0.96503,0.31628,,,0.80131,0.59563,-0.05527,-0.00872,
2.61719,0.33465,0.25295,-0.67645,0.10804,0.95771,0.30806,,,0.80129,0.59565,-0.05523,-0.00874,
2.62500,0.33465,0.28856,-0.67645,0.10367,0.96210,0.31290,,,0.80128,0.59567,-0.05518,-0.00877,
2.63281,0.40333,0.07486,-0.78122,0.10221,0.96991,0.30757,,,0.80127,0.59570,-0.05515,-0.00880,
2.64063,0.43768,0.18171,-0.71137,0.10852,0.96747,0.31144,,,0.80125,0.59572,-0.05511,-0.00883,
2.64844,0.40333,-0.03200,-0.81615,0.11338,0.96698,0.30999,,,0.80123,0.59575,-0.05508,-0.00888,
2.65625,0.36899,0.32418,-0.81615,0.11143,0.96698,0.30467,,,0.80122,0.59577,-0.05503,-0.00891,
2.66406,0.33465,0.07486,-0.95585,0.11338,0.96064,0.30515,,,0.80120,0.59579,-0.05498,-0.00896,
2.67188,0.33465,0.18171,-1.02570,0.11095,0.95722,0.29644,,,0.80119,0.59582,-0.05493,-0.00900,
2.67969,0.43768,0.03924,-0.92092,0.10513,0.95039,0.29499,,,0.80117,0.59584,-0.05489,-0.00905,
2.68750,0.26596,0.28856,-0.92092,0.10561,0.95430,0.29451,,,0.80116,0.59586,-0.05484,-0.00909,
2.69531,0.23162,0.03924,-0.88600,0.11095,0.96357,0.30031,,,0.80115,0.59588,-0.05480,-0.00913,
2.70313,0.26596,0.18171,-0.85107,0.10658,0.96552,0.30419,,,0.80114,0.59590,-0.05476,-0.00917,
2.71094,0.26596,0.07486,-0.81615,0.10610,0.96747,0.30225,,,0.80113,0.59591,-0.05472,-0.00921,
2.71875,0.33465,0.03924,-0.88600,0.10658,0.96747,0.31386,,,0.80111,0.59594,-0.05468,-0.00926,
2.72656,0.23162,-0.03200,-0.71137,0.10755,0.96503,0.31193,,,0.80110,0.59595,-0.05466,-0.00930,
2.73438,0.16293,0.14609,-0.78122,0.10998,0.96552,0.31386,,,0.80110,0.59596,-0.05462,-0.00933,
2.74219,0.19727,0.07486,-0.71137,0.10707,0.96601,0.31193,,,0.80109,0.59598,-0.05458,-0.00937,
2.75000,0.26596,0.00362,-0.81615,0.10658,0.96210,0.30564,,,0.80108,0.59599,-0.05455,-0.00941,
2.75781,0.26596,0.03924,-0.88600,0.10076,0.96894,0.30757,,,0.80107,0.59601,-0.05451,-0.00946,
2.76563,0.19727,0.14609,-0.88600,0.10610,0.96064,0.30999,,,0.80106,0.59603,-0.05447,-0.00950,
2.77344,0.19727,0.03924,-0.85107,0.11435,0.96503,0.30370,,,0.80105,0.59604,-0.05443,-0.00954,
2.78125,0.33465,0.11047,-0.88600,0.11143,0.95332,0.30225,,,0.80104,0.59606,-0.05439,-0.00959,
2.78906,0.50636,0.11047,-0.88600,0.10852,0.95674,0.29354,,,0.80102,0.59609,-0.05435,-0.00963,
2.79688,0.26596,0.21733,-0.81615,0.10561,0.95234,0.28628,,,0.80101,0.59611,-0.05430,-0.00966,
2.80469,0.26596,0.18171,-0.78122,0.10610,0.95283,0.29499,,,0.80100,0.59613,-0.05426,-0.00970,
2.81250,0.30030,0.07486,-0.78122,0.11386,0.95771,0.30322,,,0.80098,0.59615,-0.05423,-0.00974,
2.82031,0.19727,0.28856,-0.71137,0.11289,0.96357,0.29693,,,0.80098,0.59616,-0.05418,-0.00976,
2.82813,0.26596,0.25295,-0.67645,0.11240,0.96113,0.30080,,,0.80096,0.59618,-0.05414,-0.00979,
2.83594,0.26596,0.18171,-0.53674,0.10610,0.96210,0.32112,,,0.80095,0.59619,-0.05411,-0.00981,
2.84375,0.36899,0.25295,-0.57167,0.10949,0.96796,0.31677,,,0.80094,0.59622,-0.05407,-0.00983,
2.85156,0.33465,0.03924,-0.60659,0.11629,0.96357,0.31532,,,0.80093,0.59624,-0.05405,-0.00986,
2.85938,0.23162,0.14609,-0.50182,0.10852,0.95771,0.30370,,,0.80092,0.59625,-0.05402,-0.00988,
2.86719,0.26596,0.25295,-0.57167,0.11240,0.96259,0.30951,,,0.80091,0.59627,-0.05398,-0.00990,
2.87500,0.23162,0.25295,-0.67645,0.10804,0.96406,0.31193,,,0.80090,0.59628,-0.05394,-0.00993,
2.88281,0.50636,0.14609,-0.71137,0.10561,0.95918,0.30419,,,0.80088,0.59631,-0.05390,-0.00996,
2.89063,0.43768,0.25295,-0.64152,0.10998,0.96357,0.30225,,,0.80086,0.59634,-0.05386,-0.00998,
2.89844,0.33465,0.07486,-0.67645,0.11046,0.95966,0.30419,,,0.80085,0.59636,-0.05383,-0.01001,
2.90625,0.36899,0.32418,-0.53674,0.10027,0.96162,0.29548,,,0.80083,0.59638,-0.05379,-0.01003,
2.91406,0.26596,0.21733,-0.57167,0.10513,0.95576,0.29402,,,0.80082,0.59640,-0.05376,-0.01005,
2.92188,0.30030,0.28856,-0.43197,0.10707,0.95820,0.29548,,,0.80081,0.59642,-0.05372,-0.01006,
2.92969,0.33465,0.11047,-0.50182,0.11046,0.95869,0.30467,,,0.80080,0.59644,-0.05370,-0.01008,
2.93750,0.36899,0.32418,-0.46689,0.10610,0.95869,0.30225,,,0.80078,0.59646,-0.05366,-0.01009,
2.94531,0.47202,0.25295,-0.53674,0.09785,0.96357,0.31048,,,0.80076,0.59649,-0.05363,-0.01011,
2.95313,0.23162,0.21733,-0.46689,0.10367,0.96650,0.30806,,,0.80075,0.59650,-0.05360,-0.01013,
2.96094,0.23162,0.07486,-0.60659,0.10270,0.96747,0.32064,,,0.80075,0.59652,-0.05357,-0.01015,
2.96875,0.23162,0.14609,-0.57167,0.10027,0.96259,0.31822,,,0.80074,0.59653,-0.05354,-0.01018,
2.97656,0.33465,0.25295,-0.50182,0.10561,0.97381,0.31628,,,0.80072,0.59655,-0.05350,-0.01019,
2.98438,0.30030,0.25295,-0.64152,0.10610,0.96406,0.30419,,,0.80071,0.59657,-0.05346,-0.01022,
2.99219,0.40333,0.35980,-0.67645,0.10949,0.96357,0.30612,,,0.80070,0.59660,-0.05342,-0.01024,
3.00000,0.47202,0.18171,-0.64152,0.10513,0.96308,0.30999,,,0.80068,0.59663,-0.05338,-0.01027,
3.00781,0.30030,0.25295,-0.60659,0.11289,0.95918,0.30564,1022.714,24.9,0.80066,0.59664,-0.05334,-0.01029,
3.01563,0.43768,0.28856,-0.74630,0.11143,0.96601,0.31048,,,0.80065,0.59667,-0.05330,-0.01031,
3.02344,0.36899,0.28856,-0.71137,0.11240,0.95966,0.30370,,,0.80063,0.59669,-0.05325,-0.01034,
3.03125,0.47202,0.25295,-0.67645,0.10901,0.95674,0.29354,,,0.80061,0.59672,-0.05321,-0.01036,
3.03906,0.47202,0.14609,-0.81615,0.10901,0.96015,0.30515,,,0.80059,0.59675,-0.05317,-0.01040,
3.04688,0.36899,0.25295,-0.71137,0.10416,0.96552,0.30564,,,0.80058,0.59677,-0.05313,-0.01043,
3.05469,0.40333,0.07486,-0.74630,0.10318,0.96650,0.31048,,,0.80056,0.59680,-0.05309,-0.01047,
3.06250,0.43768,0.14609,-0.74630,0.10513,0.96113,0.31193,,,0.80055,0.59683,-0.05306,-0.01050,
3.07031,0.50636,0.18171,-0.92092,0.10464,0.96942,0.31144,,,0.80053,0.59686,-0.05301,-0.01054,
3.07813,0.40333,0.28856,-0.95585,0.09930,0.97381,0.32548,,,0.80051,0.59688,-0.05295,-0.01058,
3.08594,0.30030,0.11047,-0.95585,0.10270,0.96698,0.31870,,,0.80050,0.59690,-0.05291,-0.01062,
3.09375,0.40333,0.25295,-0.78122,0.10124,0.96747,0.31870,,,0.80048,0.59693,-0.05286,-0.01066,
3.10156,0.50636,0.11047,-0.71137,0.10513,0.96064,0.31048,,,0.80046,0.59696,-0.05283,-0.01069,
3.10938,0.47202,0.25295,-0.78122,0.10464,0.96406,0.29838,,,0.80044,0.59699,-0.05278,-0.01072,
3.11719,0.47202,0.11047,-0.60659,0.10949,0.95722,0.29596,,,0.80042,0.59701,-0.05275,-0.01075,
3.12500,0.23162,0.28856,-0.50182,0.11192,0.95625,0.29741,,,0.80041,0.59703,-0.05272,-0.01076,
3.13281,0.40333,0.00362,-0.64152,0.11677,0.96113,0.29257,,,0.80040,0.59705,-0.05269,-0.01079,
3.14063,0.23162,0.03924,-0.57167,0.10658,0.95576,0.29306,,,0.80039,0.59707,-0.05267,-0.01082,
3.14844,0.23162,0.11047,-0.64152,0.11192,0.96454,0.30225,,,0.80038,0.59708,-0.05264,-0.01085,
3.15625,0.16293,0.11047,-0.64152,0.10416,0.96698,0.30709,,,0.80037,0.59709,-0.05260,-0.01088,
3.16406,0.09424,0.07486,-0.50182,0.09591,0.96064,0.30951,,,0.80037,0.59710,-0.05258,-0.01091,
3.17188,0.30030,-0.06762,-0.46689,0.10852,0.96552,0.31241,,,0.80035,0.59712,-0.05256,-0.01093,
3.17969,0.26596,0.03924,-0.46689,0.11143,0.96406,0.30564,,,0.80034,0.59714,-0.05254,-0.01096,
3.18750,0.26596,0.21733,-0.50182,0.10755,0.96698,0.31532,,,0.80033,0.59715,-0.05251,-0.01097,
3.19531,0.33465,0.14609,-0.46689,0.09833,0.96650,0.31628,,,0.80032,0.59717,-0.05248,-0.01099,
3.20313,0.33465,0.11047,-0.29227,0.10658,0.97040,0.30806,,,0.80031,0.59719,-0.05247,-0.01100,
3.21094,0.16293,0.03924,-0.36212,0.10416,0.96259,0.31870,,,0.80030,0.59720,-0.05245,-0.01102,
3.21875,0.12859,0.14609,-0.43197,0.10998,0.96113,0.30806,,,0.80029,0.59721,-0.05242,-0.01104,
3.22656,0.33465,0.03924,-0.46689,0.11095,0.96259,0.29644,,,0.80028,0.59723,-0.05240,-0.01106,
3.23438,0.26596,0.11047,-0.64152,0.10707,0.94942,0.28676,,,0.80027,0.59725,-0.05237,-0.01109,
3.24219,0.19727,0.00362,-0.60659,0.11046,0.95771,0.29015,,,0.80026,0.59726,-0.05235,-0.01112,
3.25000,0.05990,0.18171,-0.60659,0.11240,0.96015,0.29402,,,0.80026,0.59727,-0.05231,-0.01115,
3.25781,0.19727,0.21733,-0.64152,0.10513,0.95674,0.29693,,,0.80025,0.59728,-0.05227,-0.01117,
3.26563,0.30030,0.25295,-0.67645,0.10852,0.96552,0.30419,,,0.80024,0.59730,-0.05223,-0.01120,
3.27344,0.26596,0.18171,-0.46689,0.10949,0.96210,0.30370,,,0.80023,0.59731,-0.05220,-0.01121,
3.28125,0.30030,0.28856,-0.57167,0.11095,0.96357,0.30612,,,0.80022,0.59733,-0.05217,-0.01123,
3.28906,0.50636,0.28856,-0.50182,0.09688,0.95966,0.31048,,,0.80020,0.59736,-0.05213,-0.01125,
3.29688,0.36899,0.35980,-0.60659,0.09882,0.95966,0.31144,,,0.80018,0.59738,-0.05209,-0.01126,
3.30469,0.33465,0.32418,-0.50182,0.10124,0.96406,0.30903,,,0.80017,0.59741,-0.05205,-0.01128,
3.31250,0.36899,0.28856,-0.53674,0.10270,0.96406,0.30903,,,0.80015,0.59743,-0.05201,-0.01129,
3.32031,0.33465,0.28856,-0.46689,0.10027,0.96406,0.31580,,,0.80014,0.59745,-0.05198,-0.01131,
3.32813,0.23162,0.18171,-0.43197,0.11143,0.96845,0.31048,,,0.80013,0.59746,-0.05195,-0.01132,
3.33594,0.16293,0.32418,-0.60659,0.10804,0.95869,0.29983,,,0.80013,0.59747,-0.05191,-0.01134,
3.34375,0.26596,0.21733,-0.60659,0.11143,0.96015,0.29838,,,0.80012,0.59749,-0.05187,-0.01136,
3.35156,0.30030,0.18171,-0.74630,0.10027,0.96210,0.29354,,,0.80010,0.59751,-0.05183,-0.01140,
3.35938,0.16293,0.03924,-0.71137,0.10804,0.95722,0.29451,,,0.80010,0.59752,-0.05180,-0.01143,
3.36719,0.19727,-0.06762,-0.71137,0.10707,0.95722,0.29354,,,0.80009,0.59753,-0.05177,-0.01147,
3.37500,0.23162,0.11047,-0.53674,0.11046,0.96113,0.30080,,,0.80008,0.59755,-0.05175,-0.01150,
3.38281,0.19727,0.14609,-0.53674,0.10707,0.96454,0.30419,,,0.80007,0.59756,-0.05172,-0.01152,
3.39063,0.16293,0.03924,-0.60659,0.10173,0.96650,0.30951,,,0.80006,0.59757,-0.05169,-0.01155,
3.39844,0.12859,0.03924,-0.57167,0.10513,0.96210,0.31677,,,0.80006,0.59758,-0.05166,-0.01158,
3.40625,0.19727,0.14609,-0.74630,0.10852,0.96796,0.31483,,,0.80005,0.59760,-0.05163,-0.01161,
3.41406,0.40333,-0.06762,-0.60659,0.09882,0.96552,0.31144,,,0.80003,0.59762,-0.05161,-0.01165,
3.42188,0.23162,-0.03200,-0.60659,0.10610,0.96601,0.30661,,,0.80002,0.59763,-0.05158,-0.01168,
3.42969,0.30030,0.07486,-0.53674,0.10755,0.96601,0.31096,,,0.80001,0.59765,-0.05156,-0.01171,
3.43750,0.26596,-0.03200,-0.53674,0.11192,0.96601,0.30612,,,0.80000,0.59767,-0.05154,-0.01174,
3.44531,0.19727,0.00362,-0.60659,0.11240,0.96601,0.31144,,,0.79999,0.59768,-0.05151,-0.01177,
3.45313,0.36899,0.11047,-0.60659,0.11192,0.96015,0.31483,,,0.79998,0.59770,-0.05148,-0.01180,
3.46094,0.43768,0.00362,-0.67645,0.10998,0.96113,0.30757,,,0.79996,0.59773,-0.05146,-0.01183,
3.46875,0.33465,-0.10323,-0.85107,0.11046,0.95771,0.30757,,,0.79994,0.59775,-0.05143,-0.01188,
3.47656,0.50636,0.03924,-0.78122,0.10610,0.95966,0.29548,,,0.79992,0.59778,-0.05139,-0.01192,
3.48438,0.50636,0.07486,-0.71137,0.10513,0.96113,0.29693,,,0.79990,0.59781,-0.05136,-0.01195,
3.49219,0.40333,0.07486,-0.50182,0.11483,0.95430,0.29693,,,0.79988,0.59784,-0.05134,-0.01198,
3.50000,0.43768,0.00362,-0.64152,0.10949,0.95918,0.30467,,,0.79987,0.59786,-0.05131,-0.01201,
3.50781,0.43768,0.07486,-0.71137,0.10949,0.96503,0.30757,,,0.79985,0.59789,-0.05128,-0.01204,
3.51563,0.60939,0.00362,-0.64152,0.10124,0.96601,0.31290,,,0.79982,0.59792,-0.05125,-0.01208,
3.52344,0.47202,-0.03200,-0.53674,0.11046,0.96601,0.31870,,,0.79980,0.59795,-0.05123,-0.01211,
3.53125,0.36899,0.07486,-0.71137,0.10221,0.96601,0.31532,,,0.79979,0.59797,-0.05120,-0.01214,
3.53906,0.47202,0.18171,-0.74630,0.10416,0.96698,0.31096,,,0.79977,0.59800,-0.05116,-0.01217,
3.54688,0.54071,0.25295,-0.57167,0.10998,0.96747,0.31241,,,0.79975,0.59803,-0.05112,-0.01219,
3.55469,0.43768,0.28856,-0.57167,0.11338,0.96454,0.31193,,,0.79973,0.59806,-0.05108,-0.01221,
3.56250,0.50636,0.25295,-0.60659,0.10804,0.96113,0.30951,,,0.79971,0.59809,-0.05105,-0.01223,
3.57031,0.33465,0.11047,-0.67645,0.10755,0.95478,0.29257,,,0.79969,0.59811,-0.05101,-0.01226,
3.57813,0.54071,0.07486,-0.74630,0.11095,0.95918,0.30273,,,0.79967,0.59814,-0.05098,-0.01230,
3.58594,0.26596,0.28856,-0.50182,0.11095,0.94698,0.28822,,,0.79966,0.59816,-0.05094,-0.01231,
3.59375,0.43768,0.18171,-0.64152,0.10852,0.96210,0.29209,,,0.79964,0.59819,-0.05091,-0.01234,
3.60156,0.26596,0.18171,-0.46689,0.10270,0.95820,0.29693,,,0.79963,0.59820,-0.05088,-0.01235,
3.60938,0.12859,0.32418,-0.57167,0.11046,0.96259,0.30322,,,0.79963,0.59821,-0.05084,-0.01237,
3.61719,0.19727,0.25295,-0.39704,0.11386,0.96113,0.29838,,,0.79962,0.59822,-0.05081,-0.01238,
3.62500,0.30030,0.11047,-0.36212,0.10270,0.96942,0.30661,,,0.79961,0.59824,-0.05079,-0.01240,
3.63281,0.23162,0.21733,-0.39704,0.10901,0.96894,0.31774,,,0.79960,0.59826,-0.05076,-0.01241,
3.64063,0.19727,0.25295,-0.32719,0.10367,0.97089,0.31677,,,0.79959,0.59827,-0.05073,-0.01242,
3.64844,0.23162,0.32418,-0.18749,0.10610,0.96650,0.31048,,,0.79958,0.59828,-0.05071,-0.01241,
3.65625,0.36899,0.39542,-0.25734,0.11483,0.96454,0.30177,,,0.79957,0.59830,-0.05068,-0.01241,
3.66406,0.23162,0.43104,-0.15257,0.11143,0.96308,0.30322,,,0.79956,0.59832,-0.05065,-0.01240,
3.67188,0.30030,0.21733,-0.39704,0.10658,0.96259,0.31386,,,0.79955,0.59833,-0.05062,-0.01241,
3.67969,0.16293,0.21733,-0.43197,0.10610,0.96357,0.30854,,,0.79954,0.59834,-0.05059,-0.01242,
3.68750,0.23162,0.35980,-0.29227,0.10561,0.96698,0.31048,,,0.79954,0.59836,-0.05056,-0.01242,
3.69531,0.26596,0.43104,-0.25734,0.10367,0.95186,0.30370,,,0.79953,0.59837,-0.05052,-0.01242,
3.70313,0.26596,0.32418,-0.22242,0.11532,0.95430,0.30177,,,0.79952,0.59839,-0.05050,-0.01242,
3.71094,0.47202,0.28856,-0.29227,0.10755,0.95674,0.29886,,,0.79950,0.59842,-0.05047,-0.01242,
3.71875,0.33465,0.32418,-0.25734,0.11192,0.96162,0.30273,,,0.79948,0.59844,-0.05044,-0.01242,
3.72656,0.26596,0.43104,-0.18749,0.10998,0.95137,0.29741,,,0.79948,0.59845,-0.05041,-0.01241,
3.73438,0.26596,0.39542,-0.11764,0.10318,0.96406,0.29693,,,0.79947,0.59847,-0.05039,-0.01240,
3.74219,0.26596,0.28856,-0.15257,0.10901,0.95674,0.30031,,,0.79946,0.59848,-0.05036,-0.01240,
3.75000,0.26596,0.18171,-0.22242,0.10707,0.95869,0.30661,,,0.79945,0.59850,-0.05034,-0.01240,
3.75781,0.33465,0.32418,-0.29227,0.10027,0.96259,0.31144,,,0.79943,0.59852,-0.05032,-0.01240,
3.76563,0.40333,0.28856,-0.32719,0.10901,0.96894,0.31290,,,0.79942,0.59854,-0.05029,-0.01241,
3.77344,0.40333,0.18171,-0.29227,0.11095,0.96601,0.31241,,,0.79940,0.59856,-0.05027,-0.01241,
3.78125,0.16293,0.28856,-0.39704,0.10998,0.96796,0.31290,,,0.79939,0.59857,-0.05023,-0.01242,
3.78906,0.30030,0.32418,-0.39704,0.10124,0.96308,0.31144,,,0.79938,0.59859,-0.05020,-0.01243,
3.79688,0.30030,0.21733,-0.50182,0.10707,0.96210,0.31241,,,0.79937,0.59861,-0.05017,-0.01245,
3.80469,0.36899,0.18171,-0.60659,0.11289,0.96210,0.30322,,,0.79936,0.59863,-0.05013,-0.01247,
3.81250,0.36899,0.25295,-0.57167,0.12065,0.96454,0.31241,,,0.79934,0.59865,-0.05010,-0.01249,
3.82031,0.40333,0.11047,-0.67645,0.11483,0.96064,0.30467,,,0.79932,0.59868,-0.05006,-0.01252,
3.82813,0.30030,0.14609,-0.64152,0.10852,0.96113,0.29935,,,0.79931,0.59870,-0.05003,-0.01255,
3.83594,0.33465,0.11047,-0.81615,0.10804,0.96601,0.30322,,,0.79930,0.59872,-0.04999,-0.01259,
3.84375,0.05990,0.11047,-0.71137,0.11580,0.95625,0.30467,,,0.79930,0.59873,-0.04996,-0.01262,
3.85156,0.19727,0.07486,-0.81615,0.10901,0.95088,0.30612,,,0.79929,0.59874,-0.04992,-0.01266,
3.85938,0.16293,0.07486,-0.92092,0.09882,0.96064,0.30612,,,0.79928,0.59875,-0.04988,-0.01271,
3.86719,0.23162,0.07486,-0.99077,0.10464,0.96991,0.30661,,,0.79927,0.59877,-0.04983,-0.01276,
3.87500,0.19727,0.03924,-1.02570,0.10173,0.96601,0.31338,,,0.79926,0.59878,-0.04979,-0.01281,
3.88281,0.19727,0.07486,-0.95585,0.09688,0.96503,0.31967,,,0.79925,0.59880,-0.04975,-0.01286,
3.89063,0.16293,0.11047,-1.02570,0.10610,0.97333,0.32016,,,0.79925,0.59881,-0.04970,-0.01291,
3.89844,0.33465,0.03924,-0.99077,0.10998,0.96406,0.31241,,,0.79923,0.59883,-0.04966,-0.01296,
3.90625,0.40333,0.07486,-0.85107,0.10852,0.96698,0.30661,,,0.79921,0.59885,-0.04962,-0.01301,
3.91406,0.23162,0.07486,-0.88600,0.10513,0.96357,0.30999,,,0.79920,0.59887,-0.04958,-0.01305,
3.92188,0.23162,0.07486,-0.85107,0.10998,0.95869,0.30080,,,0.79919,0.59889,-0.04954,-0.01309,
3.92969,0.33465,0.21733,-0.81615,0.10707,0.95625,0.29499,,,0.79918,0.59891,-0.04949,-0.01313,
3.93750,0.36899,0.21733,-0.74630,0.10464,0.95625,0.29644,,,0.79917,0.59893,-0.04945,-0.01316,
3.94531,0.40333,-0.06762,-0.88600,0.11095,0.95478,0.29983,,,0.79915,0.59895,-0.04942,-0.01321,
3.95313,0.40333,0.32418,-0.78122,0.10610,0.95722,0.30467,,,0.79913,0.59898,-0.04937,-0.01324,
3.96094,0.43768,0.21733,-0.81615,0.10076,0.96259,0.30564,,,0.79911,0.59901,-0.04933,-0.01327,
3.96875,0.33465,0.25295,-0.67645,0.11192,0.96747,0.31628,,,0.79910,0.59903,-0.04929,-0.01330,
3.97656,0.40333,0.28856,-0.81615,0.10949,0.96406,0.31386,,,0.79908,0.59905,-0.04924,-0.01333,
3.98438,0.33465,0.25295,-0.74630,0.10318,0.96942,0.31435,,,0.79907,0.59907,-0.04919,-0.01336,
3.99219,0.33465,0.21733,-0.64152,0.10658,0.96942,0.31435,,,0.79906,0.59909,-0.04916,-0.01338,
4.00000,0.33465,0.21733,-0.64152,0.10464,0.96650,0.30951,,,0.79904,0.59911,-0.04912,-0.01341,
4.00781,0.30030,0.35980,-0.60659,0.10561,0.95918,0.31241,1022.695,24.9,0.79903,0.59913,-0.04907,-0.01342,
4.01563,0.40333,0.35980,-0.60659,0.11289,0.96162,0.30709,,,0.79902,0.59916,-0.04903,-0.01344,
4.02344,0.47202,0.32418,-0.67645,0.10755,0.95478,0.29354,,,0.79900,0.59918,-0.04898,-0.01346,
4.03125,0.57505,0.25295,-0.43197,0.10804,0.96210,0.29886,,,0.79897,0.59922,-0.04895,-0.01347,
4.03906,0.43768,0.25295,-0.53674,0.10998,0.95918,0.29886,,,0.79896,0.59924,-0.04892,-0.01349,
4.04688,0.50636,0.25295,-0.43197,0.11046,0.95722,0.29548,,,0.79894,0.59927,-0.04889,-0.01350,
4.05469,0.50636,0.35980,-0.29227,0.10949,0.96113,0.30225,,,0.79892,0.59930,-0.04886,-0.01350,
4.06250,0.47202,0.11047,-0.36212,0.10658,0.95576,0.29499,,,0.79890,0.59933,-0.04884,-0.01352,
4.07031,0.36899,0.21733,-0.32719,0.10998,0.96113,0.30128,,,0.79888,0.59935,-0.04881,-0.01352,
4.07813,0.36899,0.32418,-0.36212,0.10416,0.95918,0.30757,,,0.79887,0.59937,-0.04878,-0.01353,
4.08594,0.40333,0.25295,-0.43197,0.10318,0.96210,0.30806,,,0.79885,0.59940,-0.04875,-0.01354,
4.09375,0.33465,0.21733,-0.36212,0.10416,0.96698,0.30661,,,0.79884,0.59942,-0.04872,-0.01355,
4.10156,0.30030,0.32418,-0.32719,0.10561,0.96552,0.31144,,,0.79883,0.59943,-0.04869,-0.01355,
4.10938,0.50636,0.11047,-0.46689,0.10755,0.96747,0.30806,,,0.79881,0.59946,-0.04867,-0.01357,
4.11719,0.30030,0.35980,-0.32719,0.11095,0.96650,0.31048,,,0.79880,0.59948,-0.04863,-0.01357,
4.12500,0.40333,0.18171,-0.43197,0.10513,0.96601,0.31144,,,0.79878,0.59950,-0.04861,-0.01359,
4.13281,0.43768,0.25295,-0.46689,0.11240,0.96454,0.30080,,,0.79876,0.59953,-0.04857,-0.01360,
4.14063,0.43768,0.32418,-0.46689,0.11580,0.96308,0.30419,,,0.79874,0.59955,-0.04854,-0.01361,
4.14844,0.43768,0.11047,-0.50182,0.11095,0.96308,0.29789,,,0.79873,0.59958,-0.04851,-0.01364,
4.15625,0.50636,0.25295,-0.50182,0.11338,0.95820,0.29789,,,0.79871,0.59961,-0.04848,-0.01365,
4.16406,0.30030,0.21733,-0.46689,0.11192,0.95869,0.29451,,,0.79869,0.59963,-0.04845,-0.01367,
4.17188,0.19727,0.21733,-0.60659,0.10416,0.95918,0.30854,,,0.79869,0.59964,-0.04841,-0.01369,
4.17969,0.16293,0.32418,-0.71137,0.11095,0.96064,0.30370,,,0.79868,0.59965,-0.04836,-0.01371,
4.18750,0.23162,0.11047,-0.78122,0.10707,0.96210,0.30370,,,0.79867,0.59967,-0.04833,-0.01375,
4.19531,0.05990,0.11047,-0.71137,0.11046,0.96015,0.31774,,,0.79867,0.59967,-0.04829,-0.01379,
4.20313,0.12859,0.21733,-0.64152,0.10707,0.96650,0.31435,,,0.79866,0.59968,-0.04825,-0.01381,
4.21094,0.19727,0.11047,-0.78122,0.10416,0.96210,0.30854,,,0.79865,0.59970,-0.04822,-0.01385,
4.21875,0.33465,0.00362,-0.81615,0.10610,0.97040,0.31096,,,0.79864,0.59972,-0.04818,-0.01389,
4.22656,0.30030,0.14609,-0.60659,0.11143,0.96845,0.31193,,,0.79863,0.59974,-0.04815,-0.01392,
4.23438,0.33465,0.18171,-0.60659,0.10949,0.96357,0.31290,,,0.79861,0.59976,-0.04812,-0.01394,
4.24219,0.30030,0.18171,-0.60659,0.10852,0.95918,0.29693,,,0.79860,0.59977,-0.04808,-0.01397,
4.25000,0.50636,0.11047,-0.64152,0.10707,0.95869,0.30806,,,0.79858,0.59980,-0.04805,-0.01400,
4.25781,0.36899,0.28856,-0.71137,0.11046,0.96113,0.30467,,,0.79857,0.59983,-0.04801,-0.01402,
4.26563,0.47202,0.21733,-0.64152,0.10367,0.94795,0.29644,,,0.79855,0.59985,-0.04797,-0.01405,
4.27344,0.26596,0.14609,-0.60659,0.10173,0.95918,0.30854,,,0.79854,0.59987,-0.04794,-0.01407,
4.28125,0.36899,0.03924,-0.71137,0.11338,0.95771,0.30515,,,0.79852,0.59989,-0.04790,-0.01411,
4.28906,0.43768,0.07486,-0.71137,0.10270,0.96308,0.30757,,,0.79850,0.59992,-0.04787,-0.01414,
4.29688,0.33465,0.14609,-0.85107,0.10124,0.96259,0.30903,,,0.79849,0.59994,-0.04783,-0.01418,
4.30469,0.33465,0.28856,-0.85107,0.10076,0.96650,0.31290,,,0.79847,0.59996,-0.04778,-0.01421,
4.31250,0.36899,0.07486,-0.74630,0.10658,0.96552,0.31435,,,0.79846,0.59998,-0.04775,-0.01425,
4.32031,0.30030,0.03924,-0.92092,0.10852,0.97089,0.31677,,,0.79845,0.60000,-0.04771,-0.01430,
4.32813,0.30030,0.25295,-0.81615,0.10755,0.96552,0.31338,,,0.79843,0.60002,-0.04766,-0.01433,
4.33594,0.43768,0.28856,-0.81615,0.10513,0.96698,0.30612,,,0.79842,0.60005,-0.04761,-0.01436,
4.34375,0.54071,0.21733,-0.57167,0.10318,0.96991,0.30709,,,0.79839,0.60008,-0.04758,-0.01438,
4.35156,0.33465,0.32418,-0.67645,0.10561,0.96308,0.31193,,,0.79838,0.60010,-0.04753,-0.01441,
4.35938,0.33465,0.25295,-0.60659,0.10658,0.95966,0.30515,,,0.79837,0.60012,-0.04749,-0.01443,
4.36719,0.33465,0.28856,-0.53674,0.10513,0.95820,0.30951,,,0.79835,0.60014,-0.04746,-0.01444,
4.37500,0.33465,0.39542,-0.46689,0.10513,0.96357,0.29789,,,0.79834,0.60016,-0.04742,-0.01445,
4.38281,0.26596,0.28856,-0.43197,0.11046,0.95625,0.29693,,,0.79833,0.60018,-0.04738,-0.01446,
4.39063,0.30030,0.25295,-0.39704,0.11095,0.95918,0.29935,,,0.79832,0.60020,-0.04735,-0.01447,
4.39844,0.19727,0.03924,-0.43197,0.11483,0.95966,0.29983,,,0.79831,0.60021,-0.04733,-0.01449,
4.40625,0.40333,0.25295,-0.57167,0.10464,0.96552,0.30903,,,0.79829,0.60023,-0.04730,-0.01451,
4.41406,0.33465,0.32418,-0.57167,0.10610,0.96552,0.31048,,,0.79828,0.60025,-0.04726,-0.01453,
4.42188,0.16293,0.35980,-0.46689,0.10804,0.96162,0.31532,,,0.79827,0.60026,-0.04722,-0.01454,
4.42969,0.30030,0.14609,-0.39704,0.10124,0.96552,0.31870,,,0.79826,0.60028,-0.04719,-0.01455,
4.43750,0.50636,0.39542,-0.36212,0.10707,0.97381,0.31725,,,0.79824,0.60031,-0.04716,-0.01456,
4.44531,0.33465,0.28856,-0.29227,0.10561,0.96747,0.31532,,,0.79823,0.60033,-0.04713,-0.01456,
4.45313,0.40333,0.18171,-0.25734,0.10610,0.96503,0.30854,,,0.79821,0.60035,-0.04711,-0.01456,
4.46094,0.50636,0.18171,-0.29227,0.10949,0.95820,0.30225,,,0.79819,0.60038,-0.04709,-0.01457,
4.46875,0.26596,0.32418,-0.11764,0.10901,0.95771,0.30757,,,0.79818,0.60040,-0.04707,-0.01456,
4.47656,0.33465,0.32418,-0.29227,0.10804,0.96162,0.30999,,,0.79817,0.60042,-0.04704,-0.01457,
4.48438,0.36899,0.28856,-0.25734,0.10998,0.96601,0.30031,,,0.79816,0.60044,-0.04701,-0.01457,
4.49219,0.47202,0.18171,-0.50182,0.10804,0.95722,0.30128,,,0.79814,0.60047,-0.04698,-0.01458,
4.50000,0.33465,0.28856,-0.46689,0.10901,0.95820,0.29693,,,0.79812,0.60049,-0.04695,-0.01460,
4.50781,0.50636,0.28856,-0.43197,0.10658,0.95674,0.29741,,,0.79810,0.60051,-0.04691,-0.01461,
4.51563,0.40333,0.28856,-0.46689,0.10949,0.96162,0.30515,,,0.79809,0.60054,-0.04688,-0.01462,
4.52344,0.36899,0.28856,-0.53674,0.10707,0.95625,0.30128,,,0.79807,0.60056,-0.04684,-0.01464,
4.53125,0.60939,0.18171,-0.67645,0.10804,0.96308,0.30419,,,0.79805,0.60060,-0.04681,-0.01466,
4.53906,0.30030,0.35980,-0.67645,0.11143,0.96357,0.31386,,,0.79804,0.60061,-0.04676,-0.01468,
4.54688,0.40333,0.28856,-0.78122,0.10610,0.96601,0.31919,,,0.79802,0.60064,-0.04671,-0.01471,
4.55469,0.33465,0.25295,-0.71137,0.10513,0.96796,0.30612,,,0.79801,0.60066,-0.04667,-0.01474,
4.56250,0.36899,0.03924,-0.78122,0.10658,0.96698,0.30709,,,0.79799,0.60068,-0.04664,-0.01478,
4.57031,0.40333,0.25295,-0.81615,0.10561,0.96162,0.31096,,,0.79797,0.60071,-0.04659,-0.01481,
4.57813,0.26596,0.07486,-0.67645,0.11240,0.96454,0.30661,,,0.79796,0.60072,-0.04656,-0.01485,
4.58594,0.40333,0.18171,-0.64152,0.11386,0.96406,0.30467,,,0.79795,0.60075,-0.04652,-0.01487,
4.59375,0.43768,0.14609,-0.60659,0.11192,0.96357,0.29499,,,0.79793,0.60077,-0.04649,-0.01490,
4.60156,0.19727,0.11047,-0.67645,0.10561,0.94942,0.29886,,,0.79792,0.60079,-0.04646,-0.01493,
4.60938,0.19727,0.25295,-0.64152,0.10464,0.96113,0.30128,,,0.79791,0.60080,-0.04642,-0.01495,
4.61719,0.23162,0.28856,-0.60659,0.10852,0.95918,0.29838,,,0.79790,0.60081,-0.04638,-0.01497,
4.62500,0.19727,0.00362,-0.60659,0.11143,0.96210,0.30080,,,0.79789,0.60083,-0.04635,-0.01501,
4.63281,0.16293,0.11047,-0.57167,0.10464,0.95381,0.29451,,,0.79789,0.60084,-0.04632,-0.01503,
4.64063,0.26596,0.11047,-0.53674,0.09930,0.96064,0.30709,,,0.79787,0.60085,-0.04629,-0.01506,
4.64844,0.23162,0.18171,-0.60659,0.10513,0.96015,0.31532,,,0.79787,0.60087,-0.04626,-0.01508,
4.65625,0.16293,0.11047,-0.53674,0.10755,0.96796,0.30661,,,0.79786,0.60088,-0.04623,-0.01510,
4.66406,0.23162,0.11047,-0.53674,0.10367,0.97137,0.32016,,,0.79785,0.60089,-0.04620,-0.01513,
4.67188,0.19727,0.18171,-0.53674,0.10610,0.96210,0.31725,,,0.79784,0.60091,-0.04617,-0.01515,
4.67969,0.40333,0.07486,-0.67645,0.10998,0.96308,0.31435,,,0.79782,0.60093,-0.04614,-0.01518,
4.68750,0.40333,0.25295,-0.64152,0.10513,0.96552,0.30273,,,0.79781,0.60095,-0.04610,-0.01520,
4.69531,0.40333,0.03924,-0.46689,0.10804,0.96308,0.29886,,,0.79779,0.60098,-0.04608,-0.01523,
4.70313,0.36899,0.11047,-0.46689,0.10707,0.95186,0.29983,,,0.79778,0.60100,-0.04606,-0.01525,
4.71094,0.40333,-0.03200,-0.46689,0.11192,0.95381,0.29499,,,0.79776,0.60102,-0.04604,-0.01527,
4.71875,0.47202,0.25295,-0.39704,0.10852,0.95381,0.29596,,,0.79774,0.60105,-0.04601,-0.01528,
4.72656,0.33465,0.21733,-0.29227,0.10561,0.95234,0.29741,,,0.79773,0.60107,-0.04599,-0.01529,
4.73438,0.40333,0.18171,-0.25734,0.10852,0.95869,0.30177,,,0.79771,0.60109,-0.04597,-0.01529,
4.74219,0.33465,0.14609,-0.22242,0.10367,0.96162,0.30757,,,0.79770,0.60111,-0.04595,-0.01530,
4.75000,0.19727,0.21733,-0.29227,0.09833,0.96454,0.30854,,,0.79769,0.60112,-0.04593,-0.01530,
4.75781,0.36899,0.25295,-0.25734,0.09882,0.96454,0.30757,,,0.79767,0.60114,-0.04590,-0.01531,
4.76563,0.43768,0.21733,-0.22242,0.10221,0.96698,0.31338,,,0.79766,0.60117,-0.04588,-0.01531,
4.77344,0.40333,0.21733,-0.29227,0.09979,0.96796,0.31435,,,0.79764,0.60119,-0.04586,-0.01531,
4.78125,0.36899,0.28856,-0.25734,0.10610,0.96991,0.32064,,,0.79763,0.60121,-0.04583,-0.01532,
4.78906,0.33465,-0.03200,-0.04779,0.10270,0.96747,0.31483,,,0.79761,0.60123,-0.04583,-0.01532,
4.79688,0.50636,0.14609,-0.08272,0.10318,0.96357,0.31725,,,0.79759,0.60126,-0.04582,-0.01532,
4.80469,0.33465,0.11047,0.02206,0.10610,0.95771,0.31096,,,0.79758,0.60128,-0.04582,-0.01531,
4.81250,0.54071,0.03924,-0.08272,0.10318,0.96357,0.30370,,,0.79756,0.60131,-0.04581,-0.01531,
4.82031,0.33465,0.32418,0.12683,0.11046,0.96454,0.30757,,,0.79754,0.60133,-0.04580,-0.01529,
4.82813,0.33465,0.28856,0.19668,0.11726,0.96015,0.30273,,,0.79753,0.60134,-0.04579,-0.01526,
4.83594,0.33465,0.21733,0.05698,0.11143,0.95869,0.30177,,,0.79752,0.60136,-0.04578,-0.01525,
4.84375,0.43768,0.11047,-0.08272,0.11095,0.96454,0.30273,,,0.79750,0.60139,-0.04578,-0.01525,
4.85156,0.33465,0.21733,-0.15257,0.10416,0.96162,0.30854,,,0.79749,0.60140,-0.04576,-0.01525,
4.85938,0.33465,0.32418,-0.18749,0.10949,0.96942,0.31483,,,0.79747,0.60142,-0.04573,-0.01524,
4.86719,0.23162,0.32418,-0.08272,0.10464,0.96015,0.32306,,,0.79747,0.60144,-0.04571,-0.01523,
4.87500,0.40333,0.43104,-0.25734,0.11580,0.96357,0.31532,,,0.79745,0.60146,-0.04568,-0.01523,
4.88281,0.47202,0.28856,-0.22242,0.10755,0.96259,0.31096,,,0.79743,0.60149,-0.04565,-0.01523,
4.89063,0.47202,0.03924,-0.36212,0.10464,0.96796,0.31241,,,0.79741,0.60151,-0.04564,-0.01525,
4.89844,0.40333,0.14609,-0.32719,0.11192,0.96357,0.31628,,,0.79740,0.60154,-0.04562,-0.01526,
4.90625,0.40333,0.14609,-0.46689,0.10707,0.96991,0.31580,,,0.79738,0.60156,-0.04559,-0.01527,
4.91406,0.43768,0.21733,-0.32719,0.10561,0.96698,0.30951,,,0.79736,0.60159,-0.04557,-0.01528,
4.92188,0.23162,0.25295,-0.39704,0.11240,0.96552,0.30709,,,0.79735,0.60160,-0.04554,-0.01529,
4.92969,0.40333,0.25295,-0.43197,0.11483,0.96162,0.31338,,,0.79734,0.60162,-0.04550,-0.01530,
4.93750,0.47202,0.32418,-0.46689,0.10852,0.95527,0.29112,,,0.79732,0.60165,-0.04547,-0.01531,
4.94531,0.33465,0.14609,-0.50182,0.11046,0.95966,0.29741,,,0.79730,0.60167,-0.04544,-0.01533,
4.95313,0.40333,0.21733,-0.57167,0.10755,0.95966,0.29402,,,0.79729,0.60169,-0.04541,-0.01536,
4.96094,0.43768,0.28856,-0.53674,0.11192,0.95430,0.30564,,,0.79727,0.60172,-0.04537,-0.01537,
4.96875,0.43768,0.21733,-0.57167,0.10852,0.96698,0.30370,,,0.79725,0.60175,-0.04533,-0.01539,
4.97656,0.33465,0.35980,-0.67645,0.10610,0.96064,0.31193,,,0.79724,0.60177,-0.04529,-0.01541,
4.98438,0.36899,0.14609,-0.60659,0.10561,0.95576,0.30951,,,0.79722,0.60179,-0.04525,-0.01544,
4.99219,0.43768,0.25295,-0.74630,0.10804,0.96894,0.30419,,,0.79721,0.60181,-0.04521,-0.01547,
5.00000,0.30030,0.18171,-0.85107,0.11338,0.95966,0.30612,,,0.79719,0.60183,-0.04517,-0.01551,
5.00781,0.40333,0.35980,-0.88600,0.11095,0.96698,0.30999,1022.738,24.9,0.79718,0.60186,-0.04511,-0.01554,
5.01563,0.36899,0.39542,-0.78122,0.11192,0.96552,0.31096,,,0.79716,0.60188,-0.04506,-0.01556,
5.02344,0.26596,0.43104,-0.92092,0.10949,0.96894,0.30806,,,0.79715,0.60190,-0.04500,-0.01559,
5.03125,0.47202,0.18171,-0.92092,0.11386,0.95966,0.30322,,,0.79713,0.60193,-0.04495,-0.01563,
5.03906,0.33465,0.32418,-0.99077,0.11435,0.96406,0.30564,,,0.79712,0.60195,-0.04489,-0.01567,
5.04688,0.40333,0.28856,-1.02570,0.10755,0.95771,0.29354,,,0.79710,0.60197,-0.04483,-0.01572,
5.05469,0.33465,0.25295,-1.06062,0.11386,0.95869,0.29306,,,0.79709,0.60200,-0.04478,-0.01576,
5.06250,0.43768,0.25295,-0.95585,0.11240,0.95478,0.29306,,,0.79707,0.60202,-0.04473,-0.01580,
5.07031,0.26596,0.18171,-1.06062,0.10998,0.95722,0.29209,,,0.79706,0.60204,-0.04467,-0.01585,
5.07813,0.23162,0.18171,-1.06062,0.10707,0.95722,0.29838,,,0.79705,0.60206,-0.04462,-0.01590,
5.08594,0.40333,0.14609,-0.95585,0.10464,0.96650,0.30515,,,0.79703,0.60208,-0.04457,-0.01595,
5.09375,0.33465,0.18171,-0.78122,0.10513,0.96454,0.30419,,,0.79702,0.60210,-0.04453,-0.01598,
5.10156,0.26596,0.21733,-0.71137,0.10513,0.96308,0.30709,,,0.79700,0.60212,-0.04449,-0.01601,
5.10938,0.33465,0.25295,-0.64152,0.10707,0.96991,0.31725,,,0.79699,0.60214,-0.04445,-0.01603,
5.11719,0.36899,0.07486,-0.74630,0.10610,0.96503,0.31967,,,0.79698,0.60216,-0.04442,-0.01607,
5.12500,0.54071,0.00362,-0.81615,0.10901,0.96650,0.31193,,,0.79695,0.60219,-0.04438,-0.01611,
5.13281,0.36899,0.14609,-0.78122,0.11289,0.96503,0.30757,,,0.79694,0.60222,-0.04434,-0.01615,
5.14063,0.26596,0.14609,-0.78122,0.11240,0.96650,0.30999,,,0.79693,0.60223,-0.04430,-0.01618,
5.14844,0.36899,0.00362,-0.71137,0.10852,0.96747,0.30273,,,0.79691,0.60226,-0.04427,-0.01622,
5.15625,0.26596,0.07486,-0.60659,0.11629,0.96162,0.30128,,,0.79690,0.60227,-0.04425,-0.01625,
5.16406,0.40333,-0.13885,-0.67645,0.10221,0.95722,0.29838,,,0.79688,0.60230,-0.04423,-0.01629,
5.17188,0.30030,0.14609,-0.39704,0.10318,0.94502,0.29499,,,0.79687,0.60231,-0.04420,-0.01630,
5.17969,0.43768,0.03924,-0.50182,0.11338,0.96503,0.29789,,,0.79685,0.60234,-0.04418,-0.01633,
5.18750,0.30030,0.07486,-0.36212,0.10610,0.95674,0.29789,,,0.79684,0.60236,-0.04416,-0.01634,
5.19531,0.30030,0.25295,-0.32719,0.10998,0.96406,0.30177,,,0.79683,0.60237,-0.04414,-0.01635,
5.20313,0.33465,0.35980,-0.25734,0.10998,0.95527,0.30661,,,0.79681,0.60239,-0.04411,-0.01635,
5.21094,0.26596,0.14609,-0.18749,0.10804,0.96259,0.31048,,,0.79680,0.60241,-0.04409,-0.01635,
5.21875,0.26596,0.21733,-0.18749,0.11240,0.97235,0.31774,,,0.79679,0.60242,-0.04407,-0.01635,
5.22656,0.33465,0.25295,-0.15257,0.10901,0.96601,0.31725,,,0.79678,0.60244,-0.04405,-0.01635,
5.23438,0.26596,0.28856,-0.25734,0.10561,0.96747,0.31193,,,0.79677,0.60246,-0.04403,-0.01635,
5.24219,0.33465,0.28856,-0.18749,0.10367,0.96747,0.30612,,,0.79675,0.60248,-0.04400,-0.01635,
5.25000,0.57505,0.03924,-0.32719,0.11046,0.96552,0.31290,,,0.79673,0.60251,-0.04399,-0.01636,
5.25781,0.50636,0.35980,-0.32719,0.10901,0.96601,0.31096,,,0.79671,0.60254,-0.04396,-0.01636,
5.26563,0.33465,0.25295,-0.32719,0.10901,0.95430,0.29693,,,0.79670,0.60256,-0.04393,-0.01637,
5.27344,0.26596,0.32418,-0.32719,0.11143,0.95771,0.29741,,,0.79669,0.60257,-0.04390,-0.01637,
5.28125,0.36899,0.21733,-0.29227,0.11435,0.95527,0.29838,,,0.79667,0.60259,-0.04387,-0.01638,
5.28906,0.43768,0.21733,-0.39704,0.11532,0.95771,0.29789,,,0.79665,0.60262,-0.04385,-0.01639,
5.29688,0.43768,0.35980,-0.39704,0.10561,0.95869,0.29886,,,0.79664,0.60264,-0.04381,-0.01640,
5.30469,0.54071,0.18171,-0.50182,0.10949,0.95625,0.29983,,,0.79662,0.60268,-0.04378,-0.01641,
5.31250,0.33465,0.35980,-0.46689,0.10707,0.95576,0.30951,,,0.79660,0.60270,-0.04374,-0.01642,
5.32031,0.47202,0.35980,-0.57167,0.11046,0.96991,0.31241,,,0.79658,0.60272,-0.04370,-0.01644,
5.32813,0.57505,0.35980,-0.60659,0.11289,0.96894,0.31532,,,0.79656,0.60276,-0.04366,-0.01646,
5.33594,0.43768,0.25295,-0.71137,0.11143,0.97040,0.31483,,,0.79654,0.60278,-0.04362,-0.01648,
5.34375,0.43768,-0.03200,-0.64152,0.10416,0.96698,0.31677,,,0.79652,0.60281,-0.04359,-0.01652,
5.35156,0.47202,0.21733,-0.71137,0.10610,0.97284,0.31870,,,0.79650,0.60284,-0.04355,-0.01655,
5.35938,0.40333,0.07486,-0.85107,0.11192,0.96650,0.31241,,,0.79649,0.60286,-0.04351,-0.01659,
5.36719,0.40333,0.11047,-0.67645,0.11046,0.96601,0.30273,,,0.79647,0.60288,-0.04348,-0.01662,
5.37500,0.19727,0.25295,-0.64152,0.10610,0.95771,0.30177,,,0.79646,0.60290,-0.04344,-0.01664,
5.38281,0.33465,0.14609,-0.57167,0.11289,0.95869,0.30322,,,0.79645,0.60292,-0.04341,-0.01667,
5.39063,0.36899,0.14609,-0.60659,0.11192,0.95869,0.29596,,,0.79643,0.60294,-0.04338,-0.01669,
5.39844,0.30030,0.28856,-0.60659,0.10610,0.96259,0.30128,,,0.79642,0.60296,-0.04334,-0.01671,
5.40625,0.30030,0.14609,-0.64152,0.11240,0.96210,0.30080,,,0.79641,0.60298,-0.04330,-0.01674,
5.41406,0.12859,0.14609,-0.64152,0.10949,0.96308,0.30177,,,0.79640,0.60299,-0.04327,-0.01677,
5.42188,0.12859,0.14609,-0.67645,0.10949,0.95722,0.29741,,,0.79640,0.60299,-0.04323,-0.01680,
5.42969,0.16293,0.21733,-0.71137,0.10998,0.96601,0.30080,,,0.79639,0.60301,-0.04319,-0.01683,
5.43750,0.16293,0.07486,-0.71137,0.10270,0.96308,0.30709,,,0.79638,0.60302,-0.04316,-0.01686,
5.44531,0.19727,0.18171,-0.85107,0.10852,0.96650,0.30757,,,0.79637,0.60303,-0.04311,-0.01690,
5.45313,0.30030,0.07486,-0.92092,0.10901,0.97284,0.31338,,,0.79636,0.60305,-0.04307,-0.01695,
5.46094,0.30030,0.03924,-0.88600,0.10610,0.96747,0.30903,,,0.79635,0.60307,-0.04303,-0.01699,
5.46875,0.23162,0.21733,-0.81615,0.10658,0.96308,0.31774,,,0.79634,0.60308,-0.04299,-0.01703,
5.47656,0.05990,0.21733,-0.67645,0.10755,0.95722,0.30999,,,0.79633,0.60309,-0.04295,-0.01705,
5.48438,0.26596,0.18171,-0.78122,0.11289,0.96113,0.29789,,,0.79632,0.60311,-0.04291,-0.01709,
5.49219,0.26596,0.35980,-0.64152,0.11386,0.95576,0.29499,,,0.79631,0.60312,-0.04286,-0.01711,
5.50000,0.33465,0.25295,-0.57167,0.10949,0.95527,0.28870,,,0.79630,0.60314,-0.04283,-0.01713,
5.50781,0.40333,0.07486,-0.64152,0.11289,0.95039,0.29354,,,0.79628,0.60317,-0.04280,-0.01716,
5.51563,0.33465,0.28856,-0.71137,0.11677,0.95381,0.29209,,,0.79627,0.60319,-0.04275,-0.01718,
5.52344,0.30030,0.18171,-0.81615,0.11192,0.95625,0.29644,,,0.79626,0.60321,-0.04271,-0.01722,
5.53125,0.30030,0.43104,-0.85107,0.10707,0.95478,0.29886,,,0.79624,0.60322,-0.04265,-0.01725,
5.53906,0.19727,0.21733,-0.92092,0.10949,0.95576,0.30080,,,0.79623,0.60324,-0.04260,-0.01729,
5.54688,0.36899,0.28856,-0.95585,0.10318,0.96698,0.30370,,,0.79622,0.60326,-0.04255,-0.01733,
5.55469,0.23162,0.28856,-0.99077,0.10124,0.96406,0.30951,,,0.79621,0.60328,-0.04249,-0.01737,
5.56250,0.54071,0.21733,-0.88600,0.11192,0.96064,0.31774,,,0.79619,0.60331,-0.04244,-0.01741,
5.57031,0.40333,0.28856,-0.92092,0.10464,0.96357,0.31096,,,0.79617,0.60333,-0.04239,-0.01744,
5.57813,0.50636,0.32418,-0.95585,0.10416,0.96796,0.30903,,,0.79615,0.60336,-0.04233,-0.01748,
5.58594,0.40333,0.32418,-0.92092,0.11046,0.96845,0.30999,,,0.79613,0.60339,-0.04228,-0.01751,
5.59375,0.50636,0.28856,-1.06062,0.10755,0.96113,0.30806,,,0.79611,0.60342,-0.04222,-0.01756,
5.60156,0.43768,0.28856,-1.20032,0.10755,0.95527,0.30225,,,0.79609,0.60345,-0.04216,-0.01761,
5.60938,0.40333,0.39542,-1.09555,0.10707,0.95820,0.29886,,,0.79608,0.60347,-0.04209,-0.01765,
5.61719,0.30030,0.32418,-0.99077,0.10949,0.96454,0.30031,,,0.79606,0.60349,-0.04203,-0.01769,
5.62500,0.23162,0.39542,-1.09555,0.10755,0.96064,0.30225,,,0.79605,0.60351,-0.04197,-0.01773,
5.63281,0.26596,0.25295,-1.06062,0.10561,0.95918,0.30370,,,0.79604,0.60353,-0.04191,-0.01778,
5.64063,0.47202,0.46665,-1.16540,0.10464,0.95722,0.29935,,,0.79602,0.60356,-0.04184,-0.01782,
5.64844,0.47202,0.25295,-1.09555,0.10318,0.96259,0.30612,,,0.79600,0.60358,-0.04178,-0.01787,
5.65625,0.47202,0.32418,-0.99077,0.10318,0.96503,0.31241,,,0.79598,0.60361,-0.04172,-0.01791,
5.66406,0.43768,0.46665,-1.02570,0.10707,0.96308,0.31725,,,0.79597,0.60364,-0.04165,-0.01795,
5.67188,0.64374,0.32418,-1.20032,0.10949,0.96747,0.31338,,,0.79594,0.60368,-0.04159,-0.01800,
5.67969,0.50636,0.25295,-1.09555,0.10610,0.96991,0.31483,,,0.79592,0.60371,-0.04153,-0.01804,
5.68750,0.26596,0.46665,-1.20032,0.10755,0.96503,0.32451,,,0.79591,0.60373,-0.04145,-0.01809,
5.69531,0.47202,0.46665,-1.40987,0.10221,0.96991,0.30806,,,0.79589,0.60376,-0.04137,-0.01814,
5.70313,0.40333,0.75160,-1.30510,0.09396,0.96698,0.30999,,,0.79587,0.60379,-0.04128,-0.01818,
5.71094,0.33465,0.57351,-1.02570,0.11386,0.96747,0.30370,,,0.79586,0.60381,-0.04120,-0.01821,
5.71875,0.26596,0.43104,-1.23525,0.12502,0.94795,0.30757,,,0.79585,0.60383,-0.04113,-0.01826,
5.72656,0.43768,0.57351,-1.79405,0.10610,0.95088,0.29838,,,0.79583,0.60385,-0.04103,-0.01833,
5.73438,0.40333,0.57351,-2.10838,0.10658,0.96259,0.30031,,,0.79581,0.60388,-0.04091,-0.01842,
5.74219,0.33465,0.50227,-1.72420,0.10416,0.95674,0.30177,,,0.79579,0.60391,-0.04081,-0.01850,
5.75000,0.26596,0.46665,-1.75912,0.10707,0.95966,0.30177,,,0.79578,0.60393,-0.04071,-0.01857,
5.75781,0.12859,0.50227,-1.47972,0.10901,0.95820,0.30080,,,0.79578,0.60394,-0.04063,-0.01863,
5.76563,0.05990,0.46665,-1.79405,0.10755,0.95918,0.30806,,,0.79577,0.60395,-0.04053,-0.01871,
5.77344,-0.04313,0.46665,-1.93375,0.09833,0.96259,0.30951,,,0.79577,0.60395,-0.04042,-0.01879,
5.78125,-0.04313,0.43104,-2.14330,0.11435,0.95966,0.31580,,,0.79577,0.60395,-0.04031,-0.01889,
5.78906,0.05990,0.71598,-2.42270,0.10804,0.96650,0.31241,,,0.79577,0.60397,-0.04017,-0.01899,
5.79688,-0.07747,0.85845,-2.59733,0.10707,0.96942,0.30709,,,0.79577,0.60397,-0.04002,-0.01910,
5.80469,0.19727,0.75160,-2.59733,0.09979,0.97089,0.30709,,,0.79576,0.60399,-0.03987,-0.01921,
5.81250,0.95283,1.46396,-1.79405,0.08717,0.96796,0.31096,,,0.79573,0.60405,-0.03972,-0.01924,
5.82031,1.77707,1.99823,-0.92092,0.09154,0.96747,0.30467,,,0.79566,0.60415,-0.03958,-0.01921,
5.82813,3.52859,3.52981,1.03489,0.09785,0.97089,0.29644,,,0.79552,0.60434,-0.03943,-0.01900,
5.83594,4.11242,4.63397,2.08264,0.10561,0.96747,0.30080,,,0.79537,0.60456,-0.03927,-0.01868,
5.84375,4.28414,5.02577,2.39697,0.09105,0.96113,0.30515,,,0.79521,0.60480,-0.03910,-0.01833,
5.85156,4.62758,4.88330,2.29219,0.12842,0.97235,0.28386,,,0.79503,0.60505,-0.03894,-0.01799,
5.85938,4.42152,4.88330,2.39697,0.08426,0.97430,0.29499,,,0.79487,0.60529,-0.03878,-0.01765,
5.86719,3.49424,4.42026,3.82890,0.07067,0.98553,0.30128,,,0.79474,0.60547,-0.03870,-0.01725,
5.87500,3.21950,4.17094,5.19098,0.05029,0.98797,0.30128,,,0.79462,0.60564,-0.03869,-0.01679,
5.88281,2.01747,3.49419,10.25512,0.01778,1.00651,0.31096,,,0.79456,0.60572,-0.03893,-0.01609,
5.89063,0.71242,2.63936,15.87807,0.06339,0.99431,0.31096,,,0.79455,0.60572,-0.03944,-0.01511,
5.89844,0.23162,2.63936,17.62432,0.07601,0.99187,0.31483,,,0.79457,0.60569,-0.04003,-0.01405,
5.90625,-0.45525,2.53250,19.89446,0.08426,0.97040,0.32838,,,0.79461,0.60561,-0.04071,-0.01287,
5.91406,-0.86737,2.81745,21.57086,0.08426,1.00944,0.29596,,,0.79468,0.60551,-0.04145,-0.01159,
5.92188,-1.62293,2.03385,22.51384,0.08571,0.99724,0.31241,,,0.79477,0.60536,-0.04227,-0.01029,
5.92969,-3.06535,0.64475,23.77115,0.08717,1.00456,0.32354,,,0.79491,0.60512,-0.04321,-0.00898,
5.93750,-3.68354,-0.81560,25.86665,0.07019,1.00944,0.31483,,,0.79507,0.60484,-0.04432,-0.00762,
5.94531,-4.19869,-1.45672,27.19381,0.06727,1.01676,0.31096,,,0.79526,0.60453,-0.04552,-0.00622,
5.95313,-5.33202,-3.23763,30.79110,0.05417,1.03433,0.31483,,,0.79548,0.60414,-0.04696,-0.00470,
5.96094,-6.22495,-5.41033,37.07762,-0.03075,1.09288,0.32887,,,0.79572,0.60368,-0.04878,-0.00293,
5.96875,-7.15222,-7.29809,41.79251,-0.05744,1.14998,0.34000,,,0.79600,0.60315,-0.05089,-0.00099,
5.97656,-9.45323,-12.21338,54.05123,-0.14625,1.20951,0.37097,,,0.79634,0.60245,-0.05378,0.00141,
5.98438,-12.33808,-28.45523,69.94217,-0.44178,1.47498,0.49292,,,0.79673,0.60152,-0.05819,0.00399,
5.99219,-15.25727,-56.77161,108.22011,-0.36365,1.34029,0.39274,,,0.79707,0.60025,-0.06572,0.00748,
6.00000,-16.52798,-66.06793,119.18660,-0.44469,1.57111,0.48227,,,0.79736,0.59883,-0.07419,0.01118,
6.00781,-24.22091,-87.79497,144.22792,-0.64996,1.63309,0.59744,1022.716,25.0,0.79774,0.59681,-0.08486,0.01531,
6.01563,-54.40879,-115.54146,53.21303,-1.51860,2.47145,0.95942,,,0.79919,0.59364,-0.09336,0.01318,
6.02344,-83.80677,-130.82162,43.60862,-1.13475,1.77314,0.87086,,,0.80166,0.58887,-0.10232,0.00973,
6.03125,-109.66738,-167.04522,20.45326,-0.89308,1.60918,0.85731,,,0.80481,0.58279,-0.11233,0.00337,
6.03906,-109.15223,-201.55914,47.27576,-0.76254,1.43643,0.80650,,,0.80749,0.57641,-0.12528,-0.00288,
6.04688,-101.76839,-208.00602,59.56940,-1.01585,0.81522,0.51566,,,0.80962,0.57019,-0.13903,-0.00864,
6.05469,-48.60475,-232.33317,89.46531,-0.48642,1.17145,0.18175,,,0.80924,0.56643,-0.15528,-0.01320,
6.06250,-20.20273,-246.04614,144.64702,-0.42916,1.51158,0.20159,,,0.80739,0.56346,-0.17438,-0.01493,
6.07031,-10.24313,-237.10599,180.16588,0.75491,1.56330,-0.25910,,,0.80498,0.56040,-0.19431,-0.01424,
6.07813,-24.70172,-121.63215,92.60858,-0.46458,0.52243,-0.03892,,,0.80436,0.55767,-0.20448,-0.01413,
6.08594,-10.48354,-76.53965,-59.52529,-0.20011,1.12412,-0.16377,,,0.80362,0.55784,-0.20640,-0.02045,
6.09375,-8.97243,-49.50552,-92.31998,-0.02929,1.64480,-0.14925,,,0.80311,0.55856,-0.20559,-0.02752,
6.10156,-25.45727,-1.10054,-76.81323,-0.07394,1.52231,-0.30992,,,0.80391,0.55823,-0.20267,-0.03212,
6.10938,-31.05526,33.66271,-30.11833,-0.26223,1.22903,-0.47445,,,0.80548,0.55702,-0.19961,-0.03292,
6.11719,-34.93606,50.40321,-28.58162,-0.41217,0.97430,-0.55962,,,0.80742,0.55560,-0.19567,-0.03305,
6.12500,-34.14616,78.29218,-68.01209,-0.57183,0.57269,-0.74497,,,0.80958,0.55479,-0.18871,-0.03429,
6.13281,-20.68354,97.66842,-115.78967,-0.45488,0.44093,-0.91047,,,0.81131,0.55534,-0.17888,-0.03725,
6.14063,0.54071,111.66633,-135.66207,-0.31561,0.50486,-0.97725,,,0.81224,0.55727,-0.16755,-0.04052,
6.14844,11.46192,116.11859,-135.38267,-0.30250,0.50437,-0.99467,,,0.81270,0.55973,-0.15600,-0.04347,
6.15625,33.95687,119.75163,-126.58154,-0.33987,0.45313,-0.99080,,,0.81224,0.56327,-0.14462,-0.04555,
6.16406,55.97101,116.79533,-124.80036,-0.38451,0.44825,-0.95402,,,0.81079,0.56792,-0.13353,-0.04742,
6.17188,66.37708,113.19790,-127.69914,-0.40829,0.44825,-0.91628,,,0.80878,0.57308,-0.12253,-0.04949,
6.17969,85.33465,103.18922,-136.39550,-0.41460,0.49412,-0.81126,,,0.80577,0.57922,-0.11179,-0.05226,
6.18750,102.23162,88.79951,-143.27575,-0.36899,0.57464,-0.67431,,,0.80183,0.58620,-0.10161,-0.05584,
6.19531,109.54678,80.42926,-144.91723,-0.32337,0.61173,-0.60753,,,0.79738,0.59344,-0.09183,-0.05978,
6.20313,121.73870,63.83123,-147.18736,-0.23359,0.68932,-0.46332,,,0.79218,0.60119,-0.08289,-0.06443,
6.21094,130.73668,46.62770,-149.31780,-0.12683,0.78448,-0.31040,,,0.78635,0.60924,-0.07482,-0.06984,
6.21875,133.79324,38.11497,-149.77182,-0.06278,0.84352,-0.23249,,,0.78020,0.61730,-0.06718,-0.07560,
6.22656,136.71243,21.80189,-150.01630,0.15365,0.98309,-0.06457,,,0.77370,0.62531,-0.06041,-0.08203,
6.23438,132.96900,10.54657,-150.43540,0.40939,1.11240,0.10916,,,0.76716,0.63295,-0.05418,-0.08896,
6.24219,129.15688,7.23409,-148.89869,0.56953,1.18072,0.19579,,,0.76064,0.64024,-0.04816,-0.09594,
6.25000,118.02961,8.05331,-139.08473,0.90146,1.38129,0.37242,,,0.75455,0.64682,-0.04244,-0.10241,
6.25781,98.65991,18.95244,-122.77470,1.18049,1.46571,0.54518,,,0.74935,0.65234,-0.03674,-0.10759,
6.26563,77.16091,38.57801,-107.68704,1.43865,1.45644,0.71939,,,0.74519,0.65681,-0.03055,-0.11118,
6.27344,66.99526,51.40052,-99.27009,1.52358,1.42667,0.80069,,,0.74152,0.66078,-0.02400,-0.11377,
6.28125,49.61748,76.79622,-76.28935,1.65169,1.41886,0.97007,,,0.73879,0.66399,-0.01707,-0.11408,
6.28906,34.74677,100.48225,-45.06628,1.63276,1.35298,1.14380,,,0.73697,0.66655,-0.01024,-0.11176,
6.29688,28.04980,109.74295,-28.61655,1.58666,1.31736,1.23671,,,0.73553,0.66879,-0.00364,-0.10818,
6.30469,16.54475,123.66962,1.94294,1.40129,1.18755,1.38721,,,0.73479,0.67051,0.00235,-0.10244,
6.31250,11.11849,128.05065,28.97499,1.08246,1.01529,1.49803,,,0.73444,0.67193,0.00736,-0.09513,
6.32031,10.56899,125.77109,39.83671,0.90049,0.95771,1.55562,,,0.73412,0.67327,0.01176,-0.08737,
6.32813,10.60333,112.09374,50.41902,0.54624,0.79668,1.63789,,,0.73383,0.67448,0.01499,-0.07971,
6.33594,13.41950,87.98030,48.07904,0.30554,0.67858,1.66692,,,0.73336,0.67566,0.01710,-0.07327,
6.34375,15.54879,74.05363,43.99280,0.25265,0.64442,1.65918,,,0.73277,0.67684,0.01870,-0.06767,
6.35156,18.33061,47.48253,33.93436,0.27546,0.66833,1.63159,,,0.73202,0.67801,0.01942,-0.06381,
6.35938,15.82354,26.89528,26.21590,0.41424,0.75324,1.57159,,,0.73137,0.67895,0.01948,-0.06128,
6.36719,12.14879,19.73604,24.29502,0.49674,0.80985,1.54546,,,0.73088,0.67966,0.01929,-0.05917,
6.37500,-0.52394,12.68366,23.31712,0.67095,0.79863,1.43657,,,0.73098,0.67971,0.01884,-0.05742,
6.38281,-13.50576,14.32209,23.70130,0.81799,0.72299,1.33543,,,0.73169,0.67912,0.01851,-0.05555,
6.39063,-18.86333,17.74143,23.49174,0.85536,0.67614,1.28414,,,0.73263,0.67827,0.01838,-0.05353,
6.39844,-25.90374,27.46517,22.82817,0.83934,0.60831,1.22848,,,0.73387,0.67710,0.01878,-0.05109,
6.40625,-30.23101,36.83272,22.75832,0.73355,0.63174,1.22219,,,0.73530,0.67574,0.01968,-0.04821,
6.41406,-36.06940,41.03566,28.45111,0.64184,3.73193,1.94953,,,0.73699,0.67410,0.02054,-0.04484,
6.42188,-84.52799,37.61632,76.19376,-0.02250,8.16188,2.73011,,,0.74104,0.67005,0.01919,-0.03917,
6.42969,-281.28154,-20.44116,159.83945,-1.81752,0.24281,1.03056,,,0.75416,0.65583,0.01161,-0.03165,
6.43750,-242.33608,-67.56389,157.70902,0.60350,1.85073,-0.86982,,,0.76523,0.64321,0.00160,-0.02637,
6.44531,-235.15830,-35.29391,140.84018,0.35892,1.72093,-1.18195,,,0.77567,0.63078,-0.00599,-0.02054,
6.45313,-242.40477,-28.74018,108.77891,0.19102,0.96162,0.21079,,,0.78610,0.61778,-0.01185,-0.01611,
6.46094,-164.65122,-42.06134,69.59292,0.74714,0.09934,0.92555,,,0.79301,0.60881,-0.01686,-0.01429,
6.46875,-118.66536,-39.56808,46.64711,0.88690,0.08958,0.78811,,,0.79790,0.60227,-0.02082,-0.01354,
6.47656,-49.56637,-18.69588,11.16317,0.49723,0.47899,0.53260,,,0.79992,0.59954,-0.02225,-0.01377,
6.48438,-16.32192,-4.48426,-0.18749,0.05223,1.03140,0.34871,,,0.80058,0.59864,-0.02247,-0.01399,
6.49219,-14.67344,-4.55550,-1.75912,0.06533,1.17584,0.14497,,,0.80117,0.59784,-0.02263,-0.01429,
6.50000,-25.38859,-8.40225,-4.58806,0.11143,0.90501,0.31386,,,0.80219,0.59645,-0.02288,-0.01493,
6.50781,-20.82091,-8.97214,-11.74771,0.36523,0.64735,0.61003,,,0.80300,0.59532,-0.02287,-0.01596,
6.51563,-13.47142,-4.59111,-17.68498,0.36620,0.78936,0.53889,,,0.80352,0.59460,-0.02239,-0.01714,
6.52344,-7.53000,1.10778,-22.92375,-0.10597,1.04848,0.34387,,,0.80380,0.59423,-0.02139,-0.01836,
6.53125,-9.83101,-1.84852,-12.51606,-0.14285,0.98309,0.32645,,,0.80418,0.59370,-0.02097,-0.01914,
6.53906,-9.35020,-2.41841,-4.20388,-0.11325,0.90647,0.36081,,,0.80455,0.59319,-0.02092,-0.01948,
6.54688,-7.46131,-3.41572,7.46111,0.01875,0.84645,0.43097,,,0.80486,0.59277,-0.02140,-0.01922,
6.55469,-5.29768,-3.98561,12.52525,0.09591,0.89330,0.41549,,,0.80508,0.59245,-0.02212,-0.01870,
6.56250,-2.61889,-3.80752,12.49033,0.15608,0.93429,0.34387,,,0.80520,0.59228,-0.02283,-0.01817,
6.57031,-1.48556,-2.98830,10.74407,0.11338,0.96503,0.34726,,,0.80527,0.59218,-0.02343,-0.01771,
6.57813,-0.07747,-2.31156,8.26439,0.11143,1.05580,0.33709,,,0.80528,0.59216,-0.02389,-0.01735,
6.58594,-0.31788,-2.13347,7.07693,0.17258,0.97723,0.39274,,,0.80530,0.59213,-0.02429,-0.01704,
6.59375,0.84980,-1.17178,4.38770,0.15754,1.00212,0.41694,,,0.80527,0.59217,-0.02453,-0.01685,
6.60156,2.80737,-0.28133,0.51101,0.15414,0.98260,0.30806,,,0.80515,0.59232,-0.02457,-0.01683,
6.60938,1.50232,-0.31694,-3.57523,0.14395,0.93770,0.32499,,,0.80509,0.59241,-0.02445,-0.01703,
6.61719,2.25788,0.35980,-4.97224,0.10804,0.95283,0.30661,,,0.80499,0.59254,-0.02423,-0.01729,
6.62500,1.26192,0.35980,-6.19462,0.09979,0.90891,0.35500,,,0.80493,0.59262,-0.02396,-0.01761,
6.63281,2.12051,0.71598,-6.89312,0.06582,0.95137,0.38549,,,0.80484,0.59275,-0.02365,-0.01796,
6.64063,2.15485,0.75160,-5.21671,0.06291,0.91038,0.33951,,,0.80475,0.59288,-0.02340,-0.01821,
6.64844,2.25788,0.50227,-2.87673,0.03670,0.97723,0.32161,,,0.80465,0.59301,-0.02326,-0.01834,
6.65625,1.05586,0.11047,-0.11764,0.07407,0.96894,0.34580,,,0.80461,0.59306,-0.02325,-0.01834,
6.66406,0.09424,-0.17447,0.02206,0.08474,0.92550,0.38742,,,0.80461,0.59307,-0.02326,-0.01835,
6.67188,0.98717,-0.06762,1.45399,0.10221,0.97235,0.38645,,,0.80457,0.59312,-0.02332,-0.01827,
6.67969,0.30030,0.11047,2.50174,0.09445,0.92843,0.31725,,,0.80456,0.59313,-0.02342,-0.01813,
6.68750,0.81545,0.57351,1.03489,0.06097,1.00651,0.35355,,,0.80453,0.59318,-0.02343,-0.01805,
6.69531,-0.59263,-0.21009,3.30502,0.08571,0.89476,0.31919,,,0.80456,0.59314,-0.02357,-0.01787,
6.70313,-0.11182,0.21733,2.08264,0.12260,0.91379,0.35597,,,0.80457,0.59313,-0.02365,-0.01775,
6.71094,0.40333,0.89407,-0.22242,0.13521,0.96210,0.38597,,,0.80455,0.59315,-0.02359,-0.01773,
6.71875,0.60939,0.85845,-0.25734,0.13667,0.91428,0.32693,,,0.80453,0.59319,-0.02353,-0.01770,
6.72656,1.39929,1.78452,-2.63225,0.07407,0.99236,0.32548,,,0.80447,0.59327,-0.02333,-0.01777,
6.73438,0.57505,1.28587,-1.93375,0.09591,0.96796,0.34435,,,0.80445,0.59331,-0.02318,-0.01783,
6.74219,0.36899,1.28587,-1.79405,0.11046,0.93624,0.38016,,,0.80443,0.59333,-0.02304,-0.01787,
6.75000,2.32657,1.64205,-2.24808,0.11289,0.98601,0.37000,,,0.80434,0.59346,-0.02286,-0.01793,
6.75781,1.09020,1.32149,-1.47972,0.10270,0.91184,0.32064,,,0.80429,0.59353,-0.02273,-0.01795,
6.76563,2.63566,1.85576,-3.08628,0.06679,1.01188,0.33854,,,0.80419,0.59368,-0.02251,-0.01804,
6.77344,0.84980,0.96531,-0.01287,0.07941,0.89330,0.28676,,,0.80415,0.59373,-0.02246,-0.01800,
6.78125,-0.21485,0.85845,0.89519,0.05660,0.91916,0.37774,,,0.80416,0.59371,-0.02245,-0.01792,
6.78906,0.05990,0.57351,1.62861,0.08620,0.92062,0.37097,,,0.80416,0.59371,-0.02248,-0.01780,
6.79688,0.54071,0.75160,3.13039,0.06291,0.92355,0.35209,,,0.80415,0.59374,-0.02257,-0.01760,
6.80469,1.22758,0.43104,3.13039,0.07261,0.98845,0.35645,,,0.80410,0.59380,-0.02267,-0.01741,
6.81250,0.54071,0.32418,4.45755,0.06485,0.92746,0.32741,,,0.80409,0.59383,-0.02283,-0.01715,
6.82031,0.78111,0.03924,4.70202,0.09542,1.01139,0.41936,,,0.80406,0.59386,-0.02302,-0.01689,
6.82813,1.29626,-0.06762,3.96860,0.12454,0.97723,0.35839,,,0.80401,0.59393,-0.02319,-0.01667,
6.83594,0.36899,0.50227,2.88592,0.11532,0.98699,0.37629,,,0.80400,0.59394,-0.02328,-0.01650,
6.84375,2.29222,0.11047,3.09547,0.10270,1.10020,0.32403,,,0.80391,0.59406,-0.02340,-0.01632,
6.85156,-1.62293,-0.45942,3.75905,0.10464,0.92794,0.29838,,,0.80398,0.59397,-0.02358,-0.01613,
6.85938,-1.48556,0.28856,3.09547,0.03670,0.99919,0.37726,,,0.80405,0.59388,-0.02369,-0.01595,
6.86719,-3.54616,-1.20740,4.21307,0.10173,0.93429,0.33661,,,0.80419,0.59368,-0.02392,-0.01578,
6.87500,-3.09970,-0.21009,4.28292,0.06388,0.94942,0.34484,,,0.80432,0.59350,-0.02410,-0.01556,
6.88281,-2.92798,-1.10054,4.14322,0.09057,0.97040,0.34387,,,0.80444,0.59333,-0.02433,-0.01538,
6.89063,-4.30172,-1.24301,5.57515,0.08232,0.93526,0.30903,,,0.80462,0.59309,-0.02462,-0.01513,
6.89844,-5.02293,-1.34987,5.81963,0.12017,0.97625,0.45420,,,0.80483,0.59280,-0.02492,-0.01487,
6.90625,-4.02697,-1.24301,5.29575,0.15754,1.08508,0.36806,,,0.80499,0.59257,-0.02520,-0.01464,
6.91406,-4.95424,0.07486,4.94650,0.11386,0.98894,0.41355,,,0.80520,0.59229,-0.02539,-0.01437,
6.92188,-6.01889,0.35980,4.35277,0.15268,1.06897,0.34435,,,0.80545,0.59195,-0.02554,-0.01413,
6.92969,-8.56030,1.28587,4.17815,0.16384,0.94014,0.31338,,,0.80580,0.59147,-0.02563,-0.01386,
6.93750,-7.73606,2.92430,2.22234,0.16093,1.03823,0.33854,,,0.80612,0.59105,-0.02555,-0.01364,
6.94531,-14.63909,2.67498,3.86382,0.23469,1.00505,0.34242,,,0.80672,0.59024,-0.02555,-0.01334,
6.95313,-15.56636,7.48342,0.02206,0.15656,1.00261,0.33080,,,0.80735,0.58939,-0.02512,-0.01307,
6.96094,-16.25323,8.40949,-1.86390,0.15365,1.06068,0.31967,,,0.80802,0.58850,-0.02457,-0.01286,
6.96875,-21.06131,9.22870,-4.20388,0.12260,1.01676,0.32499,,,0.80888,0.58736,-0.02388,-0.01275,
6.97656,-24.04919,10.01230,-4.72776,0.18277,1.09972,0.44017,,,0.80985,0.58605,-0.02311,-0.01265,
6.98438,-28.13606,11.86444,-6.01999,0.20072,1.04653,0.36903,,,0.81099,0.58451,-0.02219,-0.01255,
6.99219,-28.96031,13.50287,-6.01999,0.13570,1.11582,0.40097,,,0.81215,0.58293,-0.02118,-0.01239,
7.00000,-32.90980,13.00422,-5.32149,0.14686,1.13388,0.36419,,,0.81347,0.58112,-0.02022,-0.01222,
7.00781,-37.99263,12.89737,-4.93731,0.15656,1.07776,0.36032,1022.676,25.0,0.81499,0.57903,-0.01928,-0.01203,
7.01563,-38.71384,13.14669,-5.21671,0.13376,1.11387,0.38403,,,0.81653,0.57690,-0.01831,-0.01185,
7.02344,-42.90374,13.00422,-3.61016,0.15608,1.09191,0.40194,,,0.81822,0.57452,-0.01741,-0.01160,
7.03125,-46.13202,14.35771,-5.18179,0.10561,1.08361,0.38355,,,0.82004,0.57196,-0.01637,-0.01138,
7.03906,-46.75021,13.64535,-4.34358,0.09057,1.10167,0.36129,,,0.82187,0.56936,-0.01541,-0.01114,
7.04688,-51.62697,12.86175,-4.30866,0.12793,1.05336,0.36371,,,0.82388,0.56648,-0.01448,-0.01094,
7.05469,-54.54617,13.85906,-3.57523,0.06000,1.11875,0.48953,,,0.82599,0.56342,-0.01352,-0.01066,
7.06250,-57.25930,11.97130,-2.80688,0.12502,1.09337,0.46340,,,0.82819,0.56021,-0.01270,-0.01041,
7.07031,-60.31586,13.07546,-2.91165,0.10221,1.08947,0.44791,,,0.83050,0.55681,-0.01181,-0.01012,
7.07813,-63.44112,12.39871,-3.50538,0.16190,1.10118,0.37823,,,0.83290,0.55322,-0.01093,-0.00990,
7.08594,-65.50172,13.46726,-3.26090,0.14007,1.15681,0.45469,,,0.83537,0.54951,-0.01000,-0.00963,
7.09375,-69.21081,13.89467,-2.45763,0.14152,1.08947,0.40000,,,0.83796,0.54557,-0.00907,-0.00929,
7.10156,-73.91586,14.14400,-1.40987,0.11435,1.06458,0.45517,,,0.84071,0.54135,-0.00816,-0.00889,
7.10938,-75.32395,14.35771,-0.95585,0.12065,1.05726,0.44114,,,0.84349,0.53704,-0.00726,-0.00846,
7.11719,-77.00677,15.60434,-0.81615,0.06048,1.07385,0.41936,,,0.84630,0.53261,-0.00629,-0.00797,
7.12500,-80.16637,14.57142,0.26653,0.06388,1.07190,0.43291,,,0.84920,0.52798,-0.00541,-0.00746,
7.13281,-83.36031,13.57411,1.66354,0.08183,1.12119,0.49776,,,0.85220,0.52316,-0.00464,-0.00691,
7.14063,-86.48556,13.57411,1.87309,0.09688,1.09288,0.52050,,,0.85527,0.51813,-0.00388,-0.00634,
7.14844,-90.33203,15.46187,2.46682,0.05029,1.10948,0.49243,,,0.85845,0.51286,-0.00303,-0.00568,
7.15625,-94.62496,13.43164,3.27009,0.09299,1.18072,0.45807,,,0.86174,0.50731,-0.00232,-0.00504,
7.16406,-97.92193,13.50287,4.07337,0.13958,1.21000,0.51227,,,0.86511,0.50155,-0.00163,-0.00434,
7.17188,-104.61890,15.85367,4.28292,0.05126,1.17828,0.48953,,,0.86867,0.49537,-0.00081,-0.00356,
7.17969,-111.31587,13.82344,4.24800,0.05175,1.24709,0.52921,,,0.87241,0.48877,-0.00011,-0.00285,
7.18750,-115.88354,13.21793,4.52740,0.08426,1.26514,0.53163,,,0.87624,0.48187,0.00055,-0.00214,
7.19531,-123.33607,15.14131,3.68920,-0.00697,1.32321,0.52486,,,0.88026,0.47448,0.00135,-0.00142,
7.20313,-133.22698,12.29186,4.21307,0.02409,1.40666,0.52824,,,0.88453,0.46647,0.00196,-0.00075,
7.21094,-138.37850,11.97130,4.63217,-0.00746,1.45009,0.52921,,,0.88889,0.45811,0.00254,-0.00008,
7.21875,-152.11587,9.47803,3.30502,-0.01037,1.55452,0.65019,,,0.89359,0.44887,0.00301,0.00045,
7.22656,-165.26941,8.87252,4.17815,-0.05113,1.63846,0.59067,,,0.89859,0.43878,0.00342,0.00101,
7.23438,-173.09971,7.44780,2.53667,-0.07345,1.67749,0.58486,,,0.90370,0.42814,0.00379,0.00143,
7.24219,-188.65729,3.74352,3.02562,-0.01328,1.81267,0.53937,,,0.90913,0.41649,0.00391,0.00177,
7.25000,-207.47749,3.49419,3.58442,-0.06763,1.84243,0.57422,,,0.91493,0.40359,0.00400,0.00215,
7.25781,-216.47547,2.85307,1.41906,-0.07879,1.89416,0.61148,,,0.92078,0.39005,0.00411,0.00237,
7.26563,-235.26133,-0.35256,4.98143,0.12939,1.91368,0.59115,,,0.92692,0.37524,0.00392,0.00274,
7.27344,-253.18861,4.59835,10.67422,0.08377,1.89904,0.57567,,,0.93325,0.35919,0.00389,0.00360,
7.28125,-270.39467,6.48611,8.82319,0.06630,1.84439,0.57954,,,0.93971,0.34193,0.00402,0.00439,
7.28906,-279.22093,6.27240,8.08976,0.11289,1.78729,0.52679,,,0.94604,0.32399,0.00414,0.00513,
7.29688,-295.12194,6.59297,15.17956,0.01826,1.79949,0.47356,,,0.95235,0.30490,0.00413,0.00634,
7.30469,-311.53811,3.45857,29.60364,0.10998,1.72385,0.40968,,,0.95860,0.28462,0.00360,0.00842,
7.31250,-320.36437,3.99285,35.64569,0.11435,1.65309,0.42420,,,0.96456,0.26363,0.00299,0.01090,
7.32031,-333.55225,3.99285,47.65993,0.12502,1.26270,0.31967,,,0.97026,0.24164,0.00214,0.01417,
7.32813,-329.29366,3.49419,52.16528,0.12696,0.96357,0.17595,,,0.97538,0.21981,0.00120,0.01772,
7.33594,-322.83710,9.65612,55.93719,0.06922,0.75568,0.33467,,,0.97990,0.19829,0.00061,0.02161,
7.34375,-306.79871,7.55465,53.73691,-0.05938,0.52487,-0.05779,,,0.98375,0.17775,-0.00006,0.02531,
7.35156,-267.16638,4.13532,41.44326,-0.12683,-0.07341,-0.41880,,,0.98675,0.15980,-0.00075,0.02813,
7.35938,-239.86335,6.30802,27.15888,-0.18313,-0.25299,-0.50494,,,0.98918,0.14363,-0.00108,0.03001,
7.36719,-177.46133,-0.21009,-3.12120,-0.42334,-0.53407,-0.41009,,,0.99085,0.13165,-0.00142,0.02978,
7.37500,-81.19667,-3.55819,3.65427,0.11532,-0.51650,-0.40477,,,0.99155,0.12617,-0.00186,0.02999,
7.38281,-33.08152,0.50227,6.44828,0.01001,-0.37011,-0.44154,,,0.99182,0.12393,-0.00195,0.03043,
7.39063,47.86596,1.89138,36.02987,-0.18021,-0.18174,-0.37912,,,0.99134,0.12715,-0.00203,0.03288,
7.39844,103.05587,-2.09785,61.66491,-0.24767,0.43605,-0.25330,,,0.99027,0.13411,-0.00247,0.03705,
7.40625,114.08011,-4.02122,64.87802,-0.30250,0.55122,-0.22475,,,0.98902,0.14181,-0.00305,0.04141,
7.41406,119.95284,-7.90360,51.18737,-0.38694,0.54292,-0.18652,,,0.98768,0.14991,-0.00373,0.04481,
7.42188,116.93062,-11.60788,22.40907,-0.41460,0.56098,-0.14635,,,0.98638,0.15781,-0.00438,0.04622,
7.42969,109.16900,-15.63272,-8.04565,-0.39228,0.56830,-0.12506,,,0.98520,0.16520,-0.00500,0.04555,
7.43750,105.83768,-18.76711,-19.78049,-0.34521,0.51364,-0.13328,,,0.98403,0.17237,-0.00571,0.04404,
7.44531,107.28011,-24.43039,-30.11833,-0.24281,0.38481,-0.16280,,,0.98282,0.17965,-0.00667,0.04177,
7.45313,120.05587,-29.70187,-26.03209,-0.16080,0.26770,-0.18506,,,0.98137,0.18778,-0.00800,0.03972,
7.46094,130.18718,-31.66086,-21.28227,-0.13169,0.23793,-0.18845,,,0.97971,0.19658,-0.00949,0.03796,
7.46875,154.33062,-34.26098,-13.03994,-0.10645,0.18718,-0.18748,,,0.97759,0.20698,-0.01121,0.03673,
7.47656,181.29022,-35.25829,-13.59874,-0.12829,0.19157,-0.17926,,,0.97496,0.21914,-0.01291,0.03546,
7.48438,194.99325,-35.43638,-18.48826,-0.14285,0.21402,-0.17587,,,0.97197,0.23219,-0.01451,0.03387,
7.49219,220.68214,-35.40076,-33.64577,-0.18021,0.33504,-0.15990,,,0.96841,0.24690,-0.01582,0.03129,
7.50000,241.80335,-35.72132,-48.38417,-0.18361,0.53072,-0.11828,,,0.96426,0.26296,-0.01684,0.02775,
7.50781,249.70234,-36.07750,-54.60084,-0.16372,0.62588,-0.09070,,,0.95970,0.27946,-0.01776,0.02380,
7.51563,261.75689,-36.82548,-62.52885,-0.15789,0.74397,-0.03650,,,0.95460,0.29667,-0.01855,0.01932,
7.52344,271.06396,-39.28313,-64.83391,-0.13557,0.86207,0.01625,,,0.94898,0.31439,-0.01943,0.01464,
7.53125,274.60133,-40.63662,-65.21808,-0.10985,0.92258,0.04383,,,0.94293,0.33223,-0.02038,0.00992,
7.53906,279.44376,-41.66954,-64.48466,-0.05210,1.01871,0.08303,,,0.93640,0.35025,-0.02141,0.00521,
7.54688,281.67608,-40.35167,-62.49392,-0.00212,1.13290,0.13433,,,0.92945,0.36826,-0.02239,0.00067,
7.55469,280.54275,-36.11312,-62.87810,0.04592,1.18999,0.15901,,,0.92217,0.38607,-0.02308,-0.00379,
7.56250,279.51245,-33.69109,-65.00853,0.06436,1.21586,0.22918,,,0.91457,0.40366,-0.02355,-0.00832,
7.57031,277.07406,-27.38669,-70.91088,0.10173,1.29345,0.29741,,,0.90668,0.42096,-0.02346,-0.01305,
7.57813,273.63972,-20.04936,-74.57802,0.13182,1.37153,0.36661,,,0.89856,0.43789,-0.02280,-0.01780,
7.58594,271.92255,-16.66565,-75.66070,0.14540,1.40080,0.40291,,,0.89016,0.45457,-0.02189,-0.02250,
7.59375,268.35083,-10.29001,-74.36847,0.18325,1.48230,0.45759,,,0.88155,0.47086,-0.02062,-0.02693,
7.60156,263.81750,-4.05684,-70.42193,0.22111,1.54964,0.51082,,,0.87280,0.48673,-0.01908,-0.03091,
7.60938,261.24174,-0.92245,-68.74552,0.24052,1.56916,0.53647,,,0.86383,0.50228,-0.01741,-0.03469,
7.61719,255.19729,5.56004,-65.21808,0.31670,1.62674,0.57615,,,0.85481,0.51732,-0.01545,-0.03803,
7.62500,248.91244,13.89467,-57.56948,0.37494,1.66920,0.58922,,,0.84577,0.53184,-0.01325,-0.04062,
7.63281,245.23770,19.30862,-52.54026,0.39241,1.67261,0.60277,,,0.83662,0.54600,-0.01092,-0.04272,
7.64063,238.05992,31.20506,-43.45973,0.39580,1.68921,0.64197,,,0.82754,0.55963,-0.00821,-0.04386,
7.64844,230.09224,43.31521,-36.89380,0.32932,1.68921,0.71455,,,0.81857,0.57268,-0.00505,-0.04415,
7.65625,226.03971,48.30175,-34.30934,0.27934,1.67896,0.76488,,,0.80956,0.58538,-0.00170,-0.04409,
7.66406,217.59123,55.31851,-29.97863,0.16724,1.67017,0.85586,,,0.80069,0.59749,0.00190,-0.04351,
7.67188,208.42153,58.34605,-25.57806,0.06970,1.64675,0.94442,,,0.79203,0.60897,0.00551,-0.04255,
7.67969,203.68214,58.88032,-23.72703,0.03379,1.62235,0.98459,,,0.78341,0.62006,0.00908,-0.04146,
7.68750,193.48214,58.52414,-22.22525,-0.04774,1.58282,1.02185,,,0.77506,0.63048,0.01259,-0.04029,
7.69531,181.73668,56.88571,-25.19389,-0.11228,1.55501,1.06056,,,0.76706,0.64016,0.01618,-0.03933,
7.70313,168.61749,54.00064,-33.40129,-0.17051,1.46327,1.09831,,,0.75950,0.64904,0.02001,-0.03890,
7.71094,162.57304,52.07726,-39.16394,-0.17294,1.39105,1.10024,,,0.75208,0.65749,0.02401,-0.03884,
7.71875,155.29223,47.66062,-50.65431,-0.17585,1.23294,1.09976,,,0.74486,0.66545,0.02831,-0.03956,
7.72656,154.57102,41.89049,-58.68709,-0.13994,1.14071,1.10653,,,0.73756,0.67324,0.03268,-0.04093,
7.73438,155.53264,38.79172,-59.97931,-0.10209,1.11045,1.09879,,,0.73012,0.68099,0.03695,-0.04251,
7.74219,159.03567,32.05990,-58.82679,-0.02978,1.04067,1.08669,,,0.72244,0.68880,0.04081,-0.04435,
7.75000,162.05789,24.97190,-55.15965,0.05369,1.04848,1.09492,,,0.71455,0.69665,0.04414,-0.04634,
7.75781,161.71446,21.83751,-53.48324,0.10076,1.06653,1.10944,,,0.70659,0.70438,0.04722,-0.04839,
7.76563,156.32254,16.74412,-51.21311,0.16190,1.11338,1.16703,,,0.69882,0.71176,0.04997,-0.05055,
7.77344,143.85587,11.82882,-47.47612,0.18034,1.14949,1.22703,,,0.69160,0.71845,0.05234,-0.05273,
7.78125,135.85385,9.29994,-43.73913,0.18034,1.15632,1.25994,,,0.68473,0.72469,0.05442,-0.05481,
7.78906,116.72455,3.56543,-32.52816,0.19150,1.14119,1.29381,,,0.67881,0.73000,0.05576,-0.05659,
7.79688,96.29021,-1.67043,-19.60587,0.19102,1.08166,1.29720,,,0.67394,0.73436,0.05628,-0.05794,
7.80469,86.09021,-3.23763,-14.19247,0.18859,1.05189,1.30107,,,0.66958,0.73823,0.05650,-0.05908,
7.81250,66.37708,-4.62673,-8.25520,0.17986,0.98748,1.28994,,,0.66623,0.74119,0.05644,-0.05995,
7.82031,47.86596,-3.94999,-7.10267,0.17064,0.93478,1.27252,,,0.66379,0.74331,0.05642,-0.06065,
7.82813,39.38313,-3.05954,-7.17252,0.17355,0.90647,1.25268,,,0.66178,0.74505,0.05648,-0.06128,
7.83594,24.20334,-0.53065,-7.38207,0.18083,0.87427,1.21977,,,0.66053,0.74610,0.05673,-0.06174,
7.84375,10.77505,3.28048,-6.92804,0.19587,0.87280,1.17719,,,0.65995,0.74657,0.05718,-0.06192,
7.85156,-0.38657,7.98207,-3.92448,0.21625,0.85231,1.12250,,,0.65993,0.74657,0.05774,-0.06169,
7.85938,-4.81687,10.51096,-1.09555,0.21091,0.85328,1.09686,,,0.66013,0.74638,0.05829,-0.06118,
7.86719,-12.61283,15.60434,6.44828,0.20267,0.86499,1.04992,,,0.66074,0.74590,0.05871,-0.06005,
7.87500,-21.13000,20.91144,11.93153,0.18665,0.87719,1.01120,,,0.66178,0.74508,0.05913,-0.05836,
7.88281,-25.56031,23.97459,13.43331,0.17549,0.87475,0.98846,,,0.66304,0.74407,0.05963,-0.05643,
7.89063,-33.90576,29.49540,15.07479,0.13618,0.89427,0.93668,,,0.66470,0.74270,0.06033,-0.05412,
7.89844,-42.86940,34.30384,16.08762,0.10949,0.89818,0.88151,,,0.66679,0.74094,0.06122,-0.05147,
7.90625,-47.33404,36.33407,16.08762,0.10464,0.89281,0.85005,,,0.66909,0.73897,0.06223,-0.04871,
7.91406,-84.83708,43.27960,43.81817,0.36232,5.67168,0.89361,,,0.67331,0.73541,0.06227,-0.04417,
7.92188,-266.85729,34.16137,89.18591,-0.30736,0.06908,-0.41832,,,0.68669,0.72350,0.06016,-0.03722,
7.92969,-233.09769,28.46247,99.69838,-1.08185,1.57160,0.05835,,,0.69822,0.71296,0.05716,-0.03019,
7.93750,-253.70376,-12.71204,134.72828,-0.05113,1.55159,-0.77497,,,0.71074,0.70125,0.05052,-0.02340,
7.94531,-273.07346,-2.95268,127.60356,-0.05938,1.62089,-0.72125,,,0.72386,0.68830,0.04470,-0.01641,
7.95313,-280.80073,-5.58842,121.84091,-0.01716,1.54183,-0.42557,,,0.73702,0.67467,0.03901,-0.00980,
7.96094,-276.43911,-3.41572,106.01983,0.27643,0.88012,-0.01182,,,0.74966,0.66093,0.03414,-0.00390,
7.96875,-249.65123,-7.19123,79.61643,0.23760,0.70445,0.47743,,,0.76083,0.64825,0.03024,0.00043,
7.97656,-238.21487,-13.46002,67.39263,0.06436,0.59953,0.57131,,,0.77127,0.63594,0.02656,0.00382,
7.98438,-203.15022,-28.27714,50.31424,0.03136,0.71177,0.50695,,,0.78004,0.62529,0.02283,0.00561,
7.99219,-164.89163,-34.29660,41.82744,-0.01959,0.72445,0.45420,,,0.78705,0.61656,0.01916,0.00663,
8.00000,-128.41890,-37.39537,32.81675,0.25168,0.83181,0.47501,,,0.79245,0.60970,0.01572,0.00698,
8.00781,-115.23102,-33.79795,29.95289,0.34631,0.63320,0.49727,1022.719,25.0,0.79723,0.60350,0.01259,0.00732,
8.01563,-82.94819,-20.90420,21.22161,0.41182,0.55561,0.63326,,,0.80064,0.59901,0.01053,0.00769,
8.02344,-48.87950,-9.11461,14.65569,0.20412,0.56634,0.53986,,,0.80263,0.59635,0.00941,0.00815,
8.03125,-35.55425,-4.94729,12.31570,0.12308,0.74348,0.53937,,,0.80407,0.59441,0.00862,0.00865,
8.03906,-20.58051,-2.66774,10.81392,0.07261,0.88793,0.43969,,,0.80490,0.59329,0.00802,0.00915,
8.04688,-16.04717,-3.91437,7.74051,0.12405,0.90598,0.39323,,,0.80555,0.59241,0.00748,0.00942,
8.05469,-14.53606,-3.94999,5.95933,0.08814,0.86304,0.40484,,,0.80613,0.59162,0.00702,0.00960,
8.06250,-8.93808,-2.38279,5.01635,0.07844,0.80204,0.40339,,,0.80649,0.59113,0.00668,0.00978,
8.07031,-3.51182,-1.10054,5.01635,0.04932,0.88354,0.36516,,,0.80663,0.59094,0.00641,0.01001,
8.07813,-2.27545,-1.13616,5.61008,0.03864,0.97528,0.34919,,,0.80672,0.59082,0.00612,0.01028,
8.08594,-4.43909,-2.16908,7.11186,0.04204,0.90208,0.38936,,,0.80689,0.59058,0.00571,0.01058,
8.09375,-2.20677,-2.34717,8.05484,0.09736,0.85914,0.41113,,,0.80698,0.59046,0.00526,0.01093,
8.10156,0.30030,-2.16908,8.33424,0.13327,0.87427,0.36710,,,0.80696,0.59048,0.00480,0.01131,
8.10938,2.39525,-1.13616,6.06410,0.09396,0.92697,0.37677,,,0.80686,0.59061,0.00450,0.01159,
8.11719,3.94071,-1.56358,3.86382,0.13909,0.98992,0.36419,,,0.80670,0.59083,0.00426,0.01174,
8.12500,2.87606,-1.27863,3.54950,0.12745,0.92990,0.40436,,,0.80658,0.59099,0.00405,0.01188,
8.13281,4.04374,-1.31425,0.82534,0.12648,0.96650,0.36806,,,0.80642,0.59122,0.00394,0.01188,
8.14063,4.04374,-1.13616,-1.02570,0.10804,0.97235,0.33467,,,0.80626,0.59144,0.00392,0.01177,
8.14844,3.11646,-1.59919,-2.80688,0.10027,0.95430,0.35064,,,0.80613,0.59161,0.00395,0.01155,
8.15625,3.32253,-1.59919,-4.20388,0.10416,1.00212,0.36613,,,0.80600,0.59179,0.00404,0.01126,
8.16406,1.39929,-2.06223,-4.62298,0.09202,0.90062,0.39178,,,0.80595,0.59187,0.00411,0.01092,
8.17188,2.25788,-1.81290,-6.22954,0.09979,0.89281,0.38790,,,0.80586,0.59199,0.00426,0.01051,
8.17969,2.97909,-1.77728,-6.36924,0.10270,0.95283,0.34193,,,0.80575,0.59215,0.00442,0.01008,
8.18750,1.77707,-1.59919,-7.20744,0.05611,0.85865,0.35984,,,0.80568,0.59225,0.00463,0.00962,
8.19531,3.04778,-1.49234,-6.89312,0.10610,0.99968,0.35887,,,0.80557,0.59242,0.00483,0.00918,
8.20313,1.46798,-1.31425,-5.63581,0.05272,0.89281,0.37629,,,0.80551,0.59250,0.00498,0.00882,
8.21094,3.49424,-1.10054,-6.47402,0.08329,0.96991,0.40242,,,0.80537,0.59269,0.00518,0.00842,
8.21875,4.21545,-1.06492,-5.49611,0.09348,0.98309,0.33032,,,0.80521,0.59291,0.00535,0.00807,
8.22656,3.56293,-0.81560,-5.46119,0.05563,0.95966,0.34387,,,0.80507,0.59311,0.00553,0.00774,
8.23438,3.11646,-0.21009,-4.65791,0.02117,1.00309,0.39178,,,0.80494,0.59328,0.00571,0.00747,
8.24219,1.70838,-1.24301,-1.75912,0.06630,0.86451,0.38016,,,0.80488,0.59337,0.00571,0.00733,
8.25000,4.11242,-1.10054,-1.51465,0.08620,0.98699,0.37774,,,0.80471,0.59360,0.00571,0.00720,
8.25781,2.77303,-1.20740,-0.29227,0.09882,0.90940,0.33371,,,0.80460,0.59375,0.00566,0.00713,
8.26563,1.67404,-1.02931,-1.23525,0.10561,0.87817,0.35355,,,0.80453,0.59384,0.00565,0.00702,
8.27344,2.70434,-0.28133,-1.86390,0.08766,0.99382,0.40049,,,0.80442,0.59399,0.00571,0.00691,
8.28125,1.02152,-0.70874,-0.99077,0.09542,0.90013,0.41452,,,0.80438,0.59404,0.00571,0.00683,
8.28906,2.22354,-0.28133,-1.65435,0.12114,0.92794,0.38742,,,0.80430,0.59416,0.00577,0.00672,
8.29688,3.15081,0.07486,-1.86390,0.11046,0.96991,0.34193,,,0.80417,0.59434,0.00585,0.00662,
8.30469,1.98313,0.21733,-3.01643,0.11289,0.90452,0.35016,,,0.80409,0.59444,0.00598,0.00647,
8.31250,2.70434,1.00093,-4.37851,0.11580,1.00017,0.37726,,,0.80398,0.59459,0.00621,0.00627,
8.32031,0.40333,1.07216,-4.48328,0.13424,0.83425,0.36419,,,0.80397,0.59461,0.00645,0.00606,
8.32813,2.56697,1.82014,-6.71849,0.11871,0.97040,0.37677,,,0.80387,0.59474,0.00683,0.00577,
8.33594,1.91444,1.89138,-6.61372,0.08426,0.90794,0.30177,,,0.80379,0.59484,0.00720,0.00548,
8.34375,0.81545,1.74891,-5.81044,0.04980,0.91038,0.34290,,,0.80376,0.59488,0.00753,0.00523,
8.35156,1.02152,1.60643,-4.58806,0.04786,0.91965,0.32403,,,0.80372,0.59494,0.00780,0.00505,
8.35938,0.91848,1.60643,-2.87673,0.04641,0.92306,0.36081,,,0.80368,0.59499,0.00801,0.00496,
8.36719,2.05182,1.25025,-1.79405,0.05708,0.95039,0.34290,,,0.80360,0.59510,0.00815,0.00491,
8.37500,2.25788,1.32149,0.09191,0.03136,0.93868,0.32209,,,0.80351,0.59522,0.00822,0.00496,
8.38281,1.63970,0.78722,1.73339,0.04253,0.95869,0.33419,,,0.80344,0.59531,0.00819,0.00509,
8.39063,1.98313,0.35980,3.58442,0.05320,1.01969,0.37871,,,0.80336,0.59542,0.00807,0.00530,
8.39844,-0.48960,0.11047,4.66710,0.07941,0.88988,0.41162,,,0.80337,0.59540,0.00788,0.00556,
8.40625,2.42960,0.64475,4.52740,0.10852,0.98309,0.38549,,,0.80327,0.59553,0.00774,0.00583,
8.41406,1.50232,0.07486,5.01635,0.10707,0.93282,0.32354,,,0.80321,0.59561,0.00754,0.00611,
8.42188,0.64374,0.71598,4.00352,0.09154,0.92209,0.32403,,,0.80318,0.59565,0.00741,0.00636,
8.42969,1.57101,0.43104,3.82890,0.09105,0.97333,0.32161,,,0.80312,0.59574,0.00728,0.00659,
8.43750,0.30030,0.25295,3.23517,0.07649,0.89574,0.35887,,,0.80310,0.59576,0.00716,0.00677,
8.44531,2.56697,0.43104,3.40980,0.08523,0.95674,0.35935,,,0.80300,0.59590,0.00705,0.00698,
8.45313,2.56697,0.32418,3.75905,0.08038,0.92990,0.32741,,,0.80289,0.59604,0.00691,0.00720,
8.46094,3.15081,0.43104,4.28292,0.03136,0.95430,0.32983,,,0.80276,0.59621,0.00676,0.00745,
8.46875,3.97505,0.03924,7.14678,0.00031,1.04750,0.40581,,,0.80260,0.59643,0.00648,0.00784,
8.47656,2.18919,-0.92245,9.73124,0.04301,0.91867,0.41888,,,0.80250,0.59656,0.00603,0.00833,
8.48438,5.21141,-0.49503,9.73124,0.14589,1.05433,0.38645,,,0.80229,0.59685,0.00561,0.00884,
8.49219,2.80737,-0.31694,7.21663,0.18131,0.96210,0.27854,,,0.80217,0.59700,0.00530,0.00922,
8.50000,2.87606,0.75160,4.00352,0.15317,1.10655,0.33951,,,0.80205,0.59716,0.00518,0.00947,
8.50781,-0.55828,0.35980,2.39697,0.14152,0.98065,0.31048,,,0.80207,0.59713,0.00510,0.00962,
8.51563,-3.44313,0.78722,0.89519,0.11386,0.90501,0.35306,,,0.80221,0.59694,0.00511,0.00970,
8.52344,-3.68354,0.50227,-0.32719,0.17064,0.98065,0.34096,,,0.80236,0.59674,0.00514,0.00971,
8.53125,-3.64919,1.60643,-1.79405,0.06970,0.98894,0.32451,,,0.80251,0.59654,0.00530,0.00968,
8.53906,-4.64515,1.07216,-0.81615,0.05078,1.00017,0.31096,,,0.80270,0.59628,0.00539,0.00968,
8.54688,-6.32798,0.92969,0.86026,0.02554,1.02701,0.30225,,,0.80295,0.59594,0.00540,0.00976,
8.55469,-10.55222,-0.17447,3.61935,0.02457,0.85231,0.47695,,,0.80338,0.59536,0.00524,0.00996,
8.56250,-8.07950,0.32418,4.56232,0.06922,0.95576,0.40242,,,0.80370,0.59492,0.00507,0.01022,
8.57031,-12.47546,0.35980,5.50530,0.19781,0.88793,0.09126,,,0.80421,0.59424,0.00485,0.01055,
8.57813,-6.39667,2.92430,3.96860,0.12551,1.21976,0.38452,,,0.80446,0.59388,0.00485,0.01088,
8.58594,-9.65929,4.70521,4.59725,0.27157,1.20951,0.48517,,,0.80485,0.59335,0.00491,0.01133,
8.59375,-18.41687,10.40410,5.08620,0.25168,1.23928,0.44452,,,0.80558,0.59234,0.00526,0.01204,
8.60156,-28.61687,12.46995,2.01279,0.20072,1.11924,0.32016,,,0.80673,0.59075,0.00584,0.01266,
8.60938,-35.58859,16.10300,-4.97224,0.28759,1.13827,0.29209,,,0.80816,0.58878,0.00689,0.01305,
8.61719,-44.20879,19.23739,-8.11550,0.13909,1.22806,0.36855,,,0.80993,0.58632,0.00824,0.01340,
8.62500,-50.01283,17.34963,-7.31222,0.20558,1.27783,0.36419,,,0.81192,0.58353,0.00944,0.01372,
8.63281,-56.33202,19.34424,-6.05492,0.08571,1.25392,0.47888,,,0.81415,0.58039,0.01070,0.01419,
8.64063,-61.07142,18.66750,-6.89312,0.07892,1.31931,0.48033,,,0.81655,0.57697,0.01195,0.01459,
8.64844,-65.46738,16.45918,-4.72776,0.03331,1.17828,0.46437,,,0.81911,0.57330,0.01299,0.01503,
8.65625,-68.52394,15.56872,-3.92448,0.03864,1.32077,0.47308,,,0.82177,0.56945,0.01394,0.01548,
8.66406,-75.56435,11.82882,-1.51465,0.07407,1.20366,0.40049,,,0.82468,0.56519,0.01458,0.01592,
8.67188,-77.21283,12.14939,-1.68927,0.01584,1.28759,0.46920,,,0.82763,0.56083,0.01524,0.01637,
8.67969,-84.87142,10.01230,-1.09555,0.08426,1.26514,0.44840,,,0.83085,0.55602,0.01575,0.01678,
8.68750,-91.77445,8.05331,1.13966,0.11046,1.26661,0.41259,,,0.83430,0.55080,0.01606,0.01725,
8.69531,-94.65930,7.30533,0.68563,0.17598,1.39153,0.41742,,,0.83783,0.54540,0.01634,0.01767,
8.70313,-102.38657,8.55196,3.40980,0.09396,1.39349,0.36710,,,0.84160,0.53953,0.01658,0.01830,
8.71094,-112.62092,8.26702,3.37487,0.08960,1.45302,0.41307,,,0.84571,0.53305,0.01678,0.01892,
8.71875,-122.99264,9.26432,2.99069,0.04301,1.54379,0.40339,,,0.85013,0.52593,0.01705,0.01957,
8.72656,-129.38052,8.87252,1.34921,0.06679,1.58331,0.39710,,,0.85472,0.51840,0.01734,0.02012,
8.73438,-143.18658,8.01769,-0.95585,0.12065,1.71165,0.40436,,,0.85973,0.51002,0.01765,0.02051,
8.74219,-160.18658,9.26432,-5.84536,0.17937,1.81657,0.42372,,,0.86525,0.50059,0.01817,0.02068,
8.75000,-168.46335,10.43972,-8.39490,0.19053,1.95418,0.44598,,,0.87094,0.49060,0.01883,0.02075,
8.75781,-190.64921,14.57142,-10.52533,0.13521,2.11620,0.46582,,,0.87723,0.47921,0.01977,0.02086,
8.76563,-216.13204,16.95783,-19.32646,-0.00503,2.28894,0.34677,,,0.88420,0.46618,0.02111,0.02055,
8.77344,-230.48759,15.92490,-22.26018,-0.04725,2.38849,0.36468,,,0.89142,0.45218,0.02245,0.02004,
8.78125,-262.32396,14.53580,-22.95868,-0.04968,2.31432,0.39662,,,0.89936,0.43612,0.02368,0.01949,
8.78906,-291.17245,13.78782,-26.69567,-0.06423,2.24746,0.53357,,,0.90785,0.41813,0.02493,0.01873,
8.79688,-303.60477,14.32209,-31.20101,-0.14236,2.05276,0.49582,,,0.91632,0.39919,0.02631,0.01772,
8.80469,-321.70376,13.64535,-30.74698,-0.48205,2.03226,0.48324,,,0.92486,0.37894,0.02761,0.01674,
8.81250,-338.49770,0.57351,-25.54314,-0.32919,2.03763,0.37484,,,0.93338,0.35746,0.02791,0.01578,
8.82031,-350.99871,-2.59650,-32.42339,-0.24233,1.80681,0.28870,,,0.94170,0.33498,0.02815,0.01432,
8.82813,-362.53811,-10.29001,-26.52104,0.04641,1.78876,0.27225,,,0.94973,0.31157,0.02773,0.01307,
8.83594,-368.03306,-15.09845,7.88021,0.05320,1.60283,0.25337,,,0.95726,0.28769,0.02625,0.01395,
8.84375,-372.05124,-17.76981,25.83173,0.03670,1.50035,0.21756,,,0.96425,0.26339,0.02422,0.01595,
8.85156,-372.25730,-19.65757,52.27005,0.01098,1.25880,0.04335,,,0.97059,0.23896,0.02158,0.01964,
8.85938,-361.67952,-17.23554,49.65067,-0.21127,0.68541,-0.20587,,,0.97614,0.21506,0.01914,0.02317,
8.86719,-330.63306,-20.44116,17.58940,-0.29619,0.26623,-0.42751,,,0.98073,0.19307,0.01700,0.02447,
8.87500,-310.88558,-22.79196,-6.47402,-0.51991,-0.08610,-0.62350,,,0.98464,0.17228,0.01504,0.02409,
8.88281,-243.50376,-47.15473,-44.08838,-0.70188,-0.35791,-0.61043,,,0.98747,0.15594,0.01200,0.02082,
8.89063,-160.42698,-67.92008,-29.76908,0.06048,-1.11770,-0.62882,,,0.98921,0.14520,0.00751,0.01822,
8.89844,-101.76839,-62.29242,-23.51748,0.17792,-0.95325,-0.68254,,,0.99024,0.13839,0.00342,0.01607,
8.90625,0.74677,-52.53306,-4.51821,0.01972,-0.57360,-0.63076,,,0.99025,0.13849,-0.00008,0.01527,
8.91406,75.64980,-48.36574,21.95504,0.00225,0.04810,-0.50010,,,0.98949,0.14364,-0.00348,0.01630,
8.92188,97.28617,-46.15742,28.31141,-0.03900,0.28380,-0.45945,,,0.98847,0.15025,-0.00676,0.01778,
8.92969,116.72455,-42.13258,25.79680,-0.17051,0.47655,-0.40477,,,0.98718,0.15815,-0.00972,0.01914,
8.93750,119.88415,-40.28044,10.70915,-0.23359,0.48534,-0.36799,,,0.98581,0.16626,-0.01239,0.01950,
8.94531,119.26597,-39.56808,0.72056,-0.24281,0.47119,-0.35250,,,0.98439,0.17433,-0.01490,0.01920,
8.95313,118.61344,-38.39268,-17.44051,-0.21370,0.42434,-0.33750,,,0.98292,0.18235,-0.01711,0.01770,
8.96094,122.11647,-37.32414,-27.21954,-0.12053,0.36041,-0.34282,,,0.98136,0.19061,-0.01912,0.01555,
8.96875,126.51243,-36.14874,-28.47685,-0.07200,0.33650,-0.36024,,,0.97965,0.19915,-0.02103,0.01334,
8.97656,138.97910,-31.66086,-25.61299,0.00953,0.32869,-0.36024,,,0.97770,0.20849,-0.02267,0.01140,
8.98438,154.22759,-24.82219,-21.63152,0.07164,0.31405,-0.36896,,,0.97543,0.21881,-0.02390,0.00984,
8.99219,172.25789,-15.49025,-21.73630,0.09057,0.30429,-0.37331,,,0.97278,0.23030,-0.02449,0.00844,
9.00000,182.08012,-10.46810,-24.18106,0.08766,0.30820,-0.37912,,,0.96984,0.24241,-0.02470,0.00698,
9.00781,202.65183,0.25295,-32.49324,0.06000,0.34382,-0.36170,1022.681,25.0,0.96641,0.25584,-0.02405,0.00517,
9.01563,223.97911,9.19309,-39.89737,0.02700,0.43898,-0.34234,,,0.96241,0.27063,-0.02266,0.00307,
9.02344,234.41951,12.57680,-42.34212,0.01875,0.48241,-0.32685,,,0.95799,0.28604,-0.02101,0.00089,
9.03125,254.02962,18.38255,-46.81254,-0.03269,0.60587,-0.27023,,,0.95291,0.30265,-0.01887,-0.00145,
9.03906,269.62154,20.62649,-51.28296,-0.09820,0.78106,-0.18313,,,0.94720,0.32019,-0.01650,-0.00400,
9.04688,275.11649,20.09222,-53.44832,-0.12926,0.88744,-0.13909,,,0.94103,0.33796,-0.01411,-0.00671,
9.05469,280.26800,17.45648,-57.46471,-0.14964,1.04897,-0.05440,,,0.93438,0.35594,-0.01179,-0.00972,
9.06250,281.19527,13.39602,-61.23662,-0.12683,1.15779,0.01189,,,0.92735,0.37385,-0.00963,-0.01307,
9.07031,281.09224,11.61512,-62.38915,-0.10597,1.19146,0.04480,,,0.91995,0.39160,-0.00755,-0.01653,
9.07813,282.05386,8.05331,-61.62080,-0.05793,1.27198,0.11400,,,0.91218,0.40926,-0.00572,-0.02003,
9.08594,284.25184,5.59566,-58.96649,-0.02929,1.33883,0.18659,,,0.90399,0.42689,-0.00411,-0.02343,
9.09375,285.69426,4.34903,-57.91873,-0.01134,1.35786,0.23063,,,0.89540,0.44444,-0.00262,-0.02678,
9.10156,289.54073,2.81745,-57.29008,0.04932,1.43936,0.29789,,,0.88635,0.46204,-0.00124,-0.03014,
9.10938,292.08214,3.28048,-56.06770,0.11143,1.59063,0.35887,,,0.87685,0.47961,0.00012,-0.03339,
9.11719,292.25386,5.02577,-54.00712,0.16093,1.66529,0.39081,,,0.86699,0.49699,0.00152,-0.03645,
9.12500,289.91851,11.79321,-48.83820,0.22499,1.80632,0.44259,,,0.85687,0.51405,0.00315,-0.03896,
9.13281,284.21750,21.37447,-45.59016,0.22159,1.90148,0.51227,,,0.84662,0.53060,0.00524,-0.04092,
9.14063,276.31851,30.67079,-44.15823,0.20606,1.94638,0.59648,,,0.83633,0.54652,0.00783,-0.04245,
9.14844,272.36901,35.05182,-44.33286,0.16530,1.99420,0.64729,,,0.82589,0.56203,0.01069,-0.04381,
9.15625,263.02760,41.60555,-43.52958,0.11677,2.02933,0.74214,,,0.81551,0.57684,0.01391,-0.04485,
9.16406,255.47204,45.70163,-39.09409,0.09639,2.00445,0.82489,,,0.80517,0.59105,0.01721,-0.04546,
9.17188,252.93063,47.55377,-35.28725,0.08863,1.98737,0.87086,,,0.79469,0.60494,0.02045,-0.04577,
9.17969,248.46598,52.61154,-27.91805,0.06000,1.93515,0.97636,,,0.78416,0.61844,0.02367,-0.04545,
9.18750,243.31446,58.20358,-25.61299,-0.04919,1.88684,1.10073,,,0.77362,0.63149,0.02710,-0.04475,
9.19531,240.12052,59.62830,-26.20671,-0.11373,1.85463,1.16751,,,0.76299,0.64419,0.03064,-0.04400,
9.20313,233.01143,57.41998,-30.78191,-0.27096,1.77314,1.28510,,,0.75244,0.65632,0.03427,-0.04356,
9.21094,225.35285,50.15389,-35.95083,-0.35491,1.63748,1.38431,,,0.74205,0.66786,0.03778,-0.04368,
9.21875,222.05588,45.09612,-39.09409,-0.35637,1.57794,1.41334,,,0.73162,0.67903,0.04118,-0.04418,
9.22656,213.09224,35.47924,-48.45402,-0.24961,1.46864,1.44915,,,0.72143,0.68955,0.04454,-0.04554,
9.23438,199.69830,29.78034,-62.66855,-0.11713,1.35640,1.47964,,,0.71169,0.69919,0.04833,-0.04783,
9.24219,192.07406,27.82135,-69.65358,-0.03415,1.30028,1.49513,,,0.70216,0.70829,0.05237,-0.05051,
9.25000,175.69224,26.39662,-79.29291,0.09105,1.21830,1.52949,,,0.69326,0.71644,0.05685,-0.05365,
9.25781,159.17304,25.86235,-79.36276,0.21334,1.13046,1.58465,,,0.68505,0.72369,0.06135,-0.05675,
9.26563,151.20537,25.68426,-76.32428,0.25556,1.07141,1.62482,,,0.67715,0.73047,0.06573,-0.05967,
9.27344,136.26597,24.08145,-66.89449,0.30360,0.97186,1.69402,,,0.66996,0.73651,0.06961,-0.06217,
9.28125,121.18920,20.34155,-54.21667,0.29632,0.96064,1.76322,,,0.66353,0.74183,0.07274,-0.06419,
9.28906,101.40738,13.96591,-39.02424,0.25459,1.04457,1.82758,,,0.65815,0.74626,0.07490,-0.06575,
9.29688,88.52859,9.97668,-30.81683,0.24246,1.05824,1.83242,,,0.65346,0.75009,0.07651,-0.06708,
9.30469,60.02354,0.71598,-14.82112,0.21189,1.04799,1.80097,,,0.65033,0.75267,0.07702,-0.06801,
9.31250,31.03768,-7.36932,-2.14330,0.23324,0.96942,1.70709,,,0.64877,0.75399,0.07666,-0.06865,
9.32031,18.12455,-9.68450,2.01279,0.25313,0.93722,1.65676,,,0.64791,0.75475,0.07604,-0.06915,
9.32813,-3.37444,-11.18046,8.96289,0.32884,0.83571,1.51690,,,0.64820,0.75458,0.07509,-0.06931,
9.33594,-16.56232,-8.68719,17.20522,0.41085,0.75520,1.36156,,,0.64919,0.75389,0.07390,-0.06891,
9.34375,-20.82091,-5.69527,21.78041,0.45015,0.75861,1.28849,,,0.65040,0.75304,0.07262,-0.06813,
9.35156,-28.71990,4.09970,29.25439,0.50402,0.82498,1.16896,,,0.65200,0.75192,0.07143,-0.06647,
9.35938,-38.47344,17.27839,32.85168,0.52877,0.84791,1.05717,,,0.65404,0.75043,0.07068,-0.06394,
9.36719,-42.86940,24.36639,34.38838,0.52634,0.81131,0.99765,,,0.65627,0.74878,0.07019,-0.06095,
9.37500,-46.71586,37.75879,39.66208,0.47733,0.73324,0.87473,,,0.65864,0.74702,0.07004,-0.05702,
9.38281,-49.84112,49.76209,50.38409,-0.41800,3.98422,1.57159,,,0.66113,0.74520,0.06991,-0.05198,
9.39063,-130.58254,41.89049,47.86948,-1.13232,6.62765,2.20069,,,0.66771,0.73964,0.06982,-0.04708,
9.39844,-242.37042,26.25415,58.38195,-1.45503,2.03812,-0.21942,,,0.67991,0.72885,0.06884,-0.04194,
9.40625,-252.33002,-49.14934,120.72330,-0.92317,1.88879,-1.17760,,,0.69290,0.71744,0.06128,-0.03760,
9.41406,-264.96840,-62.86231,143.77389,-0.74459,1.79266,-0.97386,,,0.70634,0.70520,0.05195,-0.03277,
9.42188,-284.16639,-79.99461,159.90930,-0.14625,1.33541,-0.23394,,,0.72045,0.69173,0.04103,-0.02790,
9.42969,-268.02497,-84.48249,147.16163,0.18956,0.68493,0.43727,,,0.73342,0.67867,0.03044,-0.02390,
9.43750,-241.68355,-84.23316,115.03051,0.52052,0.52633,0.40629,,,0.74483,0.66657,0.02130,-0.02154,
9.44531,-227.32800,-76.86022,94.63423,0.53168,0.64930,0.27273,,,0.75530,0.65494,0.01342,-0.01989,
9.45313,-198.78860,-56.34420,57.68345,0.54721,0.84938,0.31677,,,0.76422,0.64461,0.00821,-0.01925,
9.46094,-168.56638,-37.60908,36.13464,0.45695,1.02408,0.37823,,,0.77165,0.63575,0.00488,-0.01892,
9.46875,-156.64920,-26.49624,30.12752,0.38028,0.88403,0.35935,,,0.77844,0.62745,0.00238,-0.01843,
9.47656,-127.07950,-10.85990,23.73622,0.20072,0.77569,0.41791,,,0.78387,0.62067,0.00094,-0.01761,
9.48438,-93.73203,-8.65158,21.18669,0.08960,0.70152,0.48372,,,0.78785,0.61564,-0.00030,-0.01683,
9.49219,-78.82698,-9.04337,19.37058,0.14540,0.72006,0.51808,,,0.79117,0.61138,-0.00151,-0.01617,
9.50000,-56.19465,-9.68450,13.46823,0.26235,0.81424,0.47404,,,0.79352,0.60833,-0.00254,-0.01586,
9.50781,-43.86536,-5.41033,8.19454,0.24780,0.90989,0.34919,,,0.79535,0.60595,-0.00312,-0.01564,
9.51563,-40.19061,-3.34448,5.29575,0.14298,0.93282,0.31725,,,0.79701,0.60376,-0.00348,-0.01550,
9.52344,-37.27142,-2.95268,7.42618,0.01584,0.79375,0.34435,,,0.79855,0.60172,-0.00391,-0.01523,
9.53125,-28.10172,-5.23224,11.47750,0.01681,0.73080,0.42178,,,0.79971,0.60018,-0.00464,-0.01483,
9.53906,-23.80879,-6.44325,13.88733,0.00516,0.69371,0.44985,,,0.80070,0.59887,-0.00553,-0.01434,
9.54688,-14.50172,-6.87067,15.73837,0.02942,0.69029,0.45565,,,0.80130,0.59807,-0.00654,-0.01377,
9.55469,-8.86939,-7.04876,13.39838,0.12454,0.86597,0.38355,,,0.80167,0.59757,-0.00746,-0.01332,
9.56250,-8.86939,-4.87606,10.74407,0.04350,1.02749,0.27321,,,0.80204,0.59707,-0.00816,-0.01294,
9.57031,-12.33808,-5.41033,11.40765,0.06145,0.93282,0.38742,,,0.80255,0.59638,-0.00891,-0.01254,
9.57813,-9.59061,-5.01853,10.04557,0.22644,0.88500,0.41984,,,0.80295,0.59585,-0.00958,-0.01220,
9.58594,-5.64111,-1.67043,3.75905,0.20267,0.95722,0.35306,,,0.80318,0.59554,-0.00982,-0.01207,
9.59375,-4.74818,-0.31694,-0.60659,0.14201,1.00797,0.39565,,,0.80337,0.59527,-0.00981,-0.01212,
9.60156,-3.16838,0.25295,-1.93375,0.07407,0.99285,0.35742,,,0.80350,0.59510,-0.00972,-0.01221,
9.60938,-2.48152,-0.03200,-1.72420,0.12551,0.90891,0.43291,,,0.80360,0.59497,-0.00965,-0.01231,
9.61719,-0.55828,0.21733,-2.94658,0.11095,0.92746,0.42662,,,0.80362,0.59494,-0.00952,-0.01246,
9.62500,1.05586,-0.21009,-4.16896,0.12793,0.88159,0.38355,,,0.80357,0.59500,-0.00936,-0.01270,
9.63281,2.32657,-0.63751,-5.53104,0.10949,0.93087,0.38597,,,0.80347,0.59513,-0.00918,-0.01302,
9.64063,2.18919,-0.81560,-5.32149,0.11143,0.93917,0.37629,,,0.80338,0.59525,-0.00901,-0.01335,
9.64844,1.60535,-0.88683,-6.92804,0.14929,0.87183,0.42662,,,0.80331,0.59534,-0.00878,-0.01376,
9.65625,3.94071,-0.31694,-8.98863,0.13958,0.96845,0.39371,,,0.80314,0.59556,-0.00844,-0.01426,
9.66406,2.91040,-0.31694,-8.88385,0.12745,0.88646,0.37581,,,0.80301,0.59572,-0.00810,-0.01476,
9.67188,3.80333,0.07486,-10.87458,0.07310,1.03579,0.38258,,,0.80285,0.59594,-0.00765,-0.01535,
9.67969,3.15081,-0.24571,-8.18535,0.05951,1.00114,0.33274,,,0.80271,0.59611,-0.00734,-0.01581,
9.68750,2.80737,-0.17447,-8.29012,0.06970,0.99138,0.38161,,,0.80259,0.59627,-0.00701,-0.01626,
9.69531,2.36091,-0.06762,-5.32149,0.05514,0.95430,0.38790,,,0.80249,0.59640,-0.00681,-0.01656,
9.70313,2.56697,0.25295,-2.59733,0.06727,0.91818,0.34774,,,0.80238,0.59654,-0.00669,-0.01669,
9.71094,2.73869,0.00362,-1.68927,0.07067,0.95430,0.33806,,,0.80227,0.59669,-0.00662,-0.01678,
9.71875,2.53263,-0.03200,-0.29227,0.07747,0.96162,0.34096,,,0.80217,0.59683,-0.00662,-0.01679,
9.72656,0.57505,0.03924,0.68563,0.06824,0.85377,0.43339,,,0.80214,0.59686,-0.00664,-0.01675,
9.73438,3.25384,0.00362,1.62861,0.09008,0.97381,0.43291,,,0.80201,0.59704,-0.00672,-0.01666,
9.74219,1.84576,-0.45942,3.89875,0.08814,0.84596,0.37532,,,0.80194,0.59713,-0.00690,-0.01647,
9.75000,3.49424,-0.28133,2.22234,0.11677,0.98065,0.36081,,,0.80180,0.59732,-0.00701,-0.01635,
9.75781,3.35687,-0.21009,2.53667,0.11968,0.94649,0.32741,,,0.80167,0.59750,-0.00713,-0.01622,
9.76563,3.32253,0.07486,1.69846,0.12890,0.96991,0.35500,,,0.80154,0.59768,-0.00720,-0.01612,
9.77344,2.80737,0.25295,1.66354,0.14492,0.94698,0.39807,,,0.80143,0.59784,-0.00726,-0.01602,
9.78125,2.63566,0.75160,0.37131,0.10076,0.91672,0.33419,,,0.80132,0.59798,-0.00724,-0.01597,
9.78906,3.56293,0.89407,-1.16540,0.09445,1.00602,0.33516,,,0.80117,0.59818,-0.00715,-0.01599,
9.79688,1.98313,0.57351,0.23161,0.08911,0.95186,0.32112,,,0.80109,0.59828,-0.00713,-0.01595,
9.80469,-0.11182,0.57351,0.58086,0.08960,0.86060,0.40871,,,0.80110,0.59828,-0.00712,-0.01590,
9.81250,1.53667,0.25295,1.24444,0.11338,0.89671,0.38549,,,0.80104,0.59836,-0.00716,-0.01582,
9.82031,1.57101,0.57351,0.93011,0.10513,0.84938,0.34677,,,0.80098,0.59845,-0.00717,-0.01574,
9.82813,3.01343,0.43104,-0.25734,0.09445,0.97577,0.35209,,,0.80085,0.59861,-0.00714,-0.01574,
9.83594,1.63970,0.07486,1.31429,0.09396,0.89378,0.32741,,,0.80079,0.59870,-0.00719,-0.01566,
