Gait Up - Physilog data export
Created on: YYYY-MM-DD hh:mm:ss
Total data points: 19655

Time [128 hz],Gyro [128 hz],,,Accel [128 hz],,,Baro [1 hz],,Event [128 hz],Quaternion [128 hz],,,,
Time,Gyro X,Gyro Y,Gyro Z,Accel X,Accel Y,Accel Z,Pressure,Temperature,Quat W,Quat X,Quat Y,Quat Z,
[s],[deg/s],[deg/s],[deg/s],[g],[g],[g],[mBar],[degree C],[],[],[],[],
0.00781,0.99251,-0.49422,-0.52785,0.19735,0.96892,0.16189,1021.958,25.5,0.00000,0.00000,0.00000,0.00000,
0.01563,0.78467,-0.28088,-0.59815,0.20620,0.97039,0.16576,,,0.76207,0.63413,-0.13087,0.00000,
0.02344,0.81931,-0.20977,-0.66844,0.20227,0.97039,0.16285,,,0.76203,0.63418,-0.13085,-0.00004,
0.03125,0.88859,-0.20977,-0.77388,0.19441,0.96550,0.16673,,,0.76199,0.63424,-0.13083,-0.00008,
0.03906,0.95787,-0.52977,-0.66844,0.20374,0.96892,0.16624,,,0.76194,0.63429,-0.13083,-0.00013,
0.04688,0.88859,-0.45866,-0.84417,0.19981,0.97381,0.16915,,,0.76190,0.63435,-0.13081,-0.00018,
0.05469,0.95787,0.11023,-1.09019,0.19981,0.97723,0.17060,,,0.76186,0.63440,-0.13076,-0.00023,
0.06250,1.06179,0.25246,-1.16049,0.20423,0.97283,0.16092,,,0.76182,0.63447,-0.13070,-0.00027,
0.07031,1.02715,0.46579,-1.05505,0.19883,0.96794,0.16431,,,0.76178,0.63453,-0.13063,-0.00029,
0.07813,1.16571,0.75024,-1.23078,0.20128,0.97087,0.16673,,,0.76173,0.63460,-0.13054,-0.00031,
0.08594,1.16571,0.99913,-1.37137,0.20325,0.96990,0.16770,,,0.76169,0.63468,-0.13042,-0.00033,
0.09375,1.13107,0.82135,-1.40651,0.19441,0.97039,0.16624,,,0.76165,0.63475,-0.13032,-0.00036,
0.10156,0.92323,0.67913,-1.37137,0.19735,0.96794,0.16431,,,0.76162,0.63481,-0.13023,-0.00039,
0.10938,1.06179,0.57246,-1.30107,0.19097,0.97185,0.16237,,,0.76158,0.63488,-0.13014,-0.00042,
0.11719,0.95787,0.46579,-1.44166,0.19932,0.96892,0.16818,,,0.76154,0.63494,-0.13005,-0.00047,
0.12500,0.88859,0.14579,-1.37137,0.19244,0.96941,0.16576,,,0.76150,0.63500,-0.12999,-0.00053,
0.13281,0.85395,0.07468,-1.33622,0.19539,0.97576,0.15995,,,0.76146,0.63505,-0.12992,-0.00059,
0.14063,0.85395,0.14579,-1.19563,0.19686,0.97185,0.15946,,,0.76143,0.63511,-0.12987,-0.00063,
0.14844,0.81931,0.21690,-1.19563,0.19686,0.97185,0.16140,,,0.76139,0.63516,-0.12980,-0.00068,
0.15625,1.06179,0.60801,-1.01990,0.18950,0.97430,0.16285,,,0.76135,0.63522,-0.12973,-0.00070,
0.16406,1.02715,0.35912,-0.94961,0.19539,0.97136,0.16237,,,0.76131,0.63529,-0.12967,-0.00072,
0.17188,1.16571,0.25246,-0.91446,0.20177,0.97430,0.16527,,,0.76126,0.63535,-0.12961,-0.00075,
0.17969,1.30427,0.28801,-0.73873,0.19539,0.97039,0.16527,,,0.76121,0.63543,-0.12957,-0.00076,
0.18750,1.13107,0.28801,-0.52785,0.19146,0.97625,0.17060,,,0.76116,0.63549,-0.12953,-0.00077,
0.19531,0.95787,-0.17421,-0.52785,0.19441,0.97087,0.16624,,,0.76112,0.63555,-0.12952,-0.00079,
0.20313,0.81931,-0.49422,-0.35212,0.19539,0.97332,0.16092,,,0.76108,0.63559,-0.12953,-0.00083,
0.21094,0.75003,-0.63644,-0.35212,0.19146,0.96941,0.16431,,,0.76104,0.63563,-0.12954,-0.00087,
0.21875,0.68075,-0.99200,-0.24668,0.19539,0.96647,0.16818,,,0.76100,0.63567,-0.12958,-0.00092,
0.22656,0.64611,-1.06311,-0.14124,0.19637,0.97185,0.15898,,,0.76097,0.63571,-0.12963,-0.00096,
0.23438,0.71539,-0.74311,-0.14124,0.19048,0.97185,0.16189,,,0.76093,0.63574,-0.12967,-0.00100,
0.24219,0.75003,-0.74311,-0.00066,0.19048,0.97234,0.16334,,,0.76089,0.63578,-0.12971,-0.00102,
0.25000,0.78467,-0.84978,-0.00066,0.19637,0.96990,0.16285,,,0.76085,0.63582,-0.12975,-0.00105,
0.25781,0.71539,-0.99200,0.10478,0.19932,0.96647,0.16092,,,0.76081,0.63586,-0.12981,-0.00108,
0.26563,0.92323,-0.77866,0.13993,0.20128,0.97283,0.16721,,,0.76076,0.63591,-0.12985,-0.00110,
0.27344,0.92323,-0.56533,0.13993,0.19834,0.96745,0.16770,,,0.76072,0.63595,-0.12989,-0.00111,
0.28125,1.02715,-0.88533,0.17507,0.19735,0.97087,0.17012,,,0.76067,0.63601,-0.12994,-0.00113,
0.28906,0.92323,-1.24089,0.13993,0.20079,0.97185,0.16092,,,0.76061,0.63605,-0.13001,-0.00117,
0.29688,1.09643,-0.67200,0.03449,0.19834,0.97234,0.16285,,,0.76056,0.63611,-0.13005,-0.00119,
0.30469,0.99251,-1.20533,0.06963,0.19735,0.97381,0.16866,,,0.76051,0.63616,-0.13011,-0.00123,
0.31250,0.78467,-0.77866,-0.00066,0.19686,0.97039,0.16092,,,0.76047,0.63620,-0.13015,-0.00125,
0.32031,0.85395,-0.28088,-0.03580,0.19883,0.97234,0.15656,,,0.76043,0.63624,-0.13017,-0.00126,
0.32813,0.92323,-0.63644,-0.00066,0.20276,0.97283,0.16285,,,0.76038,0.63629,-0.13020,-0.00128,
0.33594,0.95787,-0.24533,-0.28183,0.19441,0.97381,0.16963,,,0.76034,0.63634,-0.13020,-0.00130,
0.34375,0.85395,-0.17421,-0.49271,0.19785,0.96403,0.16285,,,0.76030,0.63639,-0.13019,-0.00132,
0.35156,1.30427,-0.03199,-0.52785,0.18802,0.96843,0.17302,,,0.76024,0.63647,-0.13017,-0.00134,
0.35938,0.78467,-1.70312,-0.70358,0.20079,0.97039,0.18174,,,0.76019,0.63651,-0.13022,-0.00144,
0.36719,0.81931,-1.13422,-0.91446,0.20030,0.96843,0.16237,,,0.76015,0.63656,-0.13024,-0.00153,
0.37500,1.16571,0.43024,-0.80902,0.20177,0.96892,0.16092,,,0.76010,0.63663,-0.13019,-0.00154,
0.38281,1.23499,0.14579,-0.84417,0.19785,0.97430,0.15317,,,0.76005,0.63670,-0.13014,-0.00157,
0.39063,1.26963,0.32357,-0.98476,0.19539,0.97479,0.16915,,,0.75999,0.63678,-0.13008,-0.00160,
0.39844,1.23499,0.57246,-1.19563,0.20472,0.97576,0.16770,,,0.75995,0.63685,-0.13000,-0.00162,
0.40625,1.26963,0.53690,-1.37137,0.20177,0.97332,0.16963,,,0.75990,0.63693,-0.12991,-0.00166,
0.41406,1.09643,0.75024,-1.33622,0.19932,0.97332,0.16479,,,0.75985,0.63700,-0.12982,-0.00169,
0.42188,1.02715,0.21690,-1.33622,0.19932,0.96794,0.16624,,,0.75981,0.63706,-0.12975,-0.00174,
0.42969,0.99251,0.18134,-1.37137,0.19342,0.97967,0.16140,,,0.75977,0.63713,-0.12968,-0.00179,
0.43750,0.99251,0.32357,-1.33622,0.19293,0.97039,0.15946,,,0.75973,0.63719,-0.12961,-0.00184,
0.44531,0.99251,0.28801,-1.51195,0.19539,0.97185,0.16043,,,0.75969,0.63725,-0.12952,-0.00189,
0.45313,1.02715,-0.20977,-1.33622,0.19932,0.97087,0.15995,,,0.75964,0.63732,-0.12948,-0.00196,
0.46094,1.09643,0.60801,-1.16049,0.20128,0.97234,0.16576,,,0.75960,0.63739,-0.12940,-0.00199,
0.46875,1.13107,0.85691,-1.23078,0.19146,0.97136,0.15559,,,0.75956,0.63746,-0.12930,-0.00200,
0.47656,1.02715,0.85691,-1.12534,0.18851,0.97234,0.16963,,,0.75952,0.63752,-0.12921,-0.00202,
0.48438,0.88859,0.18134,-1.05505,0.19785,0.97039,0.16866,,,0.75948,0.63757,-0.12915,-0.00206,
0.49219,0.95787,0.11023,-0.98476,0.19735,0.96599,0.16673,,,0.75944,0.63763,-0.12910,-0.00209,
0.50000,0.95787,0.21690,-0.84417,0.19883,0.97039,0.16479,,,0.75940,0.63769,-0.12905,-0.00212,
0.50781,0.95787,0.03912,-0.87932,0.19441,0.97039,0.16624,,,0.75936,0.63775,-0.12901,-0.00215,
0.51563,0.95787,0.03912,-0.66844,0.19539,0.97430,0.17012,,,0.75932,0.63780,-0.12898,-0.00218,
0.52344,0.92323,-0.24533,-0.45756,0.19785,0.97332,0.16818,,,0.75928,0.63785,-0.12898,-0.00220,
0.53125,1.02715,0.03912,-0.45756,0.19637,0.97283,0.16092,,,0.75923,0.63791,-0.12895,-0.00222,
0.53906,1.20035,0.50135,-0.42241,0.19244,0.96892,0.16140,,,0.75919,0.63798,-0.12891,-0.00221,
0.54688,1.13107,0.53690,-0.31697,0.19686,0.96941,0.16189,,,0.75914,0.63804,-0.12887,-0.00219,
0.55469,1.02715,0.50135,-0.24668,0.19244,0.97821,0.16334,,,0.75910,0.63809,-0.12883,-0.00217,
0.56250,1.02715,0.14579,-0.35212,0.18950,0.97723,0.16624,,,0.75906,0.63815,-0.12881,-0.00218,
0.57031,0.85395,-0.38755,-0.10610,0.20079,0.97136,0.16189,,,0.75902,0.63820,-0.12882,-0.00219,
0.57813,0.64611,-0.56533,-0.14124,0.19834,0.96550,0.16140,,,0.75898,0.63823,-0.12885,-0.00222,
0.58594,0.68075,-0.77866,-0.10610,0.19392,0.96990,0.16140,,,0.75895,0.63827,-0.12888,-0.00225,
0.59375,0.64611,-1.13422,-0.21154,0.19539,0.96696,0.16624,,,0.75891,0.63830,-0.12893,-0.00230,
0.60156,0.61147,-1.20533,-0.17639,0.19539,0.97039,0.16866,,,0.75887,0.63833,-0.12899,-0.00236,
0.60938,0.64611,-1.13422,-0.17639,0.20276,0.97185,0.16866,,,0.75883,0.63837,-0.12904,-0.00241,
0.61719,0.78467,-0.99200,-0.17639,0.20177,0.97136,0.16382,,,0.75879,0.63841,-0.12908,-0.00246,
0.62500,0.75003,-0.81422,-0.49271,0.20128,0.97136,0.16866,,,0.75875,0.63845,-0.12910,-0.00251,
0.63281,0.85395,-0.60088,-0.49271,0.19539,0.97136,0.16431,,,0.75871,0.63850,-0.12911,-0.00256,
0.64063,0.75003,-0.28088,-0.52785,0.19834,0.97185,0.17012,,,0.75867,0.63855,-0.12911,-0.00259,
0.64844,0.71539,-0.49422,-0.35212,0.19735,0.96843,0.16576,,,0.75864,0.63859,-0.12912,-0.00262,
0.65625,0.78467,-0.49422,-0.52785,0.19735,0.97283,0.16237,,,0.75860,0.63863,-0.12912,-0.00267,
0.66406,0.92323,-0.45866,-0.45756,0.19883,0.96599,0.16479,,,0.75855,0.63868,-0.12912,-0.00270,
0.67188,0.78467,-0.74311,-0.66844,0.19637,0.96745,0.17399,,,0.75851,0.63873,-0.12913,-0.00276,
0.67969,0.75003,-0.88533,-0.63329,0.19932,0.96647,0.16576,,,0.75847,0.63877,-0.12915,-0.00283,
0.68750,0.81931,-0.99200,-0.73873,0.19981,0.97039,0.16818,,,0.75843,0.63882,-0.12917,-0.00290,
0.69531,0.68075,-1.13422,-0.77388,0.20227,0.97283,0.16624,,,0.75839,0.63886,-0.12919,-0.00298,
0.70313,0.54219,-1.09867,-0.70358,0.19883,0.96647,0.16527,,,0.75835,0.63890,-0.12922,-0.00306,
0.71094,0.71539,-0.67200,-0.98476,0.20079,0.97332,0.17302,,,0.75832,0.63894,-0.12921,-0.00314,
0.71875,0.54219,-0.63644,-1.12534,0.20276,0.97723,0.16576,,,0.75829,0.63898,-0.12920,-0.00322,
0.72656,0.50755,-0.49422,-1.12534,0.20374,0.97430,0.16624,,,0.75826,0.63902,-0.12917,-0.00329,
0.73438,0.78467,-0.20977,-1.01990,0.19981,0.97576,0.16382,,,0.75823,0.63907,-0.12914,-0.00335,
0.74219,0.88859,0.03912,-1.26593,0.19637,0.96990,0.16479,,,0.75819,0.63912,-0.12908,-0.00340,
0.75000,0.92323,-0.06755,-1.26593,0.19637,0.97039,0.16721,,,0.75815,0.63918,-0.12903,-0.00346,
0.75781,0.88859,-0.42311,-1.23078,0.19932,0.97136,0.16527,,,0.75810,0.63924,-0.12900,-0.00354,
0.76563,0.88859,-0.56533,-1.19563,0.19293,0.97576,0.16818,,,0.75806,0.63930,-0.12898,-0.00362,
0.77344,0.92323,-0.42311,-1.19563,0.19686,0.97087,0.16285,,,0.75801,0.63935,-0.12895,-0.00369,
0.78125,0.99251,-0.31644,-1.30107,0.19490,0.96990,0.16285,,,0.75797,0.63942,-0.12891,-0.00376,
0.78906,1.09643,-0.35199,-1.37137,0.20079,0.97039,0.17109,,,0.75792,0.63949,-0.12887,-0.00384,
0.79688,0.99251,-0.06755,-1.23078,0.20079,0.96941,0.17109,,,0.75787,0.63955,-0.12882,-0.00390,
0.80469,1.16571,0.18134,-1.44166,0.20570,0.97185,0.16818,,,0.75782,0.63962,-0.12874,-0.00395,
0.81250,1.20035,0.32357,-1.47680,0.20128,0.97087,0.16818,,,0.75777,0.63970,-0.12866,-0.00400,
0.82031,1.16571,0.35912,-1.44166,0.19932,0.97185,0.17205,,,0.75772,0.63977,-0.12858,-0.00405,
0.82813,1.06179,0.18134,-1.47680,0.19637,0.96696,0.16866,,,0.75768,0.63984,-0.12851,-0.00411,
0.83594,0.99251,0.28801,-1.51195,0.19932,0.97479,0.16770,,,0.75764,0.63990,-0.12843,-0.00417,
0.84375,1.06179,0.32357,-1.40651,0.19293,0.97625,0.16527,,,0.75759,0.63997,-0.12835,-0.00422,
0.85156,0.99251,0.25246,-1.37137,0.19785,0.97674,0.16673,,,0.75755,0.64003,-0.12828,-0.00427,
0.85938,0.95787,0.14579,-1.40651,0.19195,0.97527,0.16092,,,0.75751,0.64009,-0.12821,-0.00433,
0.86719,0.95787,0.32357,-1.26593,0.19097,0.97576,0.16576,,,0.75747,0.64015,-0.12814,-0.00437,
0.87500,0.95787,0.11023,-1.33622,0.19539,0.96892,0.16576,,,0.75743,0.64022,-0.12807,-0.00443,
0.88281,0.95787,-0.10310,-1.23078,0.19637,0.97185,0.16673,,,0.75739,0.64028,-0.12803,-0.00448,
0.89063,0.81931,-0.06755,-1.09019,0.19490,0.96892,0.16382,,,0.75735,0.64033,-0.12798,-0.00454,
0.89844,0.88859,0.00356,-0.91446,0.19981,0.96990,0.16624,,,0.75731,0.64038,-0.12794,-0.00458,
0.90625,0.88859,0.21690,-1.19563,0.19392,0.97430,0.16479,,,0.75728,0.64044,-0.12788,-0.00462,
0.91406,0.78467,0.14579,-1.16049,0.18900,0.97283,0.16721,,,0.75724,0.64049,-0.12782,-0.00467,
0.92188,0.64611,0.14579,-0.94961,0.19981,0.97087,0.16721,,,0.75721,0.64053,-0.12777,-0.00470,
0.92969,0.64611,0.03912,-0.87932,0.19539,0.96745,0.16770,,,0.75719,0.64057,-0.12773,-0.00474,
0.93750,0.68075,0.25246,-1.01990,0.19539,0.96403,0.16576,,,0.75716,0.64061,-0.12767,-0.00478,
0.94531,0.78467,0.57246,-0.87932,0.18999,0.97136,0.16576,,,0.75713,0.64066,-0.12761,-0.00479,
0.95313,0.68075,0.21690,-0.84417,0.19539,0.96941,0.16479,,,0.75710,0.64071,-0.12756,-0.00482,
0.96094,0.71539,0.03912,-0.77388,0.20177,0.97430,0.16382,,,0.75707,0.64075,-0.12752,-0.00485,
0.96875,0.85395,0.25246,-0.66844,0.19588,0.97527,0.15995,,,0.75703,0.64080,-0.12748,-0.00487,
0.97656,0.71539,0.89246,-0.59815,0.19146,0.97576,0.17109,,,0.75701,0.64084,-0.12741,-0.00485,
0.98438,0.50755,0.43024,-0.45756,0.18704,0.97234,0.16382,,,0.75699,0.64087,-0.12737,-0.00485,
0.99219,0.33436,0.07468,-0.31697,0.18753,0.97087,0.17302,,,0.75698,0.64089,-0.12735,-0.00486,
1.00000,0.33436,-0.38755,-0.28183,0.18851,0.97332,0.16431,,,0.75696,0.64091,-0.12736,-0.00489,
1.00781,0.54219,-0.56533,-0.21154,0.19146,0.97234,0.16721,1021.969,25.6,0.75693,0.64094,-0.12738,-0.00492,
1.01563,0.36900,-0.52977,-0.31697,0.19834,0.97234,0.16770,,,0.75691,0.64096,-0.12739,-0.00496,
1.02344,0.50755,-0.60088,-0.38727,0.18900,0.97087,0.16382,,,0.75688,0.64099,-0.12741,-0.00500,
1.03125,0.33436,-0.56533,-0.35212,0.19785,0.97039,0.16770,,,0.75686,0.64101,-0.12742,-0.00504,
1.03906,0.26508,-0.52977,-0.70358,0.20177,0.97234,0.17012,,,0.75685,0.64103,-0.12742,-0.00510,
1.04688,0.33436,-0.56533,-0.73873,0.20276,0.96794,0.16866,,,0.75683,0.64106,-0.12741,-0.00516,
1.05469,0.64611,-0.28088,-0.77388,0.19834,0.97625,0.17157,,,0.75680,0.64110,-0.12739,-0.00521,
1.06250,0.64611,-0.17421,-1.01990,0.19588,0.96207,0.16624,,,0.75677,0.64114,-0.12736,-0.00526,
1.07031,0.78467,-0.13866,-1.05505,0.19293,0.96892,0.17012,,,0.75673,0.64119,-0.12732,-0.00531,
1.07813,0.85395,0.03912,-1.33622,0.19588,0.97479,0.17351,,,0.75669,0.64124,-0.12726,-0.00537,
1.08594,0.92323,-0.03199,-1.33622,0.19932,0.97527,0.17351,,,0.75665,0.64130,-0.12720,-0.00544,
1.09375,1.09643,0.11023,-1.47680,0.19981,0.97479,0.16721,,,0.75660,0.64137,-0.12713,-0.00550,
1.10156,1.20035,0.53690,-1.54710,0.19637,0.97527,0.16963,,,0.75656,0.64145,-0.12704,-0.00554,
1.10938,1.26963,0.71468,-1.68768,0.19588,0.97087,0.16673,,,0.75651,0.64153,-0.12693,-0.00559,
1.11719,1.44283,0.82135,-1.82827,0.19588,0.97185,0.16770,,,0.75645,0.64162,-0.12681,-0.00563,
1.12500,1.44283,0.85691,-1.72283,0.20030,0.96990,0.16673,,,0.75639,0.64171,-0.12669,-0.00567,
1.13281,1.44283,1.03468,-1.96885,0.19539,0.96892,0.16479,,,0.75634,0.64180,-0.12655,-0.00572,
1.14063,1.51211,0.71468,-2.21488,0.18950,0.97039,0.14881,,,0.75628,0.64190,-0.12642,-0.00579,
1.14844,1.92778,0.99913,-2.21488,0.19195,0.97674,0.17544,,,0.75620,0.64202,-0.12627,-0.00584,
1.15625,1.47747,0.75024,-2.10944,0.18606,0.96843,0.16431,,,0.75614,0.64211,-0.12614,-0.00590,
1.16406,1.61603,0.53690,-2.32032,0.19048,0.97381,0.16431,,,0.75607,0.64221,-0.12601,-0.00599,
1.17188,1.37355,0.28801,-2.39061,0.19932,0.97234,0.16527,,,0.75602,0.64231,-0.12589,-0.00609,
1.17969,1.54675,0.53690,-2.28517,0.19883,0.96794,0.16721,,,0.75595,0.64240,-0.12576,-0.00617,
1.18750,1.47747,0.67913,-2.53120,0.19883,0.96990,0.16963,,,0.75589,0.64250,-0.12562,-0.00625,
1.19531,1.58139,0.78579,-2.56634,0.19195,0.97087,0.16673,,,0.75583,0.64261,-0.12547,-0.00634,
1.20313,1.58139,0.85691,-2.49605,0.18851,0.97625,0.16963,,,0.75576,0.64271,-0.12531,-0.00642,
1.21094,1.65067,1.21246,-2.56634,0.18704,0.97381,0.17060,,,0.75570,0.64282,-0.12514,-0.00648,
1.21875,1.58139,1.28358,-2.63663,0.19392,0.97283,0.16431,,,0.75564,0.64292,-0.12496,-0.00655,
1.22656,1.68530,0.89246,-2.67178,0.20079,0.97723,0.16866,,,0.75557,0.64303,-0.12479,-0.00663,
1.23438,1.47747,0.89246,-2.84751,0.18851,0.97479,0.16431,,,0.75552,0.64313,-0.12462,-0.00673,
1.24219,1.61603,1.78136,-2.70693,0.18753,0.97967,0.16818,,,0.75546,0.64324,-0.12442,-0.00677,
1.25000,1.40819,1.39024,-2.53120,0.18704,0.97821,0.16721,,,0.75541,0.64333,-0.12423,-0.00683,
1.25781,1.16571,1.49691,-2.70693,0.18704,0.97772,0.16818,,,0.75537,0.64342,-0.12404,-0.00690,
1.26563,1.06179,1.07024,-2.49605,0.18557,0.97625,0.16576,,,0.75533,0.64349,-0.12387,-0.00697,
1.27344,0.88859,1.14135,-2.49605,0.18507,0.97723,0.16479,,,0.75530,0.64356,-0.12371,-0.00704,
1.28125,0.75003,1.10580,-2.32032,0.18606,0.97821,0.16334,,,0.75527,0.64362,-0.12355,-0.00710,
1.28906,0.78467,0.82135,-2.07429,0.19146,0.97234,0.16140,,,0.75525,0.64368,-0.12341,-0.00717,
1.29688,0.78467,0.99913,-2.10944,0.18360,0.97625,0.16624,,,0.75522,0.64374,-0.12327,-0.00723,
1.30469,0.88859,1.03468,-1.93371,0.18753,0.97381,0.16673,,,0.75519,0.64380,-0.12313,-0.00727,
1.31250,0.75003,0.75024,-1.68768,0.18557,0.97527,0.16915,,,0.75516,0.64385,-0.12302,-0.00732,
1.32031,0.92323,0.82135,-1.44166,0.18409,0.97674,0.17157,,,0.75512,0.64391,-0.12292,-0.00735,
1.32813,0.92323,1.17691,-1.47680,0.18115,0.97185,0.16479,,,0.75509,0.64397,-0.12279,-0.00737,
1.33594,0.85395,0.85691,-1.05505,0.18409,0.96941,0.16285,,,0.75506,0.64403,-0.12270,-0.00738,
1.34375,0.88859,0.78579,-0.87932,0.18213,0.97234,0.16866,,,0.75503,0.64408,-0.12262,-0.00738,
1.35156,0.95787,0.89246,-0.87932,0.18409,0.97087,0.17109,,,0.75499,0.64414,-0.12254,-0.00738,
1.35938,0.92323,0.53690,-0.52785,0.18704,0.97821,0.16673,,,0.75496,0.64419,-0.12249,-0.00737,
1.36719,0.88859,0.43024,-0.45756,0.18704,0.97430,0.17109,,,0.75492,0.64424,-0.12245,-0.00737,
1.37500,0.88859,0.50135,-0.14124,0.18557,0.97576,0.16189,,,0.75489,0.64429,-0.12241,-0.00735,
1.38281,0.95787,0.57246,-0.10610,0.18507,0.97381,0.16431,,,0.75485,0.64434,-0.12238,-0.00732,
1.39063,0.92323,0.14579,-0.07095,0.18164,0.97821,0.17351,,,0.75481,0.64439,-0.12237,-0.00731,
1.39844,0.85395,-0.31644,0.10478,0.18557,0.97136,0.17157,,,0.75477,0.64443,-0.12239,-0.00731,
1.40625,0.88859,-0.31644,0.21022,0.18753,0.97674,0.16576,,,0.75473,0.64447,-0.12242,-0.00731,
1.41406,1.20035,-0.03199,0.13993,0.18458,0.97479,0.17399,,,0.75468,0.64453,-0.12243,-0.00729,
1.42188,1.09643,-0.42311,0.35081,0.18360,0.97919,0.16721,,,0.75463,0.64459,-0.12246,-0.00728,
1.42969,1.06179,-0.67200,0.35081,0.18409,0.96990,0.17448,,,0.75457,0.64464,-0.12251,-0.00729,
1.43750,1.09643,-0.77866,0.49139,0.19195,0.97723,0.16624,,,0.75452,0.64469,-0.12258,-0.00729,
1.44531,1.09643,-0.24533,0.45624,0.19539,0.96990,0.16818,,,0.75447,0.64474,-0.12261,-0.00726,
1.45313,1.13107,-0.13866,0.31566,0.19342,0.97234,0.16527,,,0.75442,0.64480,-0.12263,-0.00724,
1.46094,1.23499,0.07468,0.45624,0.19981,0.97136,0.16382,,,0.75436,0.64486,-0.12265,-0.00721,
1.46875,1.16571,0.00356,0.45624,0.18753,0.97527,0.16721,,,0.75431,0.64491,-0.12267,-0.00717,
1.47656,1.23499,-0.24533,0.49139,0.18458,0.97625,0.16673,,,0.75426,0.64497,-0.12270,-0.00715,
1.48438,1.30427,-0.67200,0.70227,0.18704,0.97136,0.16382,,,0.75419,0.64503,-0.12277,-0.00713,
1.49219,1.30427,-0.88533,0.63198,0.18900,0.97723,0.16624,,,0.75413,0.64509,-0.12284,-0.00713,
1.50000,1.37355,-1.06311,0.56168,0.18409,0.97381,0.16963,,,0.75406,0.64516,-0.12292,-0.00713,
1.50781,1.26963,-1.34756,0.70227,0.18999,0.97332,0.16915,,,0.75399,0.64522,-0.12302,-0.00715,
1.51563,1.23499,-1.38311,0.70227,0.18458,0.97723,0.16576,,,0.75393,0.64528,-0.12313,-0.00716,
1.52344,1.26963,-1.38311,0.66712,0.19097,0.97039,0.16770,,,0.75386,0.64533,-0.12323,-0.00718,
1.53125,1.33891,-1.31200,0.70227,0.19441,0.96550,0.16915,,,0.75379,0.64540,-0.12333,-0.00719,
1.53906,1.30427,-1.20533,0.77256,0.18950,0.97234,0.17205,,,0.75372,0.64546,-0.12342,-0.00719,
1.54688,1.33891,-1.13422,0.66712,0.19048,0.97185,0.17109,,,0.75366,0.64552,-0.12351,-0.00719,
1.55469,1.33891,-1.09867,0.59683,0.19244,0.97185,0.17544,,,0.75359,0.64558,-0.12360,-0.00720,
1.56250,1.26963,-0.49422,0.59683,0.19637,0.96794,0.16673,,,0.75353,0.64564,-0.12365,-0.00718,
1.57031,1.40819,-0.42311,0.63198,0.18999,0.96892,0.16285,,,0.75346,0.64571,-0.12370,-0.00715,
1.57813,1.40819,-0.35199,0.49139,0.19441,0.97283,0.16527,,,0.75340,0.64578,-0.12374,-0.00713,
1.58594,1.33891,-0.60088,0.38595,0.19490,0.96941,0.16576,,,0.75334,0.64584,-0.12379,-0.00713,
1.59375,1.30427,-0.38755,0.28051,0.20079,0.97430,0.16576,,,0.75327,0.64591,-0.12382,-0.00712,
1.60156,1.26963,-0.20977,0.38595,0.20227,0.97087,0.16963,,,0.75322,0.64597,-0.12385,-0.00710,
1.60938,1.40819,-0.03199,0.17507,0.19490,0.96941,0.16818,,,0.75315,0.64604,-0.12386,-0.00708,
1.61719,1.37355,-0.03199,0.17507,0.18900,0.97625,0.16285,,,0.75309,0.64611,-0.12387,-0.00706,
1.62500,1.37355,-0.35199,-0.07095,0.18950,0.96696,0.16189,,,0.75303,0.64618,-0.12388,-0.00707,
1.63281,1.26963,-0.31644,-0.10610,0.20177,0.97723,0.16624,,,0.75297,0.64625,-0.12390,-0.00708,
1.64063,1.06179,0.03912,-0.24668,0.19490,0.97430,0.16527,,,0.75293,0.64630,-0.12388,-0.00708,
1.64844,1.20035,0.50135,-0.42241,0.19785,0.97185,0.16382,,,0.75288,0.64637,-0.12384,-0.00707,
1.65625,1.20035,0.64357,-0.52785,0.19392,0.97185,0.16818,,,0.75283,0.64643,-0.12378,-0.00706,
1.66406,1.26963,0.71468,-0.59815,0.19637,0.97527,0.16770,,,0.75278,0.64650,-0.12372,-0.00704,
1.67188,1.26963,0.85691,-0.80902,0.19834,0.97039,0.16721,,,0.75273,0.64658,-0.12364,-0.00704,
1.67969,1.33891,0.89246,-0.80902,0.19342,0.97332,0.16382,,,0.75268,0.64665,-0.12356,-0.00703,
1.68750,1.33891,0.71468,-0.87932,0.19981,0.96990,0.16818,,,0.75262,0.64673,-0.12349,-0.00703,
1.69531,1.47747,0.92802,-0.91446,0.18753,0.97625,0.16334,,,0.75257,0.64681,-0.12340,-0.00702,
1.70313,1.33891,1.21246,-0.87932,0.18606,0.97625,0.16431,,,0.75252,0.64689,-0.12330,-0.00700,
1.71094,1.26963,0.75024,-0.80902,0.18900,0.97234,0.16334,,,0.75247,0.64696,-0.12323,-0.00700,
1.71875,1.16571,0.89246,-0.66844,0.19342,0.96990,0.15995,,,0.75242,0.64703,-0.12315,-0.00699,
1.72656,1.33891,0.85691,-0.63329,0.18851,0.97136,0.16237,,,0.75237,0.64710,-0.12308,-0.00697,
1.73438,1.16571,0.53690,-0.59815,0.18507,0.97576,0.16673,,,0.75232,0.64717,-0.12303,-0.00697,
1.74219,1.09643,-0.06755,-0.28183,0.18409,0.97039,0.17448,,,0.75227,0.64723,-0.12302,-0.00698,
1.75000,0.99251,-0.31644,-0.31697,0.19392,0.96794,0.17157,,,0.75223,0.64728,-0.12302,-0.00700,
1.75781,0.99251,-0.35199,-0.31697,0.19048,0.97087,0.16624,,,0.75218,0.64733,-0.12303,-0.00702,
1.76563,1.02715,-0.13866,-0.17639,0.19146,0.97479,0.16237,,,0.75213,0.64739,-0.12303,-0.00703,
1.77344,1.06179,0.07468,-0.07095,0.19048,0.97674,0.16624,,,0.75209,0.64744,-0.12302,-0.00702,
1.78125,1.09643,0.21690,0.24537,0.19146,0.97772,0.16479,,,0.75204,0.64750,-0.12302,-0.00699,
1.78906,1.06179,0.11023,0.28051,0.19490,0.97234,0.16334,,,0.75200,0.64755,-0.12303,-0.00696,
1.79688,0.95787,0.03912,0.45624,0.18753,0.97332,0.16285,,,0.75195,0.64759,-0.12304,-0.00693,
1.80469,1.02715,0.11023,0.52654,0.19293,0.96745,0.17012,,,0.75191,0.64764,-0.12306,-0.00689,
1.81250,0.95787,0.03912,0.73742,0.18999,0.96941,0.16624,,,0.75187,0.64768,-0.12309,-0.00684,
1.82031,0.71539,-0.67200,0.80771,0.18851,0.96990,0.16915,,,0.75183,0.64771,-0.12316,-0.00682,
1.82813,0.54219,-1.59645,1.12403,0.19637,0.97479,0.17641,,,0.75179,0.64773,-0.12330,-0.00683,
1.83594,0.50755,-2.23645,1.19432,0.20718,0.96403,0.15801,,,0.75175,0.64775,-0.12346,-0.00686,
1.84375,0.68075,-0.77866,0.91315,0.17672,0.97430,0.16527,,,0.75172,0.64777,-0.12354,-0.00684,
1.85156,0.99251,0.07468,0.56168,0.19490,0.96990,0.16576,,,0.75167,0.64782,-0.12357,-0.00680,
1.85938,0.92323,-0.84978,1.19432,0.20079,0.97136,0.15075,,,0.75163,0.64786,-0.12366,-0.00677,
1.86719,1.51211,0.21690,1.44034,0.19195,0.97821,0.15704,,,0.75156,0.64792,-0.12372,-0.00668,
1.87500,1.78922,-0.20977,1.37005,0.17771,0.98065,0.17641,,,0.75148,0.64800,-0.12379,-0.00660,
1.88281,1.13107,-1.91645,0.84285,0.20374,0.97919,0.18755,,,0.75142,0.64805,-0.12392,-0.00663,
1.89063,1.06179,-0.24533,1.08888,0.21160,0.96647,0.15607,,,0.75137,0.64810,-0.12398,-0.00658,
1.89844,1.20035,0.89246,1.15917,0.19981,0.96354,0.15269,,,0.75132,0.64815,-0.12399,-0.00647,
1.90625,2.06634,1.56802,0.91315,0.19932,0.97185,0.13767,,,0.75125,0.64825,-0.12395,-0.00634,
1.91406,0.92323,-0.74311,1.01859,0.19244,0.97870,0.18949,,,0.75120,0.64829,-0.12404,-0.00631,
1.92188,0.54219,-1.56089,0.70227,0.19932,0.97234,0.17980,,,0.75116,0.64831,-0.12415,-0.00634,
1.92969,1.13107,0.64357,0.35081,0.19637,0.96550,0.15898,,,0.75112,0.64836,-0.12413,-0.00628,
1.93750,1.02715,0.57246,0.45624,0.20177,0.97087,0.15317,,,0.75108,0.64841,-0.12412,-0.00622,
1.94531,1.06179,-0.35199,0.42110,0.18900,0.96843,0.15753,,,0.75103,0.64846,-0.12416,-0.00621,
1.95313,0.36900,-0.45866,0.35081,0.19195,0.96892,0.16770,,,0.75101,0.64848,-0.12420,-0.00621,
1.96094,0.57683,-0.70755,0.24537,0.20128,0.97039,0.16527,,,0.75098,0.64851,-0.12424,-0.00622,
1.96875,0.75003,-0.84978,0.24537,0.20227,0.97430,0.16770,,,0.75094,0.64854,-0.12430,-0.00624,
1.97656,0.78467,-0.70755,0.21022,0.18704,0.97087,0.17351,,,0.75090,0.64858,-0.12434,-0.00625,
1.98438,0.81931,-0.70755,0.21022,0.19342,0.97527,0.17399,,,0.75085,0.64862,-0.12439,-0.00627,
1.99219,0.85395,-0.67200,0.42110,0.20227,0.97527,0.16140,,,0.75081,0.64866,-0.12444,-0.00627,
2.00000,1.13107,-0.56533,0.45624,0.19342,0.97919,0.16043,,,0.75076,0.64871,-0.12449,-0.00626,
2.00781,0.99251,-0.84978,0.49139,0.18999,0.97185,0.15995,1021.986,25.6,0.75070,0.64876,-0.12456,-0.00627,
2.01563,0.92323,-0.95644,0.49139,0.19686,0.96452,0.16189,,,0.75066,0.64880,-0.12463,-0.00627,
2.02344,0.88859,-1.16978,0.59683,0.19588,0.96892,0.16431,,,0.75061,0.64884,-0.12472,-0.00629,
2.03125,1.06179,-0.99200,0.63198,0.20030,0.97185,0.16721,,,0.75055,0.64889,-0.12480,-0.00629,
2.03906,0.81931,-1.52534,0.77256,0.18950,0.97039,0.16237,,,0.75050,0.64893,-0.12491,-0.00631,
2.04688,0.88859,-2.02312,0.87800,0.19539,0.96647,0.16866,,,0.75045,0.64896,-0.12505,-0.00635,
2.05469,0.92323,-2.52090,1.12403,0.19441,0.96892,0.16673,,,0.75038,0.64900,-0.12523,-0.00639,
2.06250,0.78467,-2.52090,1.33490,0.19735,0.97039,0.17060,,,0.75033,0.64903,-0.12542,-0.00643,
2.07031,0.78467,-2.48534,1.47549,0.19932,0.97185,0.16189,,,0.75027,0.64905,-0.12561,-0.00646,
2.07813,1.02715,-1.84534,1.61607,0.19883,0.97479,0.17060,,,0.75021,0.64909,-0.12578,-0.00645,
2.08594,0.95787,-1.98756,1.58093,0.20521,0.96941,0.16770,,,0.75015,0.64913,-0.12595,-0.00645,
2.09375,1.13107,-1.95201,1.75666,0.19490,0.97283,0.16770,,,0.75009,0.64917,-0.12613,-0.00644,
2.10156,0.99251,-2.30756,2.03783,0.20374,0.97234,0.16818,,,0.75003,0.64920,-0.12634,-0.00642,
2.10938,1.06179,-2.12979,2.00268,0.20030,0.97283,0.16479,,,0.74996,0.64924,-0.12653,-0.00641,
2.11719,1.20035,-2.52090,2.07298,0.20030,0.97772,0.16092,,,0.74989,0.64928,-0.12676,-0.00640,
2.12500,1.02715,-2.44979,2.07298,0.20276,0.97136,0.16237,,,0.74982,0.64931,-0.12697,-0.00640,
2.13281,0.99251,-2.69868,2.07298,0.19588,0.97527,0.15898,,,0.74975,0.64934,-0.12720,-0.00640,
2.14063,0.85395,-3.05424,2.07298,0.20276,0.97136,0.16382,,,0.74969,0.64937,-0.12745,-0.00642,
2.14844,0.81931,-3.08979,1.96754,0.20521,0.97234,0.16479,,,0.74963,0.64939,-0.12770,-0.00645,
2.15625,0.85395,-2.98313,1.93239,0.20816,0.97039,0.16527,,,0.74957,0.64942,-0.12794,-0.00648,
2.16406,1.09643,-2.09423,1.75666,0.20718,0.96354,0.15220,,,0.74950,0.64946,-0.12812,-0.00647,
2.17188,1.61603,-1.70312,1.65122,0.19981,0.96110,0.14930,,,0.74941,0.64952,-0.12828,-0.00645,
2.17969,1.06179,-4.44092,1.40520,0.21012,0.98114,0.21128,,,0.74933,0.64956,-0.12857,-0.00656,
2.18750,0.95787,-2.94757,1.08888,0.21504,0.97576,0.15511,,,0.74926,0.64960,-0.12877,-0.00663,
2.19531,1.33891,-0.49422,1.12403,0.21356,0.96843,0.14252,,,0.74920,0.64966,-0.12885,-0.00658,
2.20313,1.99706,-1.24089,1.26461,0.21307,0.96794,0.16043,,,0.74910,0.64975,-0.12897,-0.00656,
2.21094,1.40819,-1.98756,0.80771,0.21160,0.97283,0.16237,,,0.74902,0.64981,-0.12910,-0.00659,
2.21875,1.37355,-0.38755,0.66712,0.21160,0.96550,0.15172,,,0.74896,0.64988,-0.12915,-0.00656,
2.22656,2.13562,-0.49422,0.52654,0.21504,0.96990,0.16770,,,0.74886,0.64998,-0.12920,-0.00654,
2.23438,1.54675,-0.77866,0.45624,0.20718,0.96990,0.14542,,,0.74878,0.65006,-0.12926,-0.00653,
2.24219,1.71994,0.18134,0.45624,0.20521,0.97039,0.14736,,,0.74871,0.65014,-0.12928,-0.00649,
2.25000,1.78922,-1.31200,0.49139,0.21798,0.96745,0.16576,,,0.74862,0.65023,-0.12937,-0.00651,
2.25781,1.78922,-1.48978,0.24537,0.21160,0.97234,0.16431,,,0.74852,0.65032,-0.12945,-0.00654,
2.26563,1.89314,0.46579,0.03449,0.20423,0.96990,0.16527,,,0.74844,0.65041,-0.12943,-0.00650,
2.27344,1.82386,-1.16978,-0.10610,0.21209,0.97234,0.16770,,,0.74835,0.65051,-0.12949,-0.00655,
2.28125,1.75458,-1.06311,-0.10610,0.21749,0.96941,0.16043,,,0.74827,0.65060,-0.12954,-0.00658,
2.28906,2.03170,1.28358,-0.07095,0.20570,0.96305,0.17399,,,0.74819,0.65070,-0.12947,-0.00651,
2.29688,2.13562,-0.20977,-0.24668,0.20325,0.97527,0.16673,,,0.74809,0.65081,-0.12947,-0.00651,
2.30469,2.20490,0.89246,-0.31697,0.20472,0.97283,0.15511,,,0.74800,0.65093,-0.12941,-0.00647,
2.31250,1.71994,0.25246,-0.10610,0.21356,0.96745,0.17060,,,0.74793,0.65102,-0.12940,-0.00645,
2.32031,1.89314,-0.77866,-0.21154,0.20767,0.96305,0.16092,,,0.74784,0.65111,-0.12943,-0.00648,
2.32813,2.23954,1.56802,-0.17639,0.19981,0.97381,0.17109,,,0.74775,0.65123,-0.12934,-0.00640,
2.33594,1.47747,-1.66756,-0.17639,0.20718,0.96550,0.16285,,,0.74767,0.65131,-0.12942,-0.00647,
2.34375,1.54675,-1.41867,-0.28183,0.20767,0.96501,0.14155,,,0.74759,0.65139,-0.12948,-0.00653,
2.35156,1.40819,-0.35199,0.03449,0.21504,0.96696,0.17060,,,0.74752,0.65146,-0.12950,-0.00653,
2.35938,1.58139,-1.56089,-0.28183,0.20521,0.96990,0.14639,,,0.74744,0.65154,-0.12957,-0.00660,
2.36719,1.58139,-0.28088,-0.21154,0.20227,0.97430,0.16092,,,0.74736,0.65162,-0.12957,-0.00661,
2.37500,1.02715,-2.12979,-0.10610,0.21749,0.96941,0.16431,,,0.74730,0.65168,-0.12968,-0.00670,
2.38281,1.09643,-1.02755,-0.49271,0.21553,0.97967,0.15075,,,0.74724,0.65174,-0.12971,-0.00676,
2.39063,1.16571,0.21690,-0.59815,0.21209,0.97185,0.15269,,,0.74719,0.65180,-0.12967,-0.00678,
2.39844,1.23499,-1.56089,-0.80902,0.21307,0.97332,0.16576,,,0.74712,0.65187,-0.12971,-0.00687,
2.40625,1.02715,-1.84534,-1.01990,0.21012,0.97283,0.16334,,,0.74706,0.65193,-0.12976,-0.00700,
2.41406,0.85395,-0.28088,-1.16049,0.21455,0.97967,0.15462,,,0.74702,0.65198,-0.12973,-0.00706,
2.42188,1.16571,-0.35199,-1.33622,0.21897,0.97185,0.15269,,,0.74696,0.65205,-0.12969,-0.00714,
2.42969,1.13107,-0.10310,-1.51195,0.21405,0.97723,0.15946,,,0.74691,0.65213,-0.12962,-0.00721,
2.43750,0.88859,-0.42311,-1.89856,0.21405,0.97136,0.16624,,,0.74687,0.65219,-0.12956,-0.00732,
2.44531,1.02715,0.03912,-2.17973,0.21111,0.96892,0.15559,,,0.74682,0.65226,-0.12946,-0.00742,
2.45313,1.06179,0.35912,-2.28517,0.21553,0.97283,0.15753,,,0.74678,0.65233,-0.12934,-0.00751,
2.46094,0.78467,0.03912,-2.56634,0.20521,0.97136,0.15995,,,0.74674,0.65240,-0.12923,-0.00763,
2.46875,0.78467,0.14579,-2.56634,0.21160,0.96452,0.16092,,,0.74671,0.65246,-0.12911,-0.00775,
2.47656,0.78467,0.28801,-2.70693,0.20669,0.96843,0.16092,,,0.74667,0.65252,-0.12897,-0.00786,
2.48438,0.92323,0.50135,-2.81237,0.19932,0.96941,0.16092,,,0.74663,0.65259,-0.12882,-0.00798,
2.49219,0.64611,0.60801,-2.74207,0.19981,0.97527,0.15850,,,0.74661,0.65265,-0.12867,-0.00808,
2.50000,0.64611,0.67913,-2.74207,0.20472,0.97332,0.16043,,,0.74658,0.65271,-0.12851,-0.00819,
2.50781,0.64611,0.67913,-2.42576,0.19981,0.97527,0.15462,,,0.74656,0.65276,-0.12837,-0.00828,
2.51563,0.64611,0.85691,-2.39061,0.20128,0.97527,0.15414,,,0.74654,0.65282,-0.12822,-0.00835,
2.52344,0.64611,0.67913,-2.17973,0.19637,0.97576,0.15850,,,0.74651,0.65287,-0.12809,-0.00843,
2.53125,0.64611,0.25246,-1.72283,0.20128,0.97479,0.15995,,,0.74649,0.65292,-0.12800,-0.00850,
2.53906,0.61147,-0.06755,-1.61739,0.20030,0.97381,0.16479,,,0.74646,0.65296,-0.12793,-0.00858,
2.54688,0.36900,-0.60088,-1.23078,0.20325,0.97332,0.16915,,,0.74643,0.65299,-0.12791,-0.00867,
2.55469,0.43828,-0.63644,-1.16049,0.20079,0.97479,0.16673,,,0.74641,0.65302,-0.12789,-0.00875,
2.56250,0.50755,-1.13422,-0.87932,0.19588,0.96794,0.16334,,,0.74638,0.65306,-0.12791,-0.00884,
2.57031,0.50755,-1.27645,-0.35212,0.19932,0.97087,0.16576,,,0.74634,0.65309,-0.12796,-0.00891,
2.57813,0.54219,-1.41867,-0.21154,0.19637,0.96647,0.16334,,,0.74631,0.65311,-0.12802,-0.00898,
2.58594,0.57683,-1.02755,-0.00066,0.20914,0.97136,0.16237,,,0.74627,0.65314,-0.12807,-0.00902,
2.59375,0.78467,-0.74311,0.21022,0.19883,0.96990,0.15704,,,0.74623,0.65318,-0.12812,-0.00904,
2.60156,0.92323,-0.63644,0.38595,0.19932,0.96599,0.16479,,,0.74618,0.65322,-0.12817,-0.00904,
2.60938,0.78467,-0.99200,0.59683,0.20177,0.97185,0.16866,,,0.74614,0.65326,-0.12825,-0.00904,
2.61719,0.68075,-1.38311,0.77256,0.20423,0.96941,0.16915,,,0.74610,0.65328,-0.12836,-0.00906,
2.62500,0.71539,-1.63200,0.80771,0.20472,0.97283,0.16382,,,0.74605,0.65331,-0.12847,-0.00908,
2.63281,0.78467,-1.77423,1.01859,0.20128,0.97039,0.16140,,,0.74600,0.65334,-0.12861,-0.00911,
2.64063,0.85395,-1.80978,1.01859,0.20816,0.96990,0.15607,,,0.74595,0.65338,-0.12875,-0.00913,
2.64844,0.75003,-2.02312,1.01859,0.20816,0.97479,0.16237,,,0.74590,0.65340,-0.12890,-0.00916,
2.65625,0.78467,-1.88089,1.08888,0.21012,0.96941,0.16382,,,0.74585,0.65343,-0.12904,-0.00918,
2.66406,0.81931,-1.77423,0.98344,0.20718,0.97674,0.16479,,,0.74580,0.65347,-0.12918,-0.00920,
2.67188,0.85395,-1.52534,1.19432,0.21012,0.97430,0.16140,,,0.74575,0.65350,-0.12931,-0.00920,
2.67969,0.95787,-1.52534,1.08888,0.20669,0.96745,0.15801,,,0.74569,0.65354,-0.12943,-0.00921,
2.68750,0.92323,-1.41867,0.98344,0.20423,0.96892,0.15753,,,0.74564,0.65357,-0.12955,-0.00921,
2.69531,0.81931,-1.73867,0.98344,0.20865,0.96403,0.16382,,,0.74559,0.65360,-0.12968,-0.00923,
2.70313,1.06179,-1.59645,0.66712,0.21847,0.97479,0.16818,,,0.74552,0.65365,-0.12980,-0.00926,
2.71094,0.78467,-1.52534,0.66712,0.21504,0.96647,0.16285,,,0.74548,0.65368,-0.12990,-0.00929,
2.71875,1.16571,-0.84978,0.31566,0.21651,0.96843,0.15607,,,0.74542,0.65374,-0.12996,-0.00930,
2.72656,1.20035,-0.67200,0.28051,0.21455,0.97576,0.15898,,,0.74536,0.65380,-0.13001,-0.00930,
2.73438,1.26963,-0.67200,-0.03580,0.20669,0.97527,0.16043,,,0.74530,0.65386,-0.13004,-0.00932,
2.74219,1.16571,-0.56533,-0.21154,0.20472,0.97430,0.16285,,,0.74524,0.65392,-0.13006,-0.00935,
2.75000,1.16571,-0.67200,-0.17639,0.20865,0.96990,0.15656,,,0.74518,0.65398,-0.13009,-0.00938,
2.75781,1.33891,-0.42311,-0.10610,0.21258,0.96892,0.16189,,,0.74512,0.65405,-0.13011,-0.00939,
2.76563,1.51211,-0.24533,-0.42241,0.20767,0.96794,0.15946,,,0.74505,0.65413,-0.13010,-0.00941,
2.77344,1.44283,-0.24533,-0.45756,0.20865,0.97283,0.16092,,,0.74498,0.65421,-0.13009,-0.00943,
2.78125,1.33891,-0.31644,-0.49271,0.20767,0.96843,0.16237,,,0.74492,0.65428,-0.13009,-0.00946,
2.78906,1.33891,-0.31644,-0.49271,0.21012,0.96745,0.15753,,,0.74485,0.65435,-0.13008,-0.00948,
2.79688,1.40819,-0.06755,-0.59815,0.21356,0.97234,0.16043,,,0.74479,0.65443,-0.13006,-0.00950,
2.80469,1.44283,0.03912,-0.73873,0.20767,0.97039,0.15365,,,0.74473,0.65451,-0.13003,-0.00953,
2.81250,1.37355,0.03912,-0.70358,0.21160,0.96696,0.15607,,,0.74466,0.65459,-0.13000,-0.00955,
2.82031,1.30427,0.00356,-0.77388,0.20865,0.97381,0.15753,,,0.74461,0.65466,-0.12996,-0.00958,
2.82813,1.20035,0.18134,-1.01990,0.20816,0.96794,0.15753,,,0.74455,0.65473,-0.12991,-0.00961,
2.83594,1.26963,0.03912,-0.98476,0.21356,0.96892,0.15462,,,0.74450,0.65480,-0.12986,-0.00965,
2.84375,1.23499,-0.20977,-0.94961,0.21258,0.97234,0.15704,,,0.74444,0.65487,-0.12983,-0.00969,
2.85156,1.16571,-0.10310,-1.12534,0.21012,0.96696,0.15704,,,0.74439,0.65494,-0.12979,-0.00975,
2.85938,1.16571,0.00356,-1.01990,0.20767,0.97479,0.15898,,,0.74433,0.65501,-0.12974,-0.00979,
2.86719,1.09643,0.14579,-1.30107,0.21062,0.97234,0.16043,,,0.74428,0.65508,-0.12968,-0.00984,
2.87500,1.02715,0.07468,-1.12534,0.21062,0.97430,0.16140,,,0.74424,0.65514,-0.12962,-0.00988,
2.88281,1.02715,0.18134,-1.23078,0.21012,0.97087,0.16043,,,0.74419,0.65520,-0.12956,-0.00993,
2.89063,1.13107,0.43024,-1.09019,0.21012,0.97136,0.15656,,,0.74415,0.65527,-0.12949,-0.00995,
2.89844,1.23499,0.46579,-1.09019,0.20177,0.97039,0.16189,,,0.74409,0.65534,-0.12942,-0.00998,
2.90625,1.26963,0.46579,-1.09019,0.20767,0.96843,0.15850,,,0.74404,0.65542,-0.12935,-0.01000,
2.91406,1.16571,0.53690,-1.05505,0.20865,0.96452,0.15172,,,0.74399,0.65549,-0.12927,-0.01002,
2.92188,1.13107,0.50135,-0.98476,0.21209,0.96843,0.15365,,,0.74395,0.65555,-0.12921,-0.01004,
2.92969,1.16571,0.46579,-0.94961,0.20472,0.96599,0.15801,,,0.74390,0.65562,-0.12914,-0.01005,
2.93750,1.16571,0.21690,-0.94961,0.20472,0.97087,0.15269,,,0.74385,0.65569,-0.12909,-0.01008,
2.94531,1.09643,0.00356,-0.80902,0.20423,0.97234,0.15559,,,0.74380,0.65575,-0.12905,-0.01011,
2.95313,0.92323,-0.17421,-0.66844,0.20570,0.97087,0.15704,,,0.74375,0.65580,-0.12903,-0.01015,
2.96094,0.92323,-0.17421,-0.70358,0.20669,0.96550,0.15607,,,0.74371,0.65586,-0.12901,-0.01018,
2.96875,0.88859,-0.45866,-0.66844,0.20718,0.97479,0.15995,,,0.74367,0.65591,-0.12900,-0.01023,
2.97656,0.75003,-0.67200,-0.56300,0.20865,0.97234,0.15898,,,0.74363,0.65595,-0.12901,-0.01028,
2.98438,0.88859,-0.63644,-0.63329,0.20521,0.97136,0.15995,,,0.74358,0.65600,-0.12902,-0.01033,
2.99219,0.88859,-0.38755,-0.56300,0.20865,0.97234,0.15656,,,0.74354,0.65605,-0.12901,-0.01037,
3.00000,0.88859,-0.38755,-0.49271,0.20914,0.96794,0.15172,,,0.74349,0.65610,-0.12901,-0.01041,
3.00781,0.95787,-0.38755,-0.52785,0.20816,0.96892,0.15414,1021.949,25.6,0.74345,0.65615,-0.12901,-0.01044,
3.01563,0.92323,-0.35199,-0.52785,0.21111,0.97087,0.16285,,,0.74340,0.65620,-0.12900,-0.01048,
3.02344,0.88859,-0.24533,-0.45756,0.20374,0.96647,0.15946,,,0.74336,0.65625,-0.12900,-0.01050,
3.03125,0.78467,0.00356,-0.59815,0.20718,0.97185,0.15656,,,0.74332,0.65630,-0.12897,-0.01052,
3.03906,0.81931,-0.17421,-0.56300,0.20865,0.97039,0.15269,,,0.74329,0.65634,-0.12895,-0.01055,
3.04688,0.95787,-0.24533,-0.56300,0.20521,0.96501,0.15850,,,0.74324,0.65640,-0.12894,-0.01058,
3.05469,0.75003,-0.45866,-0.52785,0.20276,0.96794,0.15850,,,0.74320,0.65644,-0.12894,-0.01063,
3.06250,0.75003,-0.49422,-0.49271,0.20767,0.96354,0.15511,,,0.74316,0.65648,-0.12895,-0.01067,
3.07031,0.71539,-0.70755,-0.28183,0.20767,0.97136,0.15850,,,0.74313,0.65652,-0.12897,-0.01071,
3.07813,0.68075,-0.84978,-0.28183,0.20423,0.96403,0.15850,,,0.74309,0.65655,-0.12900,-0.01075,
3.08594,0.85395,-0.60088,-0.49271,0.20620,0.96892,0.16092,,,0.74304,0.65660,-0.12901,-0.01080,
3.09375,0.81931,-0.88533,-0.49271,0.20963,0.96794,0.15704,,,0.74300,0.65665,-0.12903,-0.01085,
3.10156,0.75003,-0.77866,-0.38727,0.20669,0.97332,0.16140,,,0.74296,0.65669,-0.12906,-0.01090,
3.10938,0.95787,-0.52977,-0.38727,0.20816,0.96745,0.15995,,,0.74291,0.65674,-0.12907,-0.01094,
3.11719,1.09643,-0.35199,-0.31697,0.20570,0.96892,0.15850,,,0.74286,0.65680,-0.12907,-0.01096,
3.12500,1.06179,-0.38755,-0.35212,0.21062,0.96892,0.15607,,,0.74281,0.65685,-0.12907,-0.01098,
3.13281,1.02715,-0.52977,-0.14124,0.20816,0.96794,0.15753,,,0.74276,0.65691,-0.12910,-0.01101,
3.14063,1.20035,-0.84978,-0.31697,0.20669,0.96647,0.15850,,,0.74269,0.65697,-0.12913,-0.01105,
3.14844,1.20035,-0.81422,-0.14124,0.20620,0.96843,0.15607,,,0.74263,0.65703,-0.12916,-0.01108,
3.15625,1.13107,-0.70755,-0.07095,0.21012,0.96941,0.15898,,,0.74258,0.65709,-0.12920,-0.01111,
3.16406,1.26963,-0.67200,-0.17639,0.21062,0.96696,0.15801,,,0.74251,0.65715,-0.12922,-0.01114,
3.17188,1.33891,-0.52977,-0.35212,0.21258,0.97332,0.16043,,,0.74245,0.65722,-0.12923,-0.01117,
3.17969,1.13107,-0.63644,-0.31697,0.20570,0.97185,0.15995,,,0.74239,0.65728,-0.12925,-0.01120,
3.18750,1.23499,-0.56533,-0.42241,0.21012,0.97332,0.15753,,,0.74233,0.65735,-0.12926,-0.01124,
3.19531,1.20035,-0.63644,-0.38727,0.21553,0.97185,0.15850,,,0.74227,0.65741,-0.12928,-0.01127,
3.20313,1.30427,-0.13866,-0.49271,0.20865,0.96990,0.15607,,,0.74221,0.65748,-0.12927,-0.01129,
3.21094,1.23499,0.18134,-0.59815,0.20521,0.97283,0.15753,,,0.74216,0.65755,-0.12923,-0.01130,
3.21875,1.30427,0.28801,-0.63329,0.20767,0.97185,0.15801,,,0.74210,0.65762,-0.12919,-0.01131,
3.22656,1.09643,-0.20977,-0.63329,0.21209,0.97576,0.15607,,,0.74205,0.65768,-0.12917,-0.01134,
3.23438,1.09643,0.00356,-0.91446,0.21012,0.96550,0.15753,,,0.74200,0.65775,-0.12913,-0.01138,
3.24219,1.13107,0.03912,-0.87932,0.21307,0.96696,0.15559,,,0.74195,0.65781,-0.12909,-0.01141,
3.25000,0.99251,-0.24533,-1.05505,0.20816,0.96501,0.15946,,,0.74190,0.65787,-0.12906,-0.01147,
3.25781,0.95787,-0.28088,-1.09019,0.20865,0.96599,0.16334,,,0.74186,0.65793,-0.12902,-0.01153,
3.26563,0.92323,-0.13866,-1.19563,0.21258,0.97332,0.15753,,,0.74181,0.65799,-0.12898,-0.01159,
3.27344,0.99251,0.03912,-1.30107,0.21307,0.97087,0.15559,,,0.74177,0.65805,-0.12892,-0.01164,
3.28125,0.92323,0.21690,-1.26593,0.20816,0.96745,0.15511,,,0.74173,0.65810,-0.12885,-0.01169,
3.28906,1.13107,0.39468,-1.26593,0.20718,0.96745,0.16092,,,0.74168,0.65817,-0.12877,-0.01172,
3.29688,0.64611,0.32357,-1.37137,0.20865,0.97234,0.15511,,,0.74165,0.65822,-0.12870,-0.01177,
3.30469,0.68075,0.14579,-1.26593,0.20325,0.97039,0.15946,,,0.74162,0.65826,-0.12863,-0.01182,
3.31250,0.68075,0.32357,-1.26593,0.21062,0.97430,0.15656,,,0.74159,0.65831,-0.12856,-0.01187,
3.32031,0.71539,0.50135,-1.26593,0.21258,0.97234,0.15462,,,0.74156,0.65836,-0.12848,-0.01190,
3.32813,0.71539,0.46579,-1.30107,0.20276,0.96843,0.16140,,,0.74154,0.65841,-0.12840,-0.01194,
3.33594,0.64611,0.14579,-1.47680,0.20128,0.97283,0.16285,,,0.74151,0.65845,-0.12832,-0.01200,
3.34375,0.61147,-0.28088,-1.47680,0.20620,0.97039,0.16382,,,0.74148,0.65849,-0.12827,-0.01209,
3.35156,0.47292,-0.52977,-1.33622,0.20423,0.96647,0.16043,,,0.74145,0.65853,-0.12824,-0.01217,
3.35938,0.50755,-0.56533,-1.16049,0.21160,0.97283,0.15462,,,0.74142,0.65856,-0.12822,-0.01225,
3.36719,0.61147,-0.45866,-1.23078,0.20325,0.97039,0.15753,,,0.74139,0.65861,-0.12819,-0.01233,
3.37500,0.75003,-0.24533,-1.16049,0.20276,0.96843,0.15946,,,0.74135,0.65865,-0.12815,-0.01239,
3.38281,0.68075,-0.35199,-1.09019,0.20472,0.97381,0.16285,,,0.74132,0.65870,-0.12812,-0.01246,
3.39063,0.75003,-0.31644,-0.91446,0.21012,0.97576,0.16140,,,0.74128,0.65874,-0.12809,-0.01251,
3.39844,0.85395,0.00356,-0.84417,0.20374,0.97332,0.15656,,,0.74124,0.65879,-0.12805,-0.01255,
3.40625,0.85395,0.00356,-0.77388,0.19588,0.96843,0.15946,,,0.74120,0.65884,-0.12802,-0.01258,
3.41406,0.88859,-0.38755,-0.77388,0.20030,0.96892,0.15898,,,0.74116,0.65889,-0.12801,-0.01263,
3.42188,0.71539,-0.70755,-0.49271,0.20570,0.97381,0.16140,,,0.74112,0.65893,-0.12802,-0.01268,
3.42969,0.64611,-0.81422,-0.59815,0.20472,0.97674,0.16092,,,0.74108,0.65897,-0.12803,-0.01274,
3.43750,0.47292,-0.92089,-0.70358,0.21356,0.97234,0.16237,,,0.74105,0.65900,-0.12805,-0.01281,
3.44531,0.47292,-1.34756,-0.80902,0.21012,0.96207,0.15656,,,0.74102,0.65903,-0.12808,-0.01291,
3.45313,0.61147,-1.31200,-1.05505,0.20865,0.96745,0.15946,,,0.74098,0.65907,-0.12810,-0.01302,
3.46094,0.68075,-1.06311,-0.98476,0.20865,0.97234,0.16140,,,0.74094,0.65911,-0.12811,-0.01311,
3.46875,0.88859,-0.42311,-1.05505,0.21798,0.97479,0.16237,,,0.74089,0.65916,-0.12809,-0.01317,
3.47656,0.88859,-0.31644,-1.05505,0.20963,0.97185,0.15414,,,0.74085,0.65922,-0.12806,-0.01323,
3.48438,1.02715,0.18134,-1.23078,0.20521,0.97087,0.16140,,,0.74080,0.65928,-0.12799,-0.01328,
3.49219,1.02715,0.32357,-1.19563,0.20669,0.97136,0.15753,,,0.74076,0.65934,-0.12792,-0.01331,
3.50000,0.99251,0.03912,-1.37137,0.20865,0.97039,0.16237,,,0.74071,0.65941,-0.12786,-0.01337,
3.50781,1.02715,-0.10310,-1.47680,0.21307,0.96794,0.16237,,,0.74067,0.65947,-0.12780,-0.01344,
3.51563,1.16571,-0.03199,-1.44166,0.20767,0.96696,0.16140,,,0.74061,0.65954,-0.12774,-0.01351,
3.52344,1.33891,0.14579,-1.51195,0.19834,0.96599,0.16237,,,0.74055,0.65962,-0.12766,-0.01357,
3.53125,1.26963,-0.17421,-1.54710,0.21209,0.97479,0.15898,,,0.74049,0.65970,-0.12760,-0.01364,
3.53906,1.47747,-0.13866,-1.68768,0.20718,0.97674,0.16140,,,0.74042,0.65979,-0.12754,-0.01372,
3.54688,1.61603,0.46579,-1.68768,0.20914,0.96892,0.15607,,,0.74035,0.65989,-0.12744,-0.01377,
3.55469,1.54675,0.89246,-1.58224,0.20816,0.96647,0.15850,,,0.74029,0.65998,-0.12732,-0.01380,
3.56250,1.58139,1.14135,-1.58224,0.20865,0.96990,0.15898,,,0.74023,0.66007,-0.12720,-0.01381,
3.57031,1.75458,1.31913,-1.47680,0.20128,0.96794,0.15995,,,0.74016,0.66017,-0.12707,-0.01381,
3.57813,1.82386,1.35469,-1.30107,0.20079,0.97136,0.16334,,,0.74009,0.66028,-0.12694,-0.01380,
3.58594,1.75458,1.31913,-1.05505,0.20423,0.97039,0.16382,,,0.74002,0.66038,-0.12683,-0.01378,
3.59375,1.78922,0.99913,-0.87932,0.20030,0.96696,0.15753,,,0.73994,0.66048,-0.12674,-0.01376,
3.60156,1.99706,1.03468,-0.84417,0.20521,0.96403,0.15559,,,0.73986,0.66059,-0.12665,-0.01374,
3.60938,2.10098,1.49691,-0.66844,0.20325,0.97185,0.15850,,,0.73978,0.66070,-0.12655,-0.01369,
3.61719,1.82386,1.31913,-0.52785,0.19539,0.97087,0.15559,,,0.73971,0.66080,-0.12646,-0.01364,
3.62500,1.89314,1.56802,-0.56300,0.20177,0.96892,0.15026,,,0.73964,0.66090,-0.12636,-0.01358,
3.63281,2.03170,1.67469,-0.31697,0.19637,0.96990,0.15898,,,0.73956,0.66100,-0.12626,-0.01350,
3.64063,1.85850,1.31913,-0.24668,0.20374,0.97430,0.15995,,,0.73949,0.66110,-0.12618,-0.01344,
3.64844,1.75458,1.39024,-0.35212,0.20374,0.97381,0.16140,,,0.73942,0.66119,-0.12610,-0.01338,
3.65625,1.75458,1.03468,-0.38727,0.20374,0.97185,0.16092,,,0.73935,0.66129,-0.12603,-0.01334,
3.66406,1.75458,0.92802,-0.21154,0.20079,0.97723,0.15898,,,0.73928,0.66138,-0.12598,-0.01329,
3.67188,1.75458,0.71468,-0.24668,0.20767,0.97430,0.15995,,,0.73920,0.66147,-0.12593,-0.01326,
3.67969,1.47747,0.43024,-0.45756,0.20570,0.96696,0.15753,,,0.73914,0.66155,-0.12589,-0.01325,
3.68750,1.26963,0.18134,-0.45756,0.19981,0.96843,0.16576,,,0.73909,0.66162,-0.12586,-0.01325,
3.69531,1.16571,0.03912,-0.49271,0.20914,0.97185,0.15704,,,0.73903,0.66168,-0.12584,-0.01327,
3.70313,1.20035,-0.03199,-0.63329,0.20521,0.96403,0.15801,,,0.73898,0.66174,-0.12581,-0.01329,
3.71094,1.16571,0.03912,-0.73873,0.20128,0.97674,0.15365,,,0.73893,0.66181,-0.12578,-0.01331,
3.71875,0.92323,-0.24533,-0.87932,0.19981,0.97479,0.15511,,,0.73888,0.66186,-0.12575,-0.01336,
3.72656,0.75003,-0.42311,-0.80902,0.20374,0.96990,0.15511,,,0.73884,0.66191,-0.12574,-0.01341,
3.73438,0.85395,-0.84978,-0.87932,0.20423,0.96941,0.15269,,,0.73880,0.66196,-0.12574,-0.01349,
3.74219,0.57683,-0.92089,-0.87932,0.20374,0.97381,0.16043,,,0.73876,0.66199,-0.12575,-0.01357,
3.75000,0.43828,-1.13422,-0.87932,0.20865,0.96990,0.15269,,,0.73873,0.66202,-0.12577,-0.01366,
3.75781,0.36900,-1.34756,-0.80902,0.19883,0.97381,0.15317,,,0.73870,0.66205,-0.12580,-0.01376,
3.76563,0.33436,-1.66756,-0.87932,0.19146,0.97332,0.15511,,,0.73867,0.66207,-0.12584,-0.01388,
3.77344,0.26508,-1.95201,-0.80902,0.19588,0.97381,0.16043,,,0.73864,0.66209,-0.12590,-0.01400,
3.78125,0.05724,-2.34312,-0.73873,0.19981,0.96843,0.16043,,,0.73862,0.66209,-0.12599,-0.01415,
3.78906,0.05724,-2.27201,-0.59815,0.20570,0.96745,0.15753,,,0.73860,0.66210,-0.12608,-0.01428,
3.79688,0.12652,-2.12979,-0.70358,0.19834,0.96843,0.15946,,,0.73857,0.66211,-0.12615,-0.01441,
3.80469,0.09188,-1.84534,-0.59815,0.19883,0.97283,0.15414,,,0.73855,0.66212,-0.12622,-0.01452,
3.81250,0.23044,-1.84534,-0.70358,0.20423,0.97039,0.15946,,,0.73852,0.66213,-0.12628,-0.01464,
3.82031,0.02260,-1.84534,-0.63329,0.20620,0.96745,0.15269,,,0.73851,0.66214,-0.12634,-0.01475,
3.82813,-0.01204,-1.80978,-0.66844,0.20816,0.96647,0.15317,,,0.73849,0.66214,-0.12641,-0.01487,
3.83594,-0.04668,-1.73867,-0.70358,0.20718,0.96745,0.15414,,,0.73848,0.66214,-0.12646,-0.01498,
3.84375,-0.01204,-1.56089,-0.70358,0.20472,0.96941,0.15511,,,0.73846,0.66215,-0.12651,-0.01509,
3.85156,0.16116,-1.56089,-0.73873,0.20472,0.97185,0.16092,,,0.73844,0.66216,-0.12655,-0.01520,
3.85938,0.12652,-1.66756,-0.63329,0.21012,0.97283,0.15850,,,0.73842,0.66217,-0.12661,-0.01530,
3.86719,0.05724,-1.63200,-0.80902,0.20865,0.97381,0.15995,,,0.73840,0.66218,-0.12665,-0.01542,
3.87500,0.23044,-1.16978,-0.84417,0.21160,0.97185,0.15704,,,0.73838,0.66220,-0.12668,-0.01551,
3.88281,0.40364,-0.84978,-0.84417,0.20718,0.96745,0.15656,,,0.73836,0.66222,-0.12668,-0.01559,
3.89063,0.54219,-0.56533,-0.98476,0.20620,0.96990,0.15801,,,0.73833,0.66226,-0.12667,-0.01566,
3.89844,0.50755,-0.56533,-0.87932,0.20472,0.96990,0.15850,,,0.73830,0.66229,-0.12665,-0.01572,
3.90625,0.61147,-0.38755,-0.98476,0.20325,0.97087,0.16189,,,0.73827,0.66233,-0.12663,-0.01578,
3.91406,0.57683,-0.06755,-1.01990,0.20767,0.96452,0.15559,,,0.73824,0.66237,-0.12659,-0.01583,
3.92188,0.75003,-0.10310,-1.09019,0.20767,0.96794,0.15607,,,0.73820,0.66241,-0.12655,-0.01589,
3.92969,0.78467,-0.17421,-1.23078,0.20963,0.97283,0.16043,,,0.73816,0.66246,-0.12650,-0.01595,
3.93750,0.78467,-0.38755,-1.26593,0.20669,0.96892,0.16092,,,0.73812,0.66251,-0.12646,-0.01602,
3.94531,0.92323,-0.35199,-1.30107,0.20570,0.96794,0.15753,,,0.73808,0.66257,-0.12642,-0.01610,
3.95313,0.88859,-0.38755,-1.19563,0.20718,0.96550,0.15462,,,0.73803,0.66263,-0.12639,-0.01617,
3.96094,0.81931,-0.42311,-1.37137,0.20767,0.97087,0.15704,,,0.73799,0.66268,-0.12635,-0.01625,
3.96875,0.88859,-0.13866,-1.40651,0.21111,0.96647,0.16576,,,0.73795,0.66273,-0.12629,-0.01632,
3.97656,1.02715,0.14579,-1.44166,0.20521,0.96452,0.15898,,,0.73790,0.66280,-0.12622,-0.01637,
3.98438,1.02715,0.11023,-1.44166,0.20865,0.97283,0.16189,,,0.73785,0.66286,-0.12615,-0.01643,
3.99219,1.06179,0.14579,-1.37137,0.20669,0.96696,0.15704,,,0.73781,0.66293,-0.12608,-0.01649,
4.00000,1.30427,0.35912,-1.30107,0.20472,0.97185,0.15704,,,0.73775,0.66300,-0.12601,-0.01652,
4.00781,1.30427,0.43024,-1.23078,0.20227,0.97087,0.16285,1021.968,25.6,0.73769,0.66308,-0.12593,-0.01656,
4.01563,1.23499,0.50135,-1.23078,0.20325,0.97919,0.16382,,,0.73764,0.66315,-0.12585,-0.01658,
4.02344,1.40819,0.67913,-0.98476,0.20521,0.97283,0.15317,,,0.73758,0.66323,-0.12578,-0.01659,
4.03125,1.37355,0.46579,-0.87932,0.20128,0.97430,0.15220,,,0.73752,0.66331,-0.12572,-0.01660,
4.03906,1.26963,0.11023,-0.84417,0.19834,0.97039,0.15801,,,0.73746,0.66338,-0.12567,-0.01663,
4.04688,1.30427,0.07468,-0.80902,0.19735,0.97039,0.16043,,,0.73740,0.66346,-0.12563,-0.01665,
4.05469,1.20035,-0.35199,-0.66844,0.20472,0.96550,0.15704,,,0.73735,0.66352,-0.12562,-0.01669,
4.06250,1.13107,-0.35199,-0.52785,0.19932,0.97332,0.15365,,,0.73729,0.66358,-0.12562,-0.01673,
4.07031,1.23499,-0.06755,-0.45756,0.20030,0.97234,0.15172,,,0.73724,0.66365,-0.12560,-0.01674,
4.07813,1.13107,-0.13866,-0.49271,0.19981,0.97919,0.15753,,,0.73718,0.66371,-0.12559,-0.01676,
4.08594,1.20035,-0.56533,-0.31697,0.20030,0.97234,0.15850,,,0.73712,0.66377,-0.12560,-0.01679,
4.09375,1.16571,-0.45866,-0.10610,0.20325,0.97479,0.15850,,,0.73707,0.66383,-0.12562,-0.01681,
4.10156,1.13107,-0.24533,-0.10610,0.20227,0.97039,0.15801,,,0.73701,0.66389,-0.12563,-0.01682,
4.10938,1.02715,-0.31644,-0.00066,0.20276,0.97674,0.15898,,,0.73696,0.66394,-0.12565,-0.01682,
4.11719,0.99251,-0.49422,-0.00066,0.20325,0.96892,0.15414,,,0.73691,0.66399,-0.12568,-0.01684,
4.12500,0.85395,-0.74311,0.03449,0.19785,0.97674,0.15414,,,0.73687,0.66403,-0.12572,-0.01686,
4.13281,0.81931,-0.77866,0.06963,0.19932,0.96647,0.16334,,,0.73683,0.66407,-0.12576,-0.01689,
4.14063,0.85395,-0.70755,-0.03580,0.20325,0.97185,0.15656,,,0.73678,0.66411,-0.12579,-0.01691,
4.14844,0.88859,-0.74311,0.10478,0.20570,0.97087,0.15172,,,0.73673,0.66415,-0.12584,-0.01693,
4.15625,0.85395,-0.77866,0.17507,0.21209,0.97185,0.15172,,,0.73669,0.66419,-0.12588,-0.01695,
4.16406,0.81931,-0.81422,0.10478,0.20423,0.97723,0.15801,,,0.73665,0.66423,-0.12593,-0.01698,
4.17188,0.92323,-0.52977,0.03449,0.20374,0.97136,0.15656,,,0.73660,0.66428,-0.12596,-0.01699,
4.17969,0.95787,-0.31644,-0.07095,0.20816,0.96843,0.15365,,,0.73655,0.66433,-0.12597,-0.01700,
4.18750,0.64611,-0.52977,-0.00066,0.20620,0.96843,0.15365,,,0.73652,0.66436,-0.12600,-0.01702,
4.19531,0.50755,-0.60088,0.03449,0.20521,0.97039,0.15704,,,0.73649,0.66438,-0.12603,-0.01704,
4.20313,0.61147,-0.56533,-0.03580,0.20374,0.96745,0.15753,,,0.73646,0.66441,-0.12606,-0.01706,
4.21094,0.43828,-0.88533,-0.00066,0.20325,0.96941,0.15946,,,0.73643,0.66443,-0.12611,-0.01710,
4.21875,0.50755,-1.06311,-0.07095,0.20767,0.96745,0.15511,,,0.73640,0.66446,-0.12616,-0.01715,
4.22656,0.61147,-0.63644,-0.28183,0.20914,0.96599,0.15559,,,0.73637,0.66449,-0.12618,-0.01718,
4.23438,0.68075,-0.42311,-0.31697,0.20865,0.96990,0.15317,,,0.73633,0.66453,-0.12618,-0.01721,
4.24219,0.61147,-0.63644,-0.38727,0.20325,0.96843,0.16189,,,0.73630,0.66456,-0.12620,-0.01726,
4.25000,0.75003,-0.42311,-0.66844,0.21504,0.97136,0.16285,,,0.73626,0.66460,-0.12619,-0.01730,
4.25781,0.75003,-0.13866,-0.59815,0.20767,0.97332,0.15704,,,0.73622,0.66465,-0.12617,-0.01733,
4.26563,0.81931,-0.06755,-0.63329,0.20718,0.96990,0.15801,,,0.73618,0.66469,-0.12615,-0.01736,
4.27344,0.99251,-0.03199,-1.01990,0.20914,0.97087,0.15850,,,0.73614,0.66475,-0.12610,-0.01740,
4.28125,0.81931,-0.10310,-0.94961,0.20472,0.97087,0.15753,,,0.73610,0.66480,-0.12607,-0.01745,
4.28906,0.78467,-0.20977,-1.01990,0.20816,0.97087,0.15656,,,0.73606,0.66485,-0.12603,-0.01750,
4.29688,0.88859,0.07468,-1.33622,0.20079,0.97185,0.16189,,,0.73602,0.66490,-0.12597,-0.01756,
4.30469,0.78467,0.28801,-1.37137,0.20718,0.96990,0.15269,,,0.73598,0.66496,-0.12589,-0.01761,
4.31250,0.92323,0.25246,-1.33622,0.20227,0.96990,0.16092,,,0.73594,0.66501,-0.12582,-0.01766,
4.32031,0.81931,0.18134,-1.33622,0.20472,0.97430,0.16431,,,0.73591,0.66507,-0.12575,-0.01771,
4.32813,0.88859,0.11023,-1.33622,0.20767,0.97136,0.15801,,,0.73587,0.66512,-0.12569,-0.01776,
4.33594,0.88859,0.32357,-1.37137,0.20963,0.97234,0.15026,,,0.73583,0.66518,-0.12561,-0.01781,
4.34375,1.16571,0.53690,-1.19563,0.20177,0.97332,0.15511,,,0.73578,0.66525,-0.12553,-0.01783,
4.35156,1.06179,0.39468,-1.23078,0.20276,0.97527,0.15414,,,0.73573,0.66531,-0.12546,-0.01787,
4.35938,1.02715,0.25246,-1.37137,0.19785,0.97039,0.15898,,,0.73568,0.66538,-0.12538,-0.01792,
4.36719,0.99251,0.00356,-1.23078,0.20472,0.96843,0.15801,,,0.73564,0.66544,-0.12533,-0.01797,
4.37500,0.95787,-0.13866,-1.09019,0.20570,0.97087,0.15753,,,0.73559,0.66549,-0.12529,-0.01802,
4.38281,0.99251,0.03912,-1.23078,0.19883,0.96794,0.16043,,,0.73555,0.66555,-0.12523,-0.01807,
4.39063,0.99251,0.00356,-1.05505,0.19834,0.96647,0.16237,,,0.73550,0.66561,-0.12518,-0.01812,
4.39844,1.06179,-0.24533,-1.16049,0.20177,0.96892,0.16140,,,0.73545,0.66568,-0.12515,-0.01818,
4.40625,0.88859,-0.13866,-0.98476,0.20423,0.97087,0.16189,,,0.73541,0.66573,-0.12511,-0.01823,
4.41406,0.88859,0.03912,-0.91446,0.20325,0.96843,0.15753,,,0.73536,0.66578,-0.12507,-0.01826,
4.42188,0.92323,0.28801,-0.91446,0.20325,0.97185,0.15850,,,0.73532,0.66584,-0.12501,-0.01829,
4.42969,0.81931,0.25246,-0.80902,0.20177,0.97039,0.16092,,,0.73529,0.66588,-0.12496,-0.01831,
4.43750,0.92323,-0.10310,-0.87932,0.20472,0.97723,0.16285,,,0.73524,0.66594,-0.12493,-0.01835,
4.44531,0.92323,-0.35199,-0.91446,0.20276,0.97479,0.15753,,,0.73520,0.66599,-0.12491,-0.01841,
4.45313,0.99251,-0.28088,-0.84417,0.20325,0.97479,0.15946,,,0.73515,0.66605,-0.12488,-0.01845,
4.46094,0.85395,-0.24533,-0.80902,0.20374,0.96990,0.15704,,,0.73511,0.66610,-0.12486,-0.01850,
4.46875,0.78467,-0.38755,-0.73873,0.20079,0.97185,0.15801,,,0.73507,0.66614,-0.12485,-0.01854,
4.47656,0.81931,-0.60088,-0.84417,0.20423,0.97087,0.15220,,,0.73502,0.66619,-0.12484,-0.01861,
4.48438,0.78467,-0.49422,-0.87932,0.19785,0.97039,0.15656,,,0.73498,0.66624,-0.12483,-0.01867,
4.49219,0.75003,-0.63644,-0.87932,0.19932,0.97332,0.15898,,,0.73494,0.66628,-0.12482,-0.01873,
4.50000,0.68075,-0.63644,-0.77388,0.21111,0.96501,0.15656,,,0.73491,0.66632,-0.12482,-0.01879,
4.50781,0.64611,-0.70755,-0.91446,0.20423,0.96941,0.15172,,,0.73487,0.66636,-0.12481,-0.01887,
4.51563,0.64611,-0.63644,-0.84417,0.19932,0.97185,0.15511,,,0.73483,0.66640,-0.12481,-0.01893,
4.52344,0.68075,-0.81422,-0.84417,0.20276,0.96941,0.15995,,,0.73479,0.66644,-0.12481,-0.01901,
4.53125,0.43828,-0.99200,-0.87932,0.20227,0.96990,0.15172,,,0.73476,0.66647,-0.12482,-0.01909,
4.53906,0.47292,-0.70755,-0.77388,0.20865,0.96990,0.15559,,,0.73474,0.66649,-0.12482,-0.01916,
4.54688,0.68075,-0.52977,-0.77388,0.20128,0.97332,0.15462,,,0.73470,0.66653,-0.12481,-0.01922,
4.55469,0.50755,-0.63644,-0.80902,0.19686,0.97332,0.15801,,,0.73467,0.66657,-0.12481,-0.01928,
4.56250,0.50755,-0.99200,-0.77388,0.20030,0.97723,0.15462,,,0.73464,0.66660,-0.12482,-0.01936,
4.57031,0.61147,-0.84978,-0.63329,0.20374,0.96990,0.15753,,,0.73460,0.66663,-0.12484,-0.01943,
4.57813,0.54219,-0.77866,-0.63329,0.20276,0.96941,0.16237,,,0.73457,0.66666,-0.12485,-0.01949,
4.58594,0.57683,-1.02755,-0.59815,0.20079,0.96403,0.15753,,,0.73453,0.66670,-0.12487,-0.01956,
4.59375,0.54219,-1.06311,-0.56300,0.20374,0.96843,0.15753,,,0.73450,0.66673,-0.12490,-0.01963,
4.60156,0.61147,-1.16978,-0.38727,0.20767,0.97479,0.15995,,,0.73446,0.66676,-0.12494,-0.01970,
4.60938,0.61147,-0.84978,-0.38727,0.20374,0.97136,0.16092,,,0.73443,0.66679,-0.12497,-0.01975,
4.61719,0.75003,-0.56533,-0.45756,0.20128,0.97136,0.16092,,,0.73439,0.66683,-0.12498,-0.01979,
4.62500,0.81931,-0.45866,-0.31697,0.20570,0.97283,0.16140,,,0.73435,0.66687,-0.12499,-0.01982,
4.63281,0.71539,-0.77866,-0.24668,0.20521,0.96941,0.15704,,,0.73431,0.66691,-0.12502,-0.01986,
4.64063,0.68075,-0.81422,-0.31697,0.20718,0.96599,0.16189,,,0.73427,0.66695,-0.12504,-0.01991,
4.64844,0.75003,-0.63644,-0.38727,0.20325,0.96745,0.16237,,,0.73423,0.66699,-0.12506,-0.01995,
4.65625,0.68075,-0.60088,-0.35212,0.20767,0.96892,0.15607,,,0.73419,0.66702,-0.12507,-0.01999,
4.66406,0.75003,-0.60088,-0.42241,0.20669,0.96599,0.15462,,,0.73415,0.66706,-0.12509,-0.02004,
4.67188,0.88859,-0.56533,-0.56300,0.20669,0.97332,0.16382,,,0.73411,0.66711,-0.12509,-0.02008,
4.67969,0.78467,-0.60088,-0.73873,0.20325,0.96892,0.15995,,,0.73406,0.66716,-0.12509,-0.02014,
4.68750,0.78467,-0.74311,-0.80902,0.20767,0.97332,0.16043,,,0.73402,0.66720,-0.12509,-0.02021,
4.69531,0.81931,-0.31644,-1.01990,0.21160,0.96550,0.15414,,,0.73398,0.66725,-0.12506,-0.02026,
4.70313,1.06179,0.18134,-1.19563,0.20865,0.97185,0.15704,,,0.73393,0.66731,-0.12500,-0.02031,
4.71094,0.92323,0.21690,-1.12534,0.20079,0.97772,0.15704,,,0.73389,0.66737,-0.12494,-0.02035,
4.71875,0.78467,-0.03199,-1.09019,0.20128,0.96990,0.15898,,,0.73385,0.66742,-0.12489,-0.02040,
4.72656,0.99251,0.14579,-1.33622,0.19785,0.96794,0.16140,,,0.73381,0.66748,-0.12482,-0.02045,
4.73438,0.99251,0.28801,-1.33622,0.20030,0.96745,0.15946,,,0.73376,0.66754,-0.12475,-0.02049,
4.74219,0.92323,0.25246,-1.40651,0.20128,0.97625,0.15607,,,0.73372,0.66760,-0.12467,-0.02054,
4.75000,0.95787,0.14579,-1.47680,0.20423,0.97136,0.15511,,,0.73368,0.66766,-0.12460,-0.02060,
4.75781,0.95787,0.00356,-1.47680,0.20177,0.97527,0.16479,,,0.73363,0.66772,-0.12454,-0.02067,
4.76563,0.71539,0.18134,-1.54710,0.20177,0.96550,0.15995,,,0.73360,0.66777,-0.12446,-0.02073,
4.77344,0.81931,0.18134,-1.58224,0.20177,0.96843,0.16334,,,0.73356,0.66782,-0.12438,-0.02079,
4.78125,0.85395,0.32357,-1.51195,0.20079,0.97185,0.15559,,,0.73352,0.66788,-0.12429,-0.02085,
4.78906,0.81931,0.25246,-1.44166,0.20374,0.96843,0.15559,,,0.73348,0.66793,-0.12422,-0.02090,
4.79688,0.81931,0.43024,-1.33622,0.19932,0.96892,0.16382,,,0.73345,0.66799,-0.12414,-0.02094,
4.80469,0.75003,0.39468,-1.44166,0.19539,0.96892,0.16285,,,0.73342,0.66804,-0.12405,-0.02099,
4.81250,0.68075,0.35912,-1.23078,0.19981,0.97039,0.15704,,,0.73339,0.66808,-0.12398,-0.02103,
4.82031,0.68075,0.25246,-1.19563,0.20128,0.97136,0.15801,,,0.73336,0.66813,-0.12391,-0.02107,
4.82813,0.71539,0.28801,-1.33622,0.19686,0.97381,0.15220,,,0.73332,0.66817,-0.12384,-0.02112,
4.83594,0.88859,0.39468,-1.30107,0.19932,0.97479,0.15414,,,0.73328,0.66823,-0.12376,-0.02116,
4.84375,0.61147,-0.13866,-1.23078,0.20570,0.97136,0.16673,,,0.73325,0.66827,-0.12371,-0.02122,
4.85156,0.57683,-0.24533,-1.12534,0.20325,0.96745,0.15559,,,0.73322,0.66831,-0.12367,-0.02128,
4.85938,0.57683,-0.31644,-1.26593,0.20227,0.96794,0.15123,,,0.73319,0.66835,-0.12363,-0.02136,
4.86719,0.61147,-0.52977,-1.33622,0.19785,0.97136,0.15995,,,0.73316,0.66839,-0.12360,-0.02144,
4.87500,0.40364,-0.60088,-1.16049,0.20030,0.97087,0.16479,,,0.73313,0.66842,-0.12358,-0.02152,
4.88281,0.47292,-0.56533,-1.26593,0.20276,0.97039,0.16092,,,0.73311,0.66845,-0.12355,-0.02161,
4.89063,0.40364,-0.52977,-1.30107,0.20669,0.97185,0.15414,,,0.73308,0.66848,-0.12352,-0.02170,
4.89844,0.40364,-0.38755,-1.33622,0.19932,0.97185,0.15753,,,0.73306,0.66851,-0.12348,-0.02178,
4.90625,0.43828,-0.28088,-1.12534,0.20325,0.97381,0.15511,,,0.73303,0.66854,-0.12344,-0.02184,
4.91406,0.43828,-0.17421,-1.09019,0.20079,0.96941,0.16092,,,0.73301,0.66857,-0.12340,-0.02190,
4.92188,0.40364,-0.20977,-1.12534,0.19883,0.97430,0.15801,,,0.73299,0.66860,-0.12336,-0.02196,
4.92969,0.33436,-0.10310,-1.23078,0.19441,0.97674,0.16043,,,0.73297,0.66863,-0.12331,-0.02203,
4.93750,0.33436,-0.74311,-1.12534,0.19441,0.97430,0.15559,,,0.73295,0.66865,-0.12329,-0.02211,
4.94531,0.26508,-1.06311,-1.05505,0.19883,0.96647,0.16527,,,0.73292,0.66867,-0.12330,-0.02221,
4.95313,0.26508,-1.16978,-1.05505,0.19932,0.97039,0.16479,,,0.73290,0.66869,-0.12331,-0.02232,
4.96094,0.26508,-1.13422,-1.01990,0.20472,0.97576,0.16818,,,0.73288,0.66871,-0.12332,-0.02242,
4.96875,0.29972,-1.41867,-0.91446,0.19981,0.97185,0.16285,,,0.73285,0.66874,-0.12335,-0.02252,
4.97656,0.40364,-1.24089,-0.77388,0.19785,0.96892,0.16285,,,0.73282,0.66876,-0.12338,-0.02262,
4.98438,0.43828,-1.16978,-0.84417,0.19834,0.96990,0.16043,,,0.73279,0.66879,-0.12340,-0.02271,
4.99219,0.50755,-0.99200,-0.77388,0.20227,0.97283,0.16576,,,0.73276,0.66882,-0.12341,-0.02279,
5.00000,0.43828,-0.99200,-0.70358,0.20570,0.97087,0.16576,,,0.73273,0.66884,-0.12343,-0.02286,
5.00781,0.54219,-1.02755,-0.63329,0.20963,0.97283,0.16334,1021.950,25.6,0.73269,0.66887,-0.12346,-0.02294,
5.01563,0.64611,-0.99200,-0.56300,0.20079,0.96794,0.15995,,,0.73266,0.66891,-0.12348,-0.02301,
5.02344,0.64611,-1.20533,-0.59815,0.20079,0.97625,0.16334,,,0.73261,0.66894,-0.12351,-0.02309,
5.03125,0.64611,-1.52534,-0.59815,0.19539,0.96990,0.16043,,,0.73257,0.66898,-0.12356,-0.02318,
5.03906,0.57683,-1.95201,-0.38727,0.20177,0.96647,0.16043,,,0.73253,0.66901,-0.12364,-0.02328,
5.04688,0.54219,-1.77423,-0.38727,0.19932,0.97625,0.15704,,,0.73249,0.66904,-0.12372,-0.02338,
5.05469,0.68075,-1.73867,-0.49271,0.20423,0.96941,0.15946,,,0.73244,0.66907,-0.12378,-0.02348,
5.06250,0.78467,-1.52534,-0.35212,0.20816,0.96941,0.16673,,,0.73239,0.66911,-0.12384,-0.02356,
5.07031,0.75003,-1.63200,-0.17639,0.20374,0.96696,0.15898,,,0.73234,0.66915,-0.12392,-0.02363,
5.07813,0.85395,-1.20533,-0.38727,0.20423,0.96843,0.15850,,,0.73229,0.66919,-0.12396,-0.02370,
5.08594,0.88859,-0.95644,-0.24668,0.20521,0.97087,0.16237,,,0.73225,0.66924,-0.12400,-0.02375,
5.09375,0.92323,-0.92089,-0.35212,0.19686,0.96892,0.16092,,,0.73220,0.66928,-0.12403,-0.02380,
5.10156,0.99251,-0.81422,-0.21154,0.20276,0.96696,0.15898,,,0.73214,0.66933,-0.12406,-0.02384,
5.10938,0.92323,-1.27645,-0.35212,0.19539,0.96452,0.16334,,,0.73209,0.66938,-0.12411,-0.02391,
5.11719,0.95787,-1.27645,-0.31697,0.20079,0.96941,0.16576,,,0.73203,0.66943,-0.12416,-0.02397,
5.12500,0.88859,-1.48978,-0.03580,0.19686,0.96745,0.16237,,,0.73198,0.66947,-0.12424,-0.02404,
5.13281,1.06179,-1.24089,-0.17639,0.21012,0.97185,0.15704,,,0.73192,0.66952,-0.12429,-0.02409,
5.14063,1.20035,-1.13422,-0.14124,0.20423,0.96990,0.15753,,,0.73186,0.66958,-0.12435,-0.02414,
5.14844,1.16571,-1.31200,-0.03580,0.20472,0.96990,0.15850,,,0.73179,0.66964,-0.12441,-0.02419,
5.15625,1.30427,-1.13422,-0.14124,0.20128,0.96647,0.16285,,,0.73172,0.66970,-0.12446,-0.02424,
5.16406,1.16571,-0.99200,-0.00066,0.20669,0.97527,0.16092,,,0.73166,0.66976,-0.12452,-0.02428,
5.17188,1.26963,-0.60088,-0.14124,0.19883,0.96745,0.16092,,,0.73160,0.66982,-0.12454,-0.02430,
5.17969,1.33891,-0.24533,-0.24668,0.20521,0.97039,0.15801,,,0.73154,0.66989,-0.12454,-0.02431,
5.18750,1.33891,-0.42311,-0.31697,0.20128,0.96990,0.16092,,,0.73147,0.66996,-0.12455,-0.02434,
5.19531,1.13107,-0.60088,-0.28183,0.20521,0.96794,0.15414,,,0.73141,0.67002,-0.12457,-0.02437,
5.20313,1.06179,-0.52977,-0.42241,0.20325,0.97136,0.16189,,,0.73136,0.67007,-0.12458,-0.02440,
5.21094,1.13107,-0.49422,-0.49271,0.20570,0.96745,0.14978,,,0.73130,0.67013,-0.12459,-0.02444,
5.21875,1.09643,-0.49422,-0.42241,0.20816,0.96745,0.15462,,,0.73125,0.67019,-0.12459,-0.02448,
5.22656,1.09643,-0.28088,-0.52785,0.20374,0.97039,0.15850,,,0.73119,0.67025,-0.12458,-0.02451,
5.23438,1.06179,-0.38755,-0.73873,0.20472,0.97723,0.16092,,,0.73114,0.67031,-0.12457,-0.02455,
5.24219,0.99251,-0.35199,-0.73873,0.20570,0.97430,0.15946,,,0.73109,0.67036,-0.12456,-0.02459,
5.25000,1.06179,-0.35199,-0.91446,0.20570,0.97430,0.15704,,,0.73104,0.67042,-0.12454,-0.02465,
5.25781,1.09643,0.28801,-0.73873,0.20865,0.97136,0.15269,,,0.73099,0.67048,-0.12449,-0.02466,
5.26563,1.06179,0.43024,-0.80902,0.20030,0.97136,0.15801,,,0.73094,0.67054,-0.12443,-0.02467,
5.27344,1.09643,0.82135,-0.94961,0.20374,0.97772,0.15801,,,0.73090,0.67061,-0.12435,-0.02467,
5.28125,1.02715,0.75024,-0.87932,0.20669,0.96892,0.15753,,,0.73086,0.67067,-0.12427,-0.02467,
5.28906,0.92323,0.57246,-0.98476,0.20718,0.97039,0.15172,,,0.73082,0.67072,-0.12420,-0.02469,
5.29688,0.92323,0.35912,-1.01990,0.19686,0.96941,0.15850,,,0.73078,0.67078,-0.12414,-0.02472,
5.30469,0.92323,0.32357,-0.98476,0.19637,0.97625,0.15317,,,0.73074,0.67083,-0.12408,-0.02474,
5.31250,0.71539,0.03912,-0.98476,0.20079,0.97332,0.15607,,,0.73070,0.67088,-0.12403,-0.02478,
5.32031,0.61147,-0.20977,-0.84417,0.19834,0.96990,0.15801,,,0.73067,0.67091,-0.12401,-0.02483,
5.32813,0.54219,-0.20977,-0.73873,0.19834,0.97039,0.16092,,,0.73064,0.67095,-0.12398,-0.02487,
5.33594,0.43828,0.00356,-0.84417,0.20472,0.97185,0.15365,,,0.73062,0.67097,-0.12395,-0.02491,
5.34375,0.47292,-0.06755,-0.56300,0.19834,0.97039,0.16431,,,0.73060,0.67100,-0.12392,-0.02494,
5.35156,0.50755,-0.17421,-0.42241,0.19834,0.97136,0.16382,,,0.73057,0.67103,-0.12392,-0.02496,
5.35938,0.61147,-0.31644,-0.49271,0.20423,0.97674,0.16189,,,0.73054,0.67107,-0.12391,-0.02500,
5.36719,0.57683,-0.38755,-0.35212,0.20128,0.97381,0.16431,,,0.73051,0.67110,-0.12391,-0.02503,
5.37500,0.64611,-0.49422,-0.21154,0.20030,0.97185,0.15850,,,0.73048,0.67113,-0.12393,-0.02505,
5.38281,0.61147,-0.38755,-0.07095,0.19686,0.96941,0.15850,,,0.73045,0.67116,-0.12395,-0.02507,
5.39063,0.57683,-0.45866,-0.07095,0.20227,0.96696,0.16043,,,0.73042,0.67119,-0.12397,-0.02509,
5.39844,0.68075,-0.49422,-0.03580,0.20767,0.97283,0.16237,,,0.73038,0.67122,-0.12399,-0.02511,
5.40625,0.57683,-0.52977,-0.10610,0.20177,0.96647,0.15850,,,0.73035,0.67125,-0.12401,-0.02513,
5.41406,0.57683,-0.70755,-0.10610,0.20079,0.97234,0.15850,,,0.73032,0.67128,-0.12405,-0.02517,
5.42188,0.54219,-0.84978,-0.00066,0.20128,0.96647,0.15898,,,0.73029,0.67130,-0.12409,-0.02520,
5.42969,0.54219,-0.77866,-0.21154,0.20276,0.96843,0.15559,,,0.73026,0.67133,-0.12412,-0.02524,
5.43750,0.57683,-0.67200,-0.24668,0.20177,0.97185,0.16479,,,0.73022,0.67136,-0.12414,-0.02528,
5.44531,0.64611,-0.74311,-0.35212,0.20767,0.97332,0.15801,,,0.73019,0.67139,-0.12416,-0.02533,
5.45313,0.71539,-0.74311,-0.31697,0.20865,0.97185,0.15898,,,0.73015,0.67143,-0.12419,-0.02537,
5.46094,0.85395,-0.28088,-0.28183,0.20718,0.96647,0.15511,,,0.73010,0.67148,-0.12419,-0.02539,
5.46875,1.02715,-0.06755,-0.45756,0.20767,0.97039,0.16431,,,0.73006,0.67153,-0.12417,-0.02541,
5.47656,0.92323,-0.17421,-0.56300,0.20227,0.97185,0.16043,,,0.73001,0.67158,-0.12416,-0.02543,
5.48438,0.92323,-0.17421,-0.77388,0.20620,0.96745,0.15511,,,0.72997,0.67163,-0.12413,-0.02547,
5.49219,1.02715,-0.06755,-0.87932,0.20521,0.97087,0.15075,,,0.72992,0.67169,-0.12410,-0.02551,
5.50000,1.02715,0.14579,-0.77388,0.19981,0.96843,0.16189,,,0.72987,0.67175,-0.12406,-0.02553,
5.50781,0.95787,-0.35199,-1.05505,0.20423,0.96745,0.15704,,,0.72982,0.67180,-0.12403,-0.02559,
5.51563,0.88859,-0.42311,-0.94961,0.20227,0.96745,0.16092,,,0.72978,0.67186,-0.12401,-0.02565,
5.52344,0.99251,-0.49422,-0.98476,0.20669,0.97136,0.15801,,,0.72972,0.67191,-0.12399,-0.02572,
5.53125,0.95787,-0.03199,-1.23078,0.20620,0.96843,0.15946,,,0.72968,0.67197,-0.12394,-0.02577,
5.53906,0.99251,0.00356,-1.19563,0.20767,0.96599,0.15753,,,0.72963,0.67203,-0.12388,-0.02582,
5.54688,0.92323,-0.13866,-1.05505,0.20177,0.96745,0.15995,,,0.72959,0.67208,-0.12384,-0.02587,
5.55469,1.09643,0.03912,-1.26593,0.20325,0.96452,0.15898,,,0.72953,0.67215,-0.12379,-0.02592,
5.56250,1.13107,0.25246,-1.26593,0.19932,0.96745,0.16431,,,0.72948,0.67222,-0.12372,-0.02597,
5.57031,1.16571,0.25246,-1.23078,0.20227,0.96696,0.15946,,,0.72943,0.67229,-0.12365,-0.02601,
5.57813,1.06179,0.00356,-1.12534,0.20521,0.97576,0.16043,,,0.72938,0.67235,-0.12360,-0.02605,
5.58594,1.06179,-0.13866,-1.01990,0.19932,0.97136,0.15704,,,0.72933,0.67241,-0.12356,-0.02610,
5.59375,0.99251,-0.28088,-1.12534,0.20177,0.97283,0.16189,,,0.72928,0.67247,-0.12353,-0.02616,
5.60156,0.99251,-0.35199,-1.12534,0.19834,0.97234,0.15801,,,0.72923,0.67253,-0.12349,-0.02623,
5.60938,0.99251,-0.52977,-0.98476,0.20767,0.96696,0.15801,,,0.72917,0.67258,-0.12348,-0.02629,
5.61719,0.99251,-0.45866,-0.73873,0.20374,0.97136,0.15414,,,0.72912,0.67264,-0.12347,-0.02634,
5.62500,0.99251,-0.24533,-0.70358,0.20128,0.97136,0.15898,,,0.72908,0.67269,-0.12345,-0.02638,
5.63281,0.99251,-0.52977,-0.66844,0.19834,0.97283,0.15801,,,0.72902,0.67274,-0.12345,-0.02643,
5.64063,0.81931,-0.81422,-0.49271,0.19785,0.97136,0.15946,,,0.72898,0.67279,-0.12347,-0.02648,
5.64844,0.92323,-0.81422,-0.42241,0.20177,0.97185,0.16285,,,0.72893,0.67284,-0.12349,-0.02653,
5.65625,0.88859,-0.52977,-0.45756,0.19637,0.96892,0.15801,,,0.72888,0.67288,-0.12350,-0.02657,
5.66406,0.81931,-0.56533,-0.21154,0.19981,0.96794,0.16189,,,0.72884,0.67292,-0.12352,-0.02660,
5.67188,0.95787,-0.74311,-0.14124,0.20718,0.96843,0.15607,,,0.72879,0.67297,-0.12355,-0.02663,
5.67969,1.06179,-0.56533,-0.00066,0.20620,0.97234,0.15898,,,0.72874,0.67302,-0.12358,-0.02665,
5.68750,1.02715,-0.42311,0.03449,0.20276,0.97185,0.15995,,,0.72869,0.67307,-0.12360,-0.02666,
5.69531,0.85395,-0.56533,-0.03580,0.19932,0.97283,0.15946,,,0.72864,0.67311,-0.12363,-0.02668,
5.70313,0.95787,-0.74311,-0.03580,0.19932,0.96843,0.16334,,,0.72859,0.67316,-0.12367,-0.02671,
5.71094,0.78467,-0.95644,0.10478,0.20669,0.96647,0.15801,,,0.72855,0.67320,-0.12372,-0.02674,
5.71875,0.68075,-1.13422,-0.00066,0.20620,0.97185,0.15753,,,0.72851,0.67323,-0.12378,-0.02679,
5.72656,0.75003,-0.81422,-0.10610,0.20570,0.96794,0.15365,,,0.72847,0.67327,-0.12382,-0.02682,
5.73438,0.71539,-0.56533,-0.14124,0.20620,0.96843,0.15559,,,0.72843,0.67330,-0.12384,-0.02685,
5.74219,0.75003,-0.52977,-0.17639,0.20914,0.96990,0.15850,,,0.72839,0.67334,-0.12386,-0.02688,
5.75000,0.75003,-0.13866,-0.42241,0.20423,0.96745,0.15850,,,0.72835,0.67338,-0.12385,-0.02690,
5.75781,0.92323,-0.03199,-0.38727,0.20128,0.97136,0.15801,,,0.72831,0.67343,-0.12383,-0.02691,
5.76563,0.92323,0.03912,-0.28183,0.20914,0.96794,0.15414,,,0.72827,0.67348,-0.12382,-0.02691,
5.77344,1.13107,0.14579,-0.31697,0.20669,0.97087,0.16092,,,0.72822,0.67354,-0.12380,-0.02691,
5.78125,1.02715,0.07468,-0.59815,0.20570,0.97625,0.16624,,,0.72817,0.67359,-0.12377,-0.02693,
5.78906,0.78467,-0.03199,-0.52785,0.19932,0.97087,0.15801,,,0.72813,0.67363,-0.12375,-0.02695,
5.79688,0.88859,-0.13866,-0.56300,0.20669,0.97332,0.16382,,,0.72809,0.67368,-0.12373,-0.02698,
5.80469,0.57683,-0.06755,-0.66844,0.20472,0.96794,0.15850,,,0.72806,0.67372,-0.12371,-0.02701,
5.81250,0.26508,-0.06755,-0.66844,0.19834,0.97039,0.16915,,,0.72805,0.67374,-0.12368,-0.02704,
5.82031,-0.01204,-0.45866,-0.80902,0.19932,0.97430,0.16140,,,0.72804,0.67374,-0.12367,-0.02711,
5.82813,0.47292,-0.35199,-0.66844,0.19637,0.96452,0.16285,,,0.72802,0.67377,-0.12365,-0.02715,
5.83594,0.36900,-1.38311,-0.70358,0.20472,0.97087,0.16479,,,0.72799,0.67379,-0.12369,-0.02725,
5.84375,0.09188,-2.27201,-0.70358,0.21209,0.96990,0.18561,,,0.72796,0.67380,-0.12377,-0.02738,
5.85156,-0.28916,-1.09867,-0.80902,0.21700,0.97332,0.16479,,,0.72796,0.67379,-0.12379,-0.02748,
5.85938,-0.42772,-0.49422,-0.73873,0.21602,0.97527,0.16043,,,0.72798,0.67377,-0.12378,-0.02754,
5.86719,-2.47146,-0.13866,-0.59815,0.20914,0.98456,0.17448,,,0.72809,0.67365,-0.12375,-0.02760,
5.87500,-4.03025,0.46579,-1.12534,0.20914,0.96599,0.16237,,,0.72828,0.67346,-0.12367,-0.02767,
5.88281,-3.82241,0.43024,-1.33622,0.20914,0.96990,0.16527,,,0.72845,0.67329,-0.12358,-0.02774,
5.89063,-3.16425,0.28801,-1.40651,0.20521,0.96647,0.15172,,,0.72860,0.67314,-0.12350,-0.02783,
5.89844,-2.47146,0.11023,-1.68768,0.19195,0.97527,0.16237,,,0.72871,0.67303,-0.12341,-0.02793,
5.90625,-2.15970,-0.38755,-1.93371,0.19441,0.97527,0.15317,,,0.72880,0.67294,-0.12333,-0.02806,
5.91406,-2.50610,-0.81422,-1.93371,0.20914,0.97527,0.16915,,,0.72891,0.67283,-0.12328,-0.02821,
5.92188,-2.88714,-1.34756,-1.93371,0.21160,0.97479,0.16673,,,0.72902,0.67270,-0.12325,-0.02840,
5.92969,-4.20344,-0.95644,-2.60149,0.21258,0.99092,0.19045,,,0.72920,0.67251,-0.12317,-0.02860,
5.93750,-7.59814,-4.65425,-3.97220,0.21356,0.95523,0.10620,,,0.72951,0.67216,-0.12321,-0.02908,
5.94531,-6.48967,-5.93426,-5.27261,0.20423,0.96256,0.09022,,,0.72974,0.67187,-0.12325,-0.02967,
5.95313,-5.93543,-9.52540,-7.06507,0.20767,0.97870,0.13816,,,0.72992,0.67161,-0.12339,-0.03050,
5.96094,-5.72759,-11.33875,-8.40064,0.24058,0.96550,0.13719,,,0.73007,0.67137,-0.12356,-0.03149,
5.96875,-4.86160,-9.59651,-9.06842,0.24647,0.97283,0.14881,,,0.73019,0.67119,-0.12361,-0.03242,
5.97656,-5.93543,-4.47647,-10.72030,0.26808,1.00901,0.16092,,,0.73040,0.67097,-0.12333,-0.03321,
5.98438,-9.36476,-0.92089,-13.00481,0.26612,1.01145,0.08683,,,0.73079,0.67061,-0.12276,-0.03398,
5.99219,-10.85427,1.71025,-13.88347,0.24696,1.01829,0.04567,,,0.73127,0.67019,-0.12201,-0.03468,
6.00000,-14.35288,3.66582,-15.46505,0.24500,1.02367,0.00839,,,0.73192,0.66961,-0.12109,-0.03541,
6.00781,-16.29270,3.98582,-16.23827,0.24500,1.01389,-0.03228,1021.946,25.6,0.73266,0.66894,-0.12011,-0.03617,
6.01563,-17.47045,4.12804,-20.03408,0.23960,1.00901,0.07618,,,0.73344,0.66824,-0.11895,-0.03712,
6.02344,-20.31091,3.16803,-24.91942,0.21847,1.01292,0.09652,,,0.73432,0.66743,-0.11760,-0.03839,
6.03125,-21.59258,3.52359,-27.23908,0.19048,1.00656,0.10862,,,0.73526,0.66658,-0.11613,-0.03977,
6.03906,-23.70560,0.57246,-32.40559,0.24058,1.00265,0.11976,,,0.73625,0.66565,-0.11456,-0.04155,
6.04688,-25.99182,0.03912,-38.55621,0.28920,1.03932,0.12654,,,0.73732,0.66464,-0.11274,-0.04369,
6.05469,-27.48132,3.06137,-42.42231,0.31425,1.05056,0.12799,,,0.73845,0.66359,-0.11058,-0.04589,
6.06250,-29.87146,13.08811,-51.38463,0.37025,1.04909,0.07327,,,0.73974,0.66251,-0.10750,-0.04811,
6.07031,-30.59890,19.84372,-55.95365,0.37860,1.05594,0.06650,,,0.74107,0.66143,-0.10387,-0.05026,
6.07813,-32.67728,32.35938,-66.67329,0.37663,1.07843,0.07424,,,0.74254,0.66035,-0.09912,-0.05240,
6.08594,-34.54782,41.28390,-77.25234,0.40365,1.09651,-0.02212,,,0.74408,0.65926,-0.09342,-0.05468,
6.09375,-34.06287,47.25728,-82.13768,0.39972,1.10776,-0.05601,,,0.74559,0.65822,-0.08721,-0.05694,
6.10156,-31.46489,59.48849,-92.04896,0.33439,1.17327,-0.08845,,,0.74697,0.65738,-0.07993,-0.05914,
6.10938,-26.02646,74.13749,-101.08157,0.18409,1.28033,-0.26810,,,0.74811,0.65688,-0.07151,-0.06110,
6.11719,-22.52785,80.28865,-105.01796,0.16837,1.38641,-0.26325,,,0.74904,0.65655,-0.06262,-0.06297,
6.12500,-22.42393,78.54642,-111.06313,0.05295,1.43921,-0.37317,,,0.74987,0.65618,-0.05354,-0.06522,
6.13281,-21.00370,78.51086,-116.54596,-0.10276,1.52281,-0.31022,,,0.75054,0.65586,-0.04422,-0.06774,
6.14063,-21.21154,64.50186,-116.58111,-0.32084,1.50961,-0.41578,,,0.75111,0.65539,-0.03560,-0.07088,
6.14844,-11.85882,35.31051,-119.32253,-0.63077,1.61129,-0.55911,,,0.75112,0.65522,-0.02840,-0.07544,
6.15625,-13.62544,5.65694,-120.65809,-0.73589,1.62694,-0.47582,,,0.75110,0.65477,-0.02265,-0.08139,
6.16406,-8.25629,-41.81010,-127.86309,-0.49324,1.65285,-0.66854,,,0.75066,0.65428,-0.01904,-0.08981,
6.17188,-7.73669,-93.75719,-121.00955,-0.57380,1.55067,-0.81235,,,0.75010,0.65343,-0.01839,-0.10019,
6.17969,-4.48056,-98.52167,-125.15682,-0.00354,1.45241,-1.00459,,,0.74927,0.65265,-0.01782,-0.11098,
6.18750,11.66154,-72.38813,-127.01958,0.22732,1.34241,-0.81719,,,0.74767,0.65282,-0.01595,-0.12067,
6.19531,19.31691,-46.21903,-122.83716,0.00383,1.37126,0.04035,,,0.74571,0.65354,-0.01300,-0.12896,
6.20313,15.95686,-57.88134,-120.69323,-0.18380,1.38543,0.16189,,,0.74386,0.65392,-0.01071,-0.13766,
6.21094,27.07621,-46.46792,-116.68655,0.17820,1.08136,-0.58574,,,0.74149,0.65492,-0.00812,-0.14562,
6.21875,35.94397,-36.26339,-115.56187,0.96851,0.87897,-0.82591,,,0.73869,0.65641,-0.00515,-0.15305,
6.22656,53.29846,-17.24102,-106.28323,0.74256,0.72106,-0.54022,,,0.73517,0.65893,-0.00182,-0.15915,
6.23438,83.36572,1.10580,-89.41298,0.94395,0.64871,-0.57121,,,0.73043,0.66311,0.00135,-0.16356,
6.24219,89.87799,37.15942,-83.93015,0.69345,0.55485,-0.45258,,,0.72540,0.66797,0.00599,-0.16607,
6.25000,108.47951,65.14187,-71.98039,0.53136,0.54165,-0.41530,,,0.71958,0.67401,0.01126,-0.16669,
6.25781,118.76750,69.23079,-50.54111,0.55690,0.49814,-0.36494,,,0.71346,0.68055,0.01563,-0.16607,
6.26563,117.79759,63.15074,-38.09930,0.67282,0.44632,-0.42498,,,0.70746,0.68693,0.01913,-0.16511,
6.27344,123.02818,68.16411,-15.64078,0.80396,0.39988,-0.37123,,,0.70140,0.69358,0.02176,-0.16283,
6.28125,130.57964,80.60866,6.81773,0.72144,0.45170,-0.24437,,,0.69514,0.70069,0.02384,-0.15887,
6.28906,132.06915,83.80868,18.38088,0.64384,0.46441,-0.23420,,,0.68886,0.70785,0.02550,-0.15420,
6.29688,136.84942,83.06201,41.22601,0.49157,0.54116,-0.18336,,,0.68250,0.71517,0.02597,-0.14848,
6.30469,136.15663,78.51086,52.78916,0.41151,0.54556,-0.18094,,,0.67621,0.72235,0.02567,-0.14243,
6.31250,136.60695,63.07963,73.63095,0.30394,0.55191,-0.14946,,,0.67005,0.72934,0.02362,-0.13616,
6.32031,137.12654,42.70613,92.96145,0.20963,0.63453,-0.06521,,,0.66398,0.73610,0.01968,-0.13000,
6.32813,135.53312,33.14161,101.57230,0.16887,0.67071,-0.00565,,,0.65798,0.74262,0.01488,-0.12391,
6.33594,130.68356,11.98588,116.65009,0.07309,0.73768,0.04325,,,0.65229,0.74865,0.00841,-0.11820,
6.34375,125.93792,-11.26764,128.03751,0.02642,0.81150,0.15801,,,0.64686,0.75417,0.00035,-0.11314,
6.35156,123.89418,-20.90327,132.25507,0.02692,0.86283,0.24323,,,0.64146,0.75942,-0.00832,-0.10838,
6.35938,119.00998,-32.24558,137.63246,0.02053,0.94252,0.35944,,,0.63624,0.76425,-0.01774,-0.10395,
6.36719,115.61529,-35.83672,138.65170,0.05197,1.04763,0.46403,,,0.63111,0.76878,-0.02733,-0.09966,
6.37500,114.54146,-32.95670,137.84334,0.04214,1.11949,0.54006,,,0.62594,0.77317,-0.03675,-0.09523,
6.38281,109.31086,-20.72549,134.29356,-0.04627,1.26028,0.70130,,,0.62095,0.77730,-0.04542,-0.09031,
6.39063,105.81225,-10.98319,132.21992,-0.09932,1.30575,0.77732,,,0.61608,0.78125,-0.05354,-0.08497,
6.39844,99.64638,14.40368,128.59985,-0.24618,1.37419,0.86303,,,0.61154,0.78500,-0.06036,-0.07843,
6.40625,91.64461,41.24834,122.83585,-0.34884,1.42210,0.88240,,,0.60743,0.78849,-0.06570,-0.07072,
6.41406,86.82969,56.53735,119.49694,-0.42841,1.43383,0.91193,,,0.60356,0.79177,-0.07020,-0.06234,
6.42188,74.77508,81.63978,110.35889,-0.61702,1.45241,0.92985,,,0.60035,0.79462,-0.07311,-0.05303,
6.42969,61.50807,100.76882,96.33550,-0.85721,1.43628,0.83736,,,0.59784,0.79698,-0.07442,-0.04332,
6.43750,54.92653,107.09776,89.02505,-0.98590,1.41428,0.80734,,,0.59563,0.79904,-0.07505,-0.03360,
6.44531,53.19454,94.72432,78.41086,-1.19612,1.20602,0.70275,,,0.59337,0.80098,-0.07559,-0.02498,
6.45313,38.99226,106.59998,53.87870,-1.15781,1.36979,0.56475,,,0.59187,0.80243,-0.07428,-0.01678,
6.46094,31.96040,110.12000,43.82684,-1.16321,1.31553,0.52844,,,0.59071,0.80359,-0.07226,-0.00883,
6.46875,23.57760,109.80000,28.04613,-1.29288,1.25344,0.50665,,,0.58996,0.80445,-0.06939,-0.00157,
6.47656,18.55484,100.44882,22.03611,-1.33562,1.19478,0.48195,,,0.58940,0.80508,-0.06655,0.00491,
6.48438,13.39352,75.87973,10.08635,-1.25850,1.09016,0.50132,,,0.58900,0.80553,-0.06405,0.00953,
6.49219,10.55307,48.64396,-0.35212,-1.10378,1.15273,0.57347,,,0.58864,0.80592,-0.06207,0.01223,
6.50000,4.69896,38.97277,-4.74542,-1.04435,1.07989,0.55797,,,0.58855,0.80609,-0.06024,0.01420,
6.50781,2.23954,28.91046,-16.23827,-0.95348,0.98750,0.56572,,,0.58856,0.80622,-0.05818,0.01515,
6.51563,-3.51065,29.62158,-25.65750,-0.93236,1.01732,0.58848,,,0.58889,0.80614,-0.05558,0.01573,
6.52344,-6.35111,29.55047,-29.59389,-0.93531,0.93812,0.52795,,,0.58939,0.80596,-0.05278,0.01614,
6.53125,-9.29548,29.15935,-38.02901,-0.85524,0.98847,0.47614,,,0.59004,0.80569,-0.04952,0.01618,
6.53906,-13.38297,32.00382,-42.07084,-0.82037,0.93128,0.43692,,,0.59093,0.80525,-0.04594,0.01619,
6.54688,-8.77589,36.09274,-42.56289,-0.20345,0.98212,-0.49907,,,0.59157,0.80498,-0.04216,0.01643,
6.55469,11.24586,69.87079,-33.95203,-0.35228,1.09554,-0.70340,,,0.59118,0.80544,-0.03746,0.01893,
6.56250,19.52475,61.51517,-46.53443,0.37713,1.31406,-0.92130,,,0.59032,0.80626,-0.03240,0.02048,
6.57031,-5.13872,-17.31213,-11.98556,1.88750,1.91830,0.61172,,,0.59058,0.80610,-0.03245,0.01904,
6.57813,4.69896,-10.09429,-42.21143,0.16199,2.25513,0.32700,,,0.59035,0.80639,-0.03053,0.01680,
6.58594,14.15560,40.39500,-74.12432,-0.40483,2.65454,0.48486,,,0.58973,0.80706,-0.02481,0.01606,
6.59375,-1.70939,56.67958,-99.11337,-1.56352,2.09527,0.38656,,,0.59002,0.80707,-0.01708,0.01519,
6.60156,-5.51975,-45.65013,-96.72342,-0.56741,1.17033,-0.10346,,,0.59036,0.80698,-0.01359,0.00878,
6.60938,-6.66286,-66.91253,-102.41713,0.18065,1.02367,-0.20273,,,0.59070,0.80682,-0.01066,0.00097,
6.61719,-20.62266,-42.41455,-90.81883,0.54069,0.83644,-0.00129,,,0.59180,0.80604,-0.00737,-0.00504,
6.62500,-24.39839,-31.53447,-78.65820,0.15511,0.63600,-0.07199,,,0.59309,0.80507,-0.00431,-0.00995,
6.63281,8.09365,1.95914,-80.20463,-0.31347,0.98750,-0.01146,,,0.59258,0.80541,0.00016,-0.01309,
6.64063,4.69896,28.41268,-81.68078,-0.02662,1.22069,-0.25841,,,0.59224,0.80561,0.00579,-0.01483,
6.64844,3.97153,29.97714,-78.86907,0.01021,1.11802,-0.46953,,,0.59192,0.80575,0.01133,-0.01637,
6.65625,0.50755,14.43924,-76.54941,-0.25011,0.86723,-0.46517,,,0.59179,0.80572,0.01612,-0.01866,
6.66406,-9.57260,-15.21433,-69.62558,-0.33361,0.85941,-0.33685,,,0.59223,0.80523,0.01934,-0.02230,
6.67188,-15.39207,-23.42773,-64.88082,-0.25011,0.88483,-0.28601,,,0.59300,0.80447,0.02198,-0.02618,
6.67969,-20.76122,-27.23221,-59.53858,-0.00894,0.96794,-0.21290,,,0.59407,0.80349,0.02418,-0.03005,
6.68750,-22.07753,-3.69424,-54.47750,-0.03350,1.05154,-0.13445,,,0.59517,0.80249,0.02706,-0.03242,
6.69531,-22.56249,-4.90314,-54.54780,0.00334,1.08967,-0.17174,,,0.59629,0.80146,0.02990,-0.03486,
6.70313,-21.45402,-2.98313,-51.27919,-0.05708,1.14589,-0.07054,,,0.59734,0.80047,0.03263,-0.03707,
6.71094,-23.01280,-7.71205,-51.59550,-0.10276,1.12193,-0.07780,,,0.59848,0.79939,0.03519,-0.03954,
6.71875,-25.88790,-12.54765,-51.24404,-0.07574,1.12536,-0.03519,,,0.59978,0.79817,0.03754,-0.04225,
6.72656,-25.95718,-15.28545,-49.94363,-0.07869,1.08967,-0.02405,,,0.60108,0.79693,0.03970,-0.04506,
6.73438,-26.82317,-22.53884,-48.15116,-0.09539,1.00803,-0.15382,,,0.60245,0.79562,0.04148,-0.04818,
6.74219,-23.39384,-18.27214,-49.20555,-0.03154,0.98554,-0.13155,,,0.60360,0.79446,0.04347,-0.05113,
6.75000,-18.85604,-11.33875,-44.98799,-0.20197,0.95719,-0.12477,,,0.60450,0.79350,0.04551,-0.05354,
6.75781,-18.44036,-14.14766,-44.17962,-0.20197,0.96990,-0.19159,,,0.60537,0.79255,0.04738,-0.05607,
6.76563,-16.46590,-23.49885,-39.54030,-0.15728,0.96012,-0.16012,,,0.60619,0.79165,0.04861,-0.05891,
6.77344,-16.56982,-29.89890,-37.60726,-0.11111,0.92345,-0.22210,,,0.60703,0.79071,0.04947,-0.06203,
6.78125,-15.63455,-25.48997,-36.41228,-0.09686,0.95865,-0.12525,,,0.60780,0.78983,0.05045,-0.06485,
6.78906,-14.31824,-19.37437,-35.49847,-0.16857,0.97087,-0.10443,,,0.60848,0.78903,0.05162,-0.06732,
6.79688,-14.63000,-17.16991,-35.42818,-0.14893,0.97967,-0.08845,,,0.60916,0.78821,0.05288,-0.06966,
6.80469,-13.90256,-10.52096,-34.61982,-0.09932,0.95670,-0.08603,,,0.60978,0.78746,0.05437,-0.07161,
6.81250,-12.30914,-5.36537,-32.12442,-0.14500,0.91759,-0.13833,,,0.61030,0.78680,0.05593,-0.07319,
6.82031,-10.19611,-0.42311,-32.54618,-0.18527,0.97527,-0.05746,,,0.61068,0.78624,0.05771,-0.07453,
6.82813,-8.84516,-4.36980,-30.54284,-0.20099,1.00314,-0.06424,,,0.61102,0.78573,0.05921,-0.07600,
6.83594,-7.84061,-6.60982,-31.35120,-0.18184,1.02318,-0.09281,,,0.61130,0.78524,0.06065,-0.07763,
6.84375,-6.66286,-7.10760,-31.52694,-0.13517,1.02514,-0.04729,,,0.61152,0.78479,0.06208,-0.07929,
6.85156,-4.72304,-7.28538,-31.70267,-0.09686,0.96207,-0.12961,,,0.61163,0.78442,0.06350,-0.08099,
6.85938,-2.81786,-4.40536,-31.87840,-0.14549,0.96843,-0.09814,,,0.61162,0.78414,0.06503,-0.08254,
6.86719,-1.81331,-3.44535,-32.12442,-0.22064,0.98310,-0.08022,,,0.61155,0.78390,0.06662,-0.08405,
6.87500,-4.23808,-8.17428,-32.33530,-0.15384,0.94594,-0.12525,,,0.61163,0.78353,0.06803,-0.08582,
6.88281,-3.85705,-7.24983,-32.75706,-0.16612,0.97136,-0.10588,,,0.61168,0.78317,0.06950,-0.08755,
6.89063,-4.79232,-4.51203,-31.49179,-0.13075,0.93421,-0.18772,,,0.61177,0.78279,0.07102,-0.08908,
6.89844,-4.13417,-0.10310,-31.42150,-0.16808,0.97039,-0.15092,,,0.61180,0.78246,0.07272,-0.09038,
6.90625,-4.37664,-0.06755,-29.98050,-0.22801,0.95621,-0.17077,,,0.61184,0.78213,0.07434,-0.09161,
6.91406,-4.61912,-0.52977,-29.55874,-0.22752,0.98994,-0.16496,,,0.61191,0.78178,0.07592,-0.09285,
6.92188,-4.23808,-1.56089,-27.97715,-0.20590,0.99092,-0.11847,,,0.61196,0.78145,0.07737,-0.09408,
6.92969,-4.65376,-4.04980,-27.27423,-0.18527,0.98114,-0.15237,,,0.61206,0.78108,0.07869,-0.09541,
6.93750,-3.61457,-4.44092,-26.60645,-0.17938,1.01243,-0.09911,,,0.61210,0.78076,0.07994,-0.09673,
6.94531,-3.96097,-6.43204,-26.36042,-0.21032,0.98994,-0.10976,,,0.61217,0.78041,0.08110,-0.09815,
6.95313,-4.61912,-5.75648,-28.15289,-0.19657,1.01829,-0.08167,,,0.61226,0.78002,0.08239,-0.09961,
6.96094,-3.12961,-3.83647,-27.76628,-0.19362,1.01829,-0.05504,,,0.61226,0.77970,0.08373,-0.10096,
6.96875,-4.37664,-7.07205,-27.06335,-0.11995,0.97821,-0.12913,,,0.61234,0.77932,0.08490,-0.10244,
6.97656,-3.12961,-4.90314,-26.74703,-0.22948,1.04274,-0.08506,,,0.61235,0.77899,0.08614,-0.10379,
6.98438,-3.54529,-8.84984,-25.48176,-0.25158,0.99972,-0.13881,,,0.61241,0.77863,0.08715,-0.10531,
6.99219,-3.71849,-7.21427,-26.57130,-0.26779,1.02758,-0.08652,,,0.61246,0.77827,0.08828,-0.10678,
7.00000,-4.51520,-9.98763,-25.09515,-0.23194,1.00021,-0.10346,,,0.61258,0.77785,0.08923,-0.10833,
7.00781,-4.86160,-11.58764,-24.18135,-0.20640,0.98114,-0.11847,1021.939,25.6,0.61273,0.77741,0.09007,-0.10992,
7.01563,-5.10408,-10.41430,-23.61901,-0.21082,0.97821,-0.10056,,,0.61288,0.77698,0.09092,-0.11143,
7.02344,-4.61912,-9.24095,-23.37298,-0.32280,0.99923,-0.06521,,,0.61301,0.77657,0.09181,-0.11287,
7.03125,-5.48511,-7.60539,-24.63825,-0.29579,1.02709,-0.03277,,,0.61315,0.77612,0.09284,-0.11426,
7.03906,-5.45047,-9.56096,-24.25164,-0.25748,0.99532,-0.05214,,,0.61331,0.77567,0.09376,-0.11575,
7.04688,-7.11318,-10.12985,-23.37298,-0.15875,0.96403,-0.11024,,,0.61357,0.77514,0.09463,-0.11722,
7.05469,-5.90079,-5.64981,-23.97047,-0.23341,1.03052,-0.04729,,,0.61373,0.77469,0.09571,-0.11848,
7.06250,-8.01381,-6.14760,-24.14620,-0.21622,1.00118,-0.09959,,,0.61399,0.77415,0.09679,-0.11976,
7.07031,-8.98372,-5.61426,-25.69264,-0.22752,1.05349,-0.04923,,,0.61430,0.77355,0.09798,-0.12107,
7.07813,-9.50332,-6.89427,-25.41147,-0.22604,1.03785,-0.05892,,,0.61463,0.77293,0.09911,-0.12244,
7.08594,-10.68107,-7.81872,-26.36042,-0.19166,1.01243,-0.09620,,,0.61503,0.77223,0.10026,-0.12388,
7.09375,-10.05755,-5.82759,-27.44996,-0.21622,1.04274,-0.05456,,,0.61536,0.77157,0.10155,-0.12527,
7.10156,-10.99283,-6.82316,-28.08259,-0.26239,1.05643,-0.04536,,,0.61575,0.77086,0.10283,-0.12673,
7.10938,-13.00193,-7.49872,-31.21062,-0.21376,1.06376,-0.05262,,,0.61621,0.77002,0.10427,-0.12834,
7.11719,-13.20977,-8.81428,-31.63238,-0.18036,1.04372,-0.07780,,,0.61669,0.76916,0.10567,-0.13004,
7.12500,-14.66463,-8.99206,-34.44408,-0.17005,1.05692,-0.08264,,,0.61722,0.76822,0.10723,-0.13185,
7.13281,-14.80319,-3.37424,-37.95872,-0.21671,1.09554,-0.05020,,,0.61768,0.76728,0.10921,-0.13352,
7.14063,-15.94630,-5.04536,-38.27504,-0.20885,1.07647,-0.08506,,,0.61820,0.76628,0.11114,-0.13527,
7.14844,-16.36198,-2.41423,-41.26248,-0.25355,1.09358,-0.06424,,,0.61869,0.76525,0.11335,-0.13701,
7.15625,-16.67374,-3.05424,-43.47670,-0.21966,1.08234,-0.08458,,,0.61917,0.76418,0.11564,-0.13888,
7.16406,-16.88158,-4.97425,-44.28506,-0.18331,1.06816,-0.10104,,,0.61967,0.76306,0.11790,-0.14087,
7.17188,-17.47045,-3.87202,-46.99133,-0.21425,1.08967,-0.06134,,,0.62016,0.76191,0.12034,-0.14291,
7.17969,-17.71293,-4.12091,-47.79970,-0.23488,1.06327,-0.10734,,,0.62064,0.76072,0.12282,-0.14500,
7.18750,-17.43581,0.64357,-52.05241,-0.31053,1.10678,-0.02502,,,0.62102,0.75955,0.12572,-0.14702,
7.19531,-18.05933,-4.54758,-54.54780,-0.24372,1.06816,-0.03374,,,0.62144,0.75826,0.12853,-0.14941,
7.20313,-18.47500,-4.72536,-55.67248,-0.20099,1.08331,-0.03422,,,0.62187,0.75694,0.13140,-0.15185,
7.21094,-19.30636,-0.60088,-58.73021,-0.27369,1.07940,-0.04342,,,0.62226,0.75558,0.13460,-0.15420,
7.21875,-21.48866,-0.77866,-60.48753,-0.22211,1.05838,-0.08942,,,0.62273,0.75410,0.13791,-0.15661,
7.22656,-20.79586,2.38581,-62.56117,-0.27958,1.07109,-0.05988,,,0.62310,0.75264,0.14144,-0.15894,
7.23438,-22.00825,3.16803,-65.40802,-0.27712,1.05545,-0.08361,,,0.62349,0.75110,0.14517,-0.16134,
7.24219,-22.18145,1.67469,-67.02475,-0.25404,1.05692,-0.09184,,,0.62386,0.74951,0.14892,-0.16388,
7.25000,-22.56249,0.50135,-69.44985,-0.27762,1.06034,-0.08555,,,0.62423,0.74784,0.15274,-0.16658,
7.25781,-23.11672,0.32357,-72.29671,-0.31102,1.06865,-0.05601,,,0.62457,0.74610,0.15670,-0.16940,
7.26563,-23.56704,0.78579,-74.37034,-0.33115,1.07500,-0.06182,,,0.62490,0.74430,0.16078,-0.17227,
7.27344,-24.74479,-0.45866,-77.42807,-0.26534,1.08527,-0.09136,,,0.62524,0.74238,0.16498,-0.17532,
7.28125,-25.57614,-0.45866,-80.23978,-0.26288,1.12193,-0.05601,,,0.62557,0.74037,0.16932,-0.17847,
7.28906,-26.06110,-0.81422,-82.03225,-0.30758,1.12878,-0.04197,,,0.62589,0.73828,0.17374,-0.18170,
7.29688,-26.89245,-0.38755,-86.10922,-0.26042,1.13465,-0.10007,,,0.62617,0.73610,0.17839,-0.18507,
7.30469,-26.92709,-1.48978,-90.53766,-0.30512,1.18060,-0.05456,,,0.62638,0.73381,0.18320,-0.18868,
7.31250,-27.65452,-3.16090,-93.03305,-0.29530,1.20651,-0.04342,,,0.62660,0.73141,0.18807,-0.19246,
7.32031,-28.72835,-6.50315,-97.88325,-0.22653,1.22753,-0.10201,,,0.62681,0.72883,0.19305,-0.19659,
7.32813,-29.07475,-6.71649,-101.15186,-0.23734,1.26224,-0.08361,,,0.62698,0.72615,0.19817,-0.20086,
7.33594,-30.14858,-8.28095,-107.72423,-0.22162,1.33215,-0.11363,,,0.62709,0.72327,0.20355,-0.20546,
7.34375,-31.01457,-9.52540,-116.01877,-0.30758,1.42601,-0.07102,,,0.62710,0.72017,0.20929,-0.21045,
7.35156,-32.40016,-13.40099,-119.67399,-0.25993,1.45094,-0.10346,,,0.62715,0.71686,0.21505,-0.21575,
7.35938,-32.53872,-23.17884,-126.45724,-0.19854,1.50472,-0.17029,,,0.62719,0.71325,0.22071,-0.22180,
7.36719,-32.88512,-30.71668,-131.97521,-0.14549,1.55849,-0.14220,,,0.62723,0.70936,0.22629,-0.22843,
7.37500,-32.88512,-32.99226,-135.03295,-0.14991,1.60591,-0.15721,,,0.62720,0.70532,0.23191,-0.23528,
7.38281,-32.40016,-30.11223,-141.14841,-0.16121,1.68364,-0.15043,,,0.62694,0.70119,0.23792,-0.24224,
7.39063,-33.19688,-28.44111,-144.66305,-0.16022,1.70369,-0.06618,,,0.62656,0.69692,0.24415,-0.24922,
7.39844,-33.54327,-28.86778,-145.47141,-0.13468,1.68707,-0.05698,,,0.62614,0.69254,0.25038,-0.25623,
7.40625,-34.13215,-31.96114,-145.19024,-0.09981,1.59760,-0.13736,,,0.62572,0.68801,0.25645,-0.26334,
7.41406,-33.57791,-29.89890,-146.91241,-0.03645,1.53014,-0.15479,,,0.62515,0.68343,0.26265,-0.27040,
7.42188,-29.28259,-25.13441,-148.42371,0.14725,1.36099,-0.23275,,,0.62420,0.67903,0.26902,-0.27736,
7.42969,-24.12127,8.50141,-147.12329,0.16985,1.27153,-0.17077,,,0.62235,0.67543,0.27663,-0.28276,
7.43750,-21.80041,24.67932,-141.39443,0.05884,1.22704,-0.12961,,,0.62013,0.67229,0.28459,-0.28720,
7.44531,-18.75212,51.20398,-134.18943,-0.10570,1.18304,-0.04197,,,0.61734,0.66986,0.29325,-0.29014,
7.45313,-22.56249,62.72407,-125.68402,-0.13174,1.06816,-0.62787,,,0.61460,0.66761,0.30206,-0.29210,
7.46094,-20.55338,59.73738,-113.06647,-0.21082,0.95376,0.12024,,,0.61203,0.66558,0.31011,-0.29368,
7.46875,-27.03101,42.27946,-105.86147,-0.31838,0.96012,0.12170,,,0.61022,0.66305,0.31721,-0.29560,
7.47656,-33.33543,41.46168,-99.32425,-0.33705,0.82226,-0.04729,,,0.60882,0.66033,0.32408,-0.29712,
7.48438,-34.82494,27.84379,-86.56612,-0.26534,0.66484,0.02195,,,0.60800,0.65752,0.32983,-0.29868,
7.49219,-38.56603,18.24371,-67.37622,-0.29923,0.50352,-0.13978,,,0.60794,0.65477,0.33439,-0.29979,
7.50000,-33.99359,21.62152,-55.95365,-0.41809,0.37690,-0.40368,,,0.60782,0.65252,0.33847,-0.30036,
7.50781,-14.00648,21.23040,-33.91689,-0.18282,0.55094,-0.35622,,,0.60725,0.65159,0.34114,-0.30050,
7.51563,-10.61179,4.02137,-6.04583,-0.03841,0.51721,-0.25551,,,0.60751,0.65109,0.34179,-0.30032,
7.52344,-5.06944,-2.09423,4.67381,0.00874,0.46930,-0.24098,,,0.60787,0.65095,0.34160,-0.30010,
7.53125,2.20490,-7.92539,24.00430,0.17181,0.40965,-0.16980,,,0.60845,0.65144,0.34016,-0.29950,
7.53906,2.58594,-0.77866,43.33480,0.22437,0.34708,-0.10443,,,0.60924,0.65253,0.33815,-0.29780,
7.54688,2.65522,2.67025,52.47285,0.20620,0.28744,-0.15576,,,0.61012,0.65391,0.33587,-0.29556,
7.55469,10.83019,11.91477,67.09373,0.18753,0.30113,-0.13639,,,0.61071,0.65613,0.33315,-0.29248,
7.56250,13.49744,14.33257,75.98576,0.12122,0.30455,-0.14462,,,0.61129,0.65869,0.33007,-0.28897,
7.57031,19.76723,17.49704,92.68027,0.01660,0.30357,-0.21871,,,0.61182,0.66193,0.32624,-0.28476,
7.57813,26.76445,16.67925,106.49279,-0.03841,0.36908,-0.17416,,,0.61229,0.66572,0.32160,-0.28016,
7.58594,27.14549,12.69700,115.17394,-0.08360,0.38570,-0.16932,,,0.61296,0.66960,0.31638,-0.27536,
7.59375,29.08531,3.80804,131.48185,-0.14794,0.42628,-0.12961,,,0.61399,0.67370,0.30998,-0.27030,
7.60156,28.94675,-4.76092,145.50524,-0.18134,0.50792,-0.05698,,,0.61541,0.67786,0.30254,-0.26503,
7.60938,27.66508,-10.55652,153.65920,-0.20541,0.51232,-0.05311,,,0.61709,0.68196,0.29448,-0.25962,
7.61719,28.70427,-26.20109,169.08845,-0.18871,0.55094,-0.07925,,,0.61923,0.68606,0.28499,-0.25429,
7.62500,32.37608,-35.94339,183.32272,-0.11847,0.61498,-0.11170,,,0.62154,0.69030,0.27431,-0.24883,
7.63281,34.21199,-39.39231,189.85994,-0.12732,0.64578,-0.10346,,,0.62383,0.69457,0.26310,-0.24326,
7.64063,40.20465,-46.36125,201.56368,-0.05904,0.68733,-0.13736,,,0.62604,0.69906,0.25089,-0.23758,
7.64844,43.11439,-48.38793,206.97621,-0.03350,0.71911,-0.13155,,,0.62810,0.70358,0.23824,-0.23176,
7.65625,47.72147,-46.85903,215.69251,-0.00403,0.76164,-0.11799,,,0.62990,0.70830,0.22510,-0.22552,
7.66406,54.92653,-39.42786,222.47576,0.01611,0.82764,-0.11944,,,0.63120,0.71338,0.21179,-0.21868,
7.67188,58.49442,-33.09892,226.06068,0.00088,0.87750,-0.11363,,,0.63212,0.71858,0.19847,-0.21138,
7.67969,62.54726,-22.85884,233.19539,-0.05315,0.98065,-0.07054,,,0.63264,0.72400,0.18514,-0.20326,
7.68750,62.30478,-22.60995,237.94015,-0.10128,1.07500,-0.06521,,,0.63306,0.72927,0.17153,-0.19488,
7.69531,63.10150,-20.97438,239.69747,-0.12437,1.12487,-0.06666,,,0.63326,0.73442,0.15784,-0.18628,
7.70313,65.56092,-19.37437,243.10666,-0.16710,1.21726,-0.05117,,,0.63318,0.73951,0.14398,-0.17743,
7.71094,66.04587,-19.76548,244.12591,-0.15482,1.25295,-0.06085,,,0.63290,0.74440,0.12999,-0.16851,
7.71875,68.53993,-13.50765,244.68825,-0.11946,1.31650,-0.06376,,,0.63226,0.74926,0.11619,-0.15922,
7.72656,72.31566,-0.95644,245.46147,-0.11602,1.39081,-0.02551,,,0.63115,0.75420,0.10281,-0.14924,
7.73438,72.97381,4.37693,245.32088,-0.09686,1.42699,-0.00662,,,0.62976,0.75899,0.08962,-0.13895,
7.74219,73.70125,19.55928,244.37193,-0.10914,1.45925,-0.00856,,,0.62805,0.76371,0.07711,-0.12787,
7.75000,74.42868,36.19941,242.40374,-0.13910,1.51987,0.01226,,,0.62600,0.76837,0.06537,-0.11598,
7.75781,73.28557,40.18166,240.68157,-0.18036,1.55263,-0.00081,,,0.62380,0.77277,0.05389,-0.10391,
7.76563,69.75232,43.31058,239.34600,-0.21622,1.59614,-0.02696,,,0.62157,0.77681,0.04262,-0.09170,
7.77344,64.14069,49.99508,236.67488,-0.28351,1.60640,-0.05117,,,0.61942,0.78041,0.03180,-0.07919,
7.78125,61.71591,49.92397,235.05815,-0.35719,1.60836,-0.05746,,,0.61721,0.78368,0.02107,-0.06674,
7.78906,59.22185,45.83504,230.66486,-0.37880,1.57316,-0.10250,,,0.61494,0.78660,0.01040,-0.05466,
7.79688,58.66762,42.52835,230.77029,-0.42546,1.51987,-0.13106,,,0.61255,0.78928,-0.00041,-0.04274,
7.80469,59.56825,41.10612,227.25566,-0.41711,1.49885,-0.15334,,,0.60993,0.79177,-0.01109,-0.03104,
7.81250,61.81983,39.61277,221.59710,-0.42890,1.45779,-0.19207,,,0.60701,0.79416,-0.02153,-0.01964,
7.82031,62.61654,42.67057,216.25485,-0.42792,1.45241,-0.19401,,,0.60390,0.79639,-0.03155,-0.00829,
7.82813,62.51262,50.38619,205.21890,-0.45591,1.50227,-0.18384,,,0.60066,0.79846,-0.04065,0.00303,
7.83594,59.53361,51.09731,197.83816,-0.61555,1.47979,-0.16980,,,0.59746,0.80026,-0.04931,0.01407,
7.84375,57.38595,46.83061,192.95282,-0.64993,1.44850,-0.14801,,,0.59425,0.80182,-0.05786,0.02468,
7.85156,55.09973,32.57272,182.61979,-0.68579,1.37126,-0.15673,,,0.59101,0.80321,-0.06642,0.03406,
7.85938,52.32855,16.96370,171.97045,-0.69414,1.33508,-0.09668,,,0.58777,0.80443,-0.07503,0.04215,
7.86719,50.49265,8.32363,166.10101,-0.66172,1.32188,-0.07247,,,0.58453,0.80553,-0.08365,0.04951,
7.87500,45.88557,-2.44979,153.69434,-0.58608,1.28424,-0.00226,,,0.58145,0.80644,-0.09202,0.05576,
7.88281,44.25750,-4.36980,147.57888,-0.59786,1.27202,0.03308,,,0.57839,0.80724,-0.10013,0.06164,
7.89063,40.55105,-10.66319,134.60987,-0.53106,1.25833,0.06504,,,0.57550,0.80793,-0.10778,0.06663,
7.89844,33.20743,-7.81872,120.05928,-0.48489,1.15909,0.02824,,,0.57305,0.80835,-0.11454,0.07115,
7.90625,32.99960,-2.52090,111.48357,-0.48833,1.12096,0.03308,,,0.57065,0.80876,-0.12062,0.07562,
7.91406,30.19378,5.72806,94.08613,-0.51486,1.14882,0.02582,,,0.56854,0.80911,-0.12542,0.07983,
7.92188,24.33967,12.98145,75.35312,-0.56054,1.11118,0.03212,,,0.56689,0.80932,-0.12894,0.08367,
7.92969,22.46913,15.71925,65.65273,-0.57134,1.08722,0.03163,,,0.56541,0.80952,-0.13182,0.08727,
7.93750,20.21755,16.60814,47.06031,-0.59983,1.06767,0.04422,,,0.56417,0.80977,-0.13365,0.09018,
7.94531,18.86660,16.75037,37.74653,-0.60916,1.06767,0.03115,,,0.56304,0.81004,-0.13497,0.09272,
7.95313,15.43727,19.31039,19.15410,-0.59394,1.04909,0.02582,,,0.56225,0.81033,-0.13519,0.09466,
7.96094,11.66154,23.36375,1.96754,-0.57920,1.03736,0.00791,,,0.56181,0.81061,-0.13432,0.09613,
7.96875,9.96419,25.85266,-6.43244,-0.57969,1.04176,0.00500,,,0.56154,0.81088,-0.13291,0.09740,
7.97656,7.29694,28.59046,-22.49432,-0.56103,1.05252,-0.02502,,,0.56155,0.81117,-0.13052,0.09818,
7.98438,3.48657,30.54603,-37.29094,-0.53057,1.04274,-0.03325,,,0.56187,0.81142,-0.12726,0.09847,
7.99219,1.65067,32.07493,-44.46079,-0.50749,1.03296,-0.03519,,,0.56236,0.81165,-0.12355,0.09855,
8.00000,-0.08132,36.16385,-56.93775,-0.49423,1.01194,-0.03422,,,0.56304,0.81188,-0.11901,0.09836,
8.00781,-1.57083,41.17723,-68.43061,-0.46476,0.99727,-0.04633,1021.869,25.6,0.56392,0.81208,-0.11365,0.09799,
8.01563,-1.88258,43.16836,-73.80800,-0.46377,0.98603,-0.04148,,,0.56484,0.81228,-0.10791,0.09753,
8.02344,-1.70939,45.79949,-83.26237,-0.42792,0.97870,-0.04487,,,0.56582,0.81250,-0.10154,0.09684,
8.03125,-2.15970,47.68395,-86.91759,-0.40876,0.96452,-0.04875,,,0.56683,0.81269,-0.09490,0.09610,
8.03906,3.62513,47.11505,-91.69749,-0.04038,1.14002,-0.36203,,,0.56752,0.81309,-0.08797,0.09519,
8.04688,16.02614,39.75499,-70.32851,0.32359,1.04078,-0.23856,,,0.56732,0.81386,-0.08243,0.09477,
8.05469,15.78366,39.22166,-68.53605,0.52399,0.89803,-0.37027,,,0.56710,0.81459,-0.07700,0.09438,
8.06250,19.80187,26.31489,-65.54861,1.32461,1.01243,-0.51069,,,0.56655,0.81552,-0.07222,0.09342,
8.07031,-8.11773,8.32363,-38.23989,1.47982,0.95132,-0.01388,,,0.56729,0.81534,-0.06983,0.09237,
8.07813,-9.08764,13.08811,-44.60138,0.94640,0.81737,0.01178,,,0.56813,0.81511,-0.06691,0.09133,
8.08594,18.20844,40.57278,-63.33439,0.09175,1.05594,0.20111,,,0.56769,0.81584,-0.06170,0.09122,
8.09375,17.03069,90.77763,-82.91090,-0.04283,1.39179,0.09942,,,0.56763,0.81625,-0.05347,0.09312,
8.10156,12.56217,111.54224,-82.03225,-0.18036,1.37957,-0.09911,,,0.56783,0.81629,-0.04450,0.09620,
8.10938,16.85749,104.92885,-70.99629,-0.35031,1.33117,-0.16593,,,0.56766,0.81644,-0.03637,0.09933,
8.11719,18.93588,73.35526,-68.36031,-0.39550,1.41037,-0.07490,,,0.56724,0.81682,-0.02960,0.10081,
8.12500,17.03069,9.53253,-72.99963,-0.28597,1.54089,-0.05407,,,0.56681,0.81755,-0.02504,0.09855,
8.13281,11.41906,-15.14322,-80.20463,-0.17152,1.41477,-0.07877,,,0.56668,0.81822,-0.02108,0.09462,
8.14063,11.97330,-18.52103,-84.73851,-0.11749,1.34486,-0.14850,,,0.56652,0.81890,-0.01699,0.09033,
8.14844,10.62235,-7.67650,-88.71005,-0.06936,1.31113,-0.27488,,,0.56646,0.81945,-0.01226,0.08648,
8.15625,3.86761,2.20803,-86.24981,-0.03694,1.24073,-0.23904,,,0.56675,0.81964,-0.00734,0.08327,
8.16406,0.92323,-0.13866,-85.01969,0.01660,1.17864,-0.20127,,,0.56717,0.81971,-0.00259,0.07998,
8.17188,-2.22898,-6.53871,-84.24647,0.05884,1.01096,-0.16690,,,0.56774,0.81966,0.00186,0.07635,
8.17969,-0.87803,-4.33425,-85.16027,0.02495,0.93372,-0.21919,,,0.56823,0.81962,0.00644,0.07281,
8.18750,5.35711,1.95914,-87.26905,-0.04480,0.92492,-0.25841,,,0.56835,0.81976,0.01142,0.06954,
8.19531,6.15383,-4.76092,-82.20798,0.00186,0.95034,-0.25309,,,0.56839,0.81995,0.01586,0.06608,
8.20313,5.35711,-7.03649,-78.23644,0.03772,0.96599,-0.22839,,,0.56844,0.82009,0.01999,0.06265,
8.21094,6.43094,-10.55652,-74.30005,-0.07672,0.98065,-0.23953,,,0.56841,0.82027,0.02376,0.05917,
8.21875,3.14017,-21.22327,-71.69922,-0.12142,1.08331,-0.17416,,,0.56855,0.82035,0.02696,0.05520,
8.22656,-3.02569,-28.76111,-68.50090,-0.08114,1.09847,-0.09378,,,0.56903,0.82020,0.02967,0.05094,
8.23438,-11.13139,-41.31232,-60.97958,-0.06051,0.98407,-0.14995,,,0.56994,0.81978,0.03144,0.04628,
8.24219,-7.84061,-48.56571,-56.97290,0.03821,1.02025,-0.13252,,,0.57065,0.81950,0.03271,0.04137,
8.25000,-8.53341,-50.09461,-54.16119,0.03084,1.01145,-0.14704,,,0.57139,0.81917,0.03376,0.03648,
8.25781,-6.00471,-41.84566,-52.57960,0.14382,1.02221,-0.15092,,,0.57195,0.81891,0.03505,0.03211,
8.26563,-4.41128,-36.58340,-51.03316,0.16985,1.01487,-0.15721,,,0.57239,0.81869,0.03646,0.02809,
8.27344,-1.53619,-23.78329,-49.41643,0.10108,1.00901,-0.18530,,,0.57262,0.81855,0.03829,0.02484,
8.28125,0.26508,-13.86321,-47.76455,0.07112,0.97576,-0.20224,,,0.57272,0.81845,0.04041,0.02220,
8.28906,2.20490,-7.92539,-47.34279,0.00137,0.97136,-0.19643,,,0.57269,0.81841,0.04275,0.01990,
8.29688,6.53486,0.64357,-46.49928,-0.01434,0.98456,-0.19353,,,0.57239,0.81853,0.04538,0.01811,
8.30469,9.09820,-1.98756,-42.63318,-0.01041,0.99874,-0.19885,,,0.57194,0.81875,0.04769,0.01630,
8.31250,9.75636,-4.51203,-39.92691,-0.06788,0.97967,-0.22113,,,0.57145,0.81900,0.04975,0.01446,
8.32031,8.64789,-11.37430,-37.78299,0.00383,1.02123,-0.20321,,,0.57104,0.81922,0.05143,0.01233,
8.32813,6.95054,-14.21877,-35.74450,-0.09048,1.02416,-0.17174,,,0.57073,0.81937,0.05288,0.01012,
8.33594,6.39630,-17.95213,-34.40894,-0.05069,0.98994,-0.21047,,,0.57046,0.81950,0.05410,0.00775,
8.34375,6.32702,-24.67219,-31.42150,-0.00796,0.99923,-0.19159,,,0.57022,0.81964,0.05490,0.00513,
8.35156,5.42639,-27.55221,-28.39891,-0.01631,0.96403,-0.22452,,,0.57002,0.81975,0.05542,0.00246,
8.35938,6.74270,-30.21890,-25.72779,-0.03301,0.97919,-0.26422,,,0.56977,0.81992,0.05568,-0.00025,
8.36719,8.61325,-25.98775,-25.93867,-0.08900,1.01976,-0.19498,,,0.56938,0.82015,0.05612,-0.00274,
8.37500,7.19302,-27.40999,-24.39223,-0.02859,1.00656,-0.19498,,,0.56908,0.82033,0.05642,-0.00525,
8.38281,6.84662,-25.73886,-22.07257,-0.02859,0.98310,-0.17416,,,0.56879,0.82050,0.05665,-0.00757,
8.39063,8.30149,-26.20109,-19.96379,-0.03596,0.97723,-0.21144,,,0.56841,0.82073,0.05675,-0.00984,
8.39844,8.54397,-23.42773,-19.36630,-0.01484,0.99923,-0.17029,,,0.56801,0.82096,0.05692,-0.01194,
8.40625,9.51388,-22.11217,-17.96044,-0.10374,0.97723,-0.19401,,,0.56755,0.82124,0.05706,-0.01391,
8.41406,10.62235,-20.36993,-18.48764,-0.07967,0.99630,-0.16012,,,0.56702,0.82156,0.05730,-0.01580,
8.42188,10.24131,-22.25439,-16.30857,-0.03645,0.98261,-0.15092,,,0.56651,0.82186,0.05734,-0.01772,
8.42969,9.92955,-24.67219,-15.11359,-0.06592,0.97283,-0.18384,,,0.56603,0.82216,0.05722,-0.01973,
8.43750,10.27595,-25.41886,-14.62154,-0.03350,0.97430,-0.16883,,,0.56554,0.82246,0.05705,-0.02175,
8.44531,11.48834,-24.10330,-14.93786,-0.11553,0.98163,-0.19837,,,0.56497,0.82281,0.05694,-0.02373,
8.45313,10.10275,-20.65438,-14.37552,-0.02171,0.95670,-0.26374,,,0.56446,0.82310,0.05693,-0.02548,
8.46094,10.55307,-18.44992,-14.83242,-0.00550,0.96647,-0.25986,,,0.56391,0.82342,0.05703,-0.02712,
8.46875,9.06356,-15.99656,-13.53200,-0.03890,0.93030,-0.31410,,,0.56344,0.82368,0.05716,-0.02858,
8.47656,7.40086,-13.61432,-14.48096,-0.04725,0.97625,-0.27342,,,0.56305,0.82388,0.05744,-0.02993,
8.48438,5.56495,-15.53434,-14.30522,-0.07181,0.98358,-0.26422,,,0.56277,0.82401,0.05763,-0.03137,
8.49219,-0.21988,-18.69881,-15.07844,-0.04725,0.99630,-0.24776,,,0.56282,0.82390,0.05776,-0.03300,
8.50000,-3.23353,-21.18772,-15.00815,-0.01631,1.00070,-0.23565,,,0.56305,0.82367,0.05780,-0.03475,
8.50781,-10.33467,-24.95664,-15.18388,-0.04971,1.00363,-0.20176,,,0.56369,0.82315,0.05772,-0.03669,
8.51563,-19.86059,-27.72999,-16.69518,-0.08360,0.99043,-0.16399,,,0.56487,0.82225,0.05764,-0.03881,
8.52344,-22.42393,-30.21890,-18.20647,-0.16072,1.00216,-0.18239,,,0.56620,0.82123,0.05755,-0.04112,
8.53125,-28.03556,-30.07668,-19.61232,-0.07918,0.98945,-0.19062,,,0.56783,0.81998,0.05757,-0.04345,
8.53906,-27.93164,-37.22340,-18.80396,-0.05806,1.01389,-0.20321,,,0.56948,0.81871,0.05726,-0.04615,
8.54688,-27.23885,-37.93452,-17.81986,-0.04774,1.00021,-0.27245,,,0.57109,0.81746,0.05687,-0.04885,
8.55469,-21.90433,-31.71225,-17.01149,-0.06150,1.00363,-0.25696,,,0.57238,0.81643,0.05665,-0.05119,
8.56250,-17.36653,-26.05887,-17.15208,-0.09539,1.02269,-0.21629,,,0.57338,0.81559,0.05665,-0.05325,
8.57031,-17.47045,-23.35662,-16.97635,-0.10079,1.00998,-0.24098,,,0.57438,0.81475,0.05674,-0.05514,
8.57813,-15.80775,-25.56108,-17.04664,-0.06494,0.98554,-0.21532,,,0.57530,0.81397,0.05675,-0.05717,
8.58594,-15.28815,-26.84109,-17.22237,-0.04480,0.96745,-0.28892,,,0.57618,0.81320,0.05671,-0.05927,
8.59375,-13.55616,-25.31219,-20.35040,-0.03989,0.97479,-0.26955,,,0.57695,0.81248,0.05690,-0.06142,
8.60156,-11.47778,-22.00550,-27.34452,-0.06788,1.04616,-0.11460,,,0.57755,0.81183,0.05760,-0.06367,
8.60938,-13.17513,-21.96994,-29.98050,0.03084,1.05007,-0.14075,,,0.57824,0.81109,0.05845,-0.06601,
8.61719,-14.24896,-22.07661,-37.08006,0.09273,1.06376,-0.12283,,,0.57894,0.81028,0.05969,-0.06864,
8.62500,-16.81230,-17.66769,-44.39050,0.06179,1.01145,-0.16060,,,0.57973,0.80935,0.06152,-0.07129,
8.63281,-17.36653,-12.61876,-50.11936,0.07407,1.03638,-0.17319,,,0.58050,0.80838,0.06387,-0.07390,
8.64063,-18.64820,-4.97425,-57.99214,-0.00992,0.99434,-0.18239,,,0.58125,0.80736,0.06696,-0.07638,
8.64844,-19.61811,1.14135,-64.14275,-0.01876,1.01732,-0.19643,,,0.58199,0.80628,0.07064,-0.07877,
8.65625,-20.93442,5.12361,-69.06324,-0.01238,0.98945,-0.26132,,,0.58274,0.80514,0.07475,-0.08112,
8.66406,-20.93442,7.39918,-73.87829,-0.05118,1.00118,-0.26471,,,0.58343,0.80396,0.07921,-0.08354,
8.67188,-21.55794,8.07474,-75.67076,-0.07279,1.02074,-0.26761,,,0.58413,0.80273,0.08380,-0.08599,
8.67969,-21.86969,10.27920,-79.29083,-0.24864,1.05203,-0.19498,,,0.58480,0.80145,0.08867,-0.08846,
8.68750,-24.25983,7.43474,-81.22388,-0.18429,1.03443,-0.19014,,,0.58558,0.80002,0.09355,-0.09114,
8.69531,-24.12127,5.62139,-83.08664,-0.14794,1.07745,-0.12767,,,0.58633,0.79855,0.09846,-0.09400,
8.70313,-25.92254,0.39468,-81.71593,-0.15433,1.03492,-0.17367,,,0.58721,0.79696,0.10308,-0.09707,
8.71094,-26.19966,4.44805,-84.17617,-0.14352,1.07891,-0.14704,,,0.58803,0.79533,0.10801,-0.10001,
8.71875,-25.71470,6.26139,-85.08998,-0.17201,1.10825,-0.08119,,,0.58879,0.79370,0.11304,-0.10289,
8.72656,-27.65452,7.86141,-86.35525,-0.20738,1.13611,-0.08506,,,0.58961,0.79196,0.11822,-0.10571,
8.73438,-27.51596,5.23027,-87.30420,-0.18036,1.14784,-0.07151,,,0.59042,0.79017,0.12334,-0.10872,
8.74219,-27.68916,2.81248,-87.51508,-0.15531,1.13465,-0.14365,,,0.59123,0.78833,0.12837,-0.11185,
8.75000,-28.31268,3.80804,-88.78034,-0.19952,1.13953,-0.16399,,,0.59203,0.78642,0.13351,-0.11497,
8.75781,-27.93164,5.94139,-88.56947,-0.31298,1.12096,-0.14414,,,0.59277,0.78452,0.13871,-0.11797,
8.76563,-29.04011,3.13248,-90.18620,-0.29874,1.11998,-0.14995,,,0.59355,0.78250,0.14389,-0.12117,
8.77344,-29.07475,-5.11648,-91.45147,-0.24716,1.15469,-0.14511,,,0.59439,0.78037,0.14880,-0.12486,
8.78125,-30.18322,-8.92095,-90.04561,-0.24962,1.10189,-0.20127,,,0.59531,0.77814,0.15348,-0.12867,
8.78906,-30.32178,-3.12535,-93.17364,-0.24274,1.12585,-0.16447,,,0.59612,0.77589,0.15856,-0.13229,
8.79688,-29.59435,-7.71205,-94.33347,-0.30610,1.18304,-0.16351,,,0.59690,0.77358,0.16350,-0.13621,
8.80469,-30.80674,-9.56096,-95.14183,-0.24815,1.18940,-0.19789,,,0.59774,0.77115,0.16841,-0.14024,
8.81250,-32.19232,-6.36093,-98.72676,-0.23930,1.24317,-0.13542,,,0.59855,0.76863,0.17364,-0.14422,
8.82031,-33.05832,-9.84540,-99.67571,-0.18429,1.25491,-0.18336,,,0.59940,0.76598,0.17878,-0.14841,
8.82813,-34.27071,-8.13872,-102.87403,-0.13763,1.31650,-0.18287,,,0.60024,0.76323,0.18416,-0.15261,
8.83594,-34.30535,-8.28095,-107.44306,-0.19166,1.35072,-0.13736,,,0.60099,0.76036,0.18976,-0.15700,
8.84375,-34.65174,-10.34318,-109.76272,-0.14647,1.35415,-0.14850,,,0.60173,0.75739,0.19539,-0.16158,
8.85156,-33.75111,-12.54765,-115.63216,-0.08213,1.40157,-0.13591,,,0.60235,0.75430,0.20120,-0.16651,
8.85938,-32.81584,-11.40986,-122.27482,-0.10718,1.48125,-0.10007,,,0.60278,0.75112,0.20738,-0.17166,
8.86719,-32.50408,-8.35206,-126.84384,-0.11209,1.55800,-0.08458,,,0.60306,0.74786,0.21390,-0.17683,
8.87500,-34.02823,-10.05874,-133.34592,-0.12633,1.71395,-0.10007,,,0.60331,0.74436,0.22069,-0.18231,
8.88281,-35.48310,-9.91651,-137.31746,-0.13567,1.80733,-0.10588,,,0.60353,0.74068,0.22767,-0.18792,
8.89063,-38.04643,-25.13441,-140.23461,-0.10963,1.93003,-0.19401,,,0.60401,0.73658,0.23419,-0.19435,
8.89844,-39.88234,-58.52135,-141.42958,-0.13517,2.04198,-0.22645,,,0.60505,0.73186,0.23939,-0.20246,
8.90625,-41.99536,-66.20141,-144.83878,-0.08851,2.07425,-0.22403,,,0.60619,0.72681,0.24444,-0.21103,
8.91406,-45.66717,-70.71700,-148.31827,-0.09932,2.02390,-0.25744,,,0.60746,0.72139,0.24950,-0.21988,
8.92188,-46.39460,-74.05925,-150.63793,-0.07820,1.61618,-0.43128,,,0.60870,0.71574,0.25452,-0.22895,
8.92969,-38.73923,-88.53048,-151.37600,-0.03596,1.40743,-0.40271,,,0.60972,0.71008,0.25881,-0.23885,
8.93750,-26.71925,-90.41494,-157.91322,0.20914,1.37419,-0.34799,,,0.60999,0.70466,0.26310,-0.24929,
8.94531,-19.09852,-68.51254,-153.80110,0.15266,1.40597,-0.37317,,,0.60948,0.69990,0.26794,-0.25861,
8.95313,-16.43126,-58.91246,-147.68563,0.03428,1.33410,-0.34993,,,0.60871,0.69544,0.27281,-0.26724,
8.96094,-12.30914,-40.92121,-137.35260,0.07800,1.20113,-0.38140,,,0.60752,0.69160,0.27783,-0.27463,
8.96875,-10.88891,-19.51659,-134.43546,0.07652,1.12927,-0.27342,,,0.60586,0.68821,0.28355,-0.28089,
8.97656,-10.05755,1.88802,-130.35848,0.15217,0.93910,-0.15527,,,0.60378,0.68529,0.28992,-0.28598,
8.98438,-12.48233,14.26146,-118.47901,-0.10767,0.83986,-0.03519,,,0.60175,0.68269,0.29627,-0.28993,
8.99219,-17.02013,6.68806,-109.93845,-0.17152,0.78070,-0.05165,,,0.60022,0.67988,0.30199,-0.29377,
9.00000,-19.37563,-18.02325,-100.02718,-0.36996,0.67511,0.20062,,,0.59947,0.67666,0.30626,-0.29829,
9.00781,-19.75667,-54.64576,-85.40629,-0.26779,0.50889,-0.12864,1021.902,25.6,0.59977,0.67294,0.30836,-0.30388,
9.01563,-15.70383,-52.15685,-74.33519,-0.27860,0.40672,-0.38431,,,0.60004,0.66964,0.30996,-0.30898,
9.02344,-2.12506,-30.57446,-47.37794,-0.31298,0.32361,-0.29328,,,0.59978,0.66790,0.31091,-0.31226,
9.03125,-0.67020,-62.04138,-18.03074,-0.05069,0.35686,-0.21096,,,0.60073,0.66617,0.30921,-0.31580,
9.03906,-0.73947,-69.97033,-8.33034,0.04902,0.35637,-0.17658,,,0.60205,0.66445,0.30673,-0.31930,
9.04688,3.31337,-73.70369,11.77337,0.30836,0.26690,-0.13203,,,0.60369,0.66322,0.30309,-0.32222,
9.05469,5.77279,-65.91696,21.08715,0.39333,0.23464,-0.09620,,,0.60525,0.66244,0.29930,-0.32444,
9.06250,11.80010,-47.00126,41.29631,0.46357,0.15593,-0.12428,,,0.60659,0.66273,0.29522,-0.32510,
9.07031,22.53841,-22.64551,58.86948,0.39481,0.15104,-0.12283,,,0.60732,0.66434,0.29112,-0.32413,
9.07813,28.11540,-13.25876,65.96905,0.37418,0.17646,-0.13058,,,0.60776,0.66651,0.28696,-0.32255,
9.08594,35.45901,6.97251,82.73386,0.31229,0.18673,-0.15527,,,0.60782,0.66974,0.28270,-0.31949,
9.09375,43.63398,23.47042,97.38989,0.26268,0.24588,-0.14511,,,0.60748,0.67392,0.27827,-0.31521,
9.10156,45.78165,29.62158,106.10618,0.22290,0.28010,-0.11218,,,0.60708,0.67845,0.27363,-0.31031,
9.10938,47.02868,34.42162,124.83919,0.11926,0.32850,-0.06908,,,0.60688,0.68342,0.26827,-0.30442,
9.11719,47.27115,33.24828,133.80151,0.07947,0.37250,-0.04003,,,0.60681,0.68848,0.26241,-0.29818,
9.12500,49.73057,31.43493,148.03578,0.08144,0.47370,-0.03180,,,0.60689,0.69379,0.25574,-0.29145,
9.13281,48.31034,29.51491,165.18720,0.05000,0.49081,-0.04100,,,0.60733,0.69920,0.24817,-0.28404,
9.14063,48.51818,27.55934,173.69262,0.03969,0.51378,-0.06327,,,0.60787,0.70463,0.24007,-0.27633,
9.14844,50.07697,27.80823,189.50848,0.05491,0.56511,-0.09862,,,0.60852,0.71027,0.23115,-0.26793,
9.15625,52.05143,25.88822,203.11012,0.06670,0.62036,-0.11121,,,0.60924,0.71603,0.22141,-0.25904,
9.16406,53.40238,24.46598,209.64734,0.10059,0.65751,-0.11460,,,0.60990,0.72176,0.21122,-0.24992,
9.17188,55.41148,25.07043,222.19458,0.14775,0.72497,-0.12041,,,0.61053,0.72761,0.20036,-0.24021,
9.17969,59.70681,29.97714,232.98451,0.15708,0.82128,-0.13397,,,0.61089,0.73367,0.18904,-0.22980,
9.18750,62.40870,34.06606,238.01044,0.14480,0.87066,-0.14220,,,0.61097,0.73976,0.17755,-0.21896,
9.19531,67.50074,41.07056,247.71084,0.09175,0.99336,-0.15963,,,0.61067,0.74607,0.16573,-0.20735,
9.20313,69.54448,42.88391,252.20957,0.05786,1.06278,-0.16932,,,0.61012,0.75230,0.15368,-0.19542,
9.21094,71.55359,43.55947,260.92587,-0.03497,1.20895,-0.16302,,,0.60936,0.75846,0.14113,-0.18304,
9.21875,69.09417,36.12830,268.41204,-0.09097,1.33410,-0.14607,,,0.60868,0.76422,0.12786,-0.17065,
9.22656,67.18898,31.29270,270.97772,-0.08949,1.38397,-0.12767,,,0.60795,0.76959,0.11423,-0.15833,
9.23438,64.07141,25.14154,274.84382,-0.01582,1.46170,-0.12235,,,0.60725,0.77452,0.10014,-0.14609,
9.24219,64.59100,33.10605,278.07729,-0.00206,1.53601,-0.15237,,,0.60627,0.77927,0.08617,-0.13324,
9.25000,67.01578,39.39944,278.67477,-0.06002,1.62205,-0.12235,,,0.60489,0.78388,0.07236,-0.12000,
9.25781,68.19353,39.96833,278.63963,-0.00452,1.71689,-0.14559,,,0.60322,0.78824,0.05855,-0.10668,
9.26563,65.14524,46.61727,277.44465,-0.09490,1.77555,-0.15092,,,0.60143,0.79221,0.04507,-0.09301,
9.27344,66.18443,46.47505,279.02624,-0.11258,1.79022,-0.16786,,,0.59937,0.79592,0.03148,-0.07924,
9.28125,71.79606,37.12386,281.48648,-0.12093,1.77262,-0.22500,,,0.59680,0.79949,0.01733,-0.06587,
9.28906,73.52805,36.73275,279.30741,-0.11946,1.82688,-0.23420,,,0.59389,0.80282,0.00327,-0.05258,
9.29688,76.99202,44.80392,274.21119,-0.13321,1.79168,-0.33637,,,0.59054,0.80600,-0.01020,-0.03903,
9.30469,87.93816,60.41294,262.08570,-0.21082,1.87821,-0.34702,,,0.58634,0.80937,-0.02240,-0.02510,
9.31250,88.94272,70.22635,256.42713,-0.30856,1.95008,-0.34218,,,0.58187,0.81250,-0.03388,-0.01084,
9.32031,79.59000,73.39082,250.20623,-0.57331,1.97305,-0.35187,,,0.57772,0.81499,-0.04488,0.00333,
9.32813,67.01578,61.05294,241.52508,-0.63569,1.84888,-0.37898,,,0.57404,0.81675,-0.05587,0.01643,
9.33594,62.37406,53.76400,234.91756,-0.64747,1.77262,-0.37850,,,0.57043,0.81812,-0.06676,0.02885,
9.34375,57.21275,42.63502,216.64146,-0.72066,1.64600,-0.28165,,,0.56694,0.81917,-0.07706,0.03990,
9.35156,56.06964,39.50610,206.02726,-0.72705,1.60445,-0.22984,,,0.56340,0.82006,-0.08687,0.05035,
9.35938,52.29391,31.25715,187.78631,-0.76536,1.53552,-0.13591,,,0.55997,0.82078,-0.09597,0.05960,
9.36719,47.65219,19.77261,170.67003,-0.86359,1.43725,-0.07054,,,0.55670,0.82134,-0.10456,0.06752,
9.37500,45.60845,13.47923,161.42654,-0.88520,1.38543,-0.02405,,,0.55347,0.82180,-0.11286,0.07471,
9.38281,42.31768,1.07024,142.86927,-0.90436,1.31504,0.00209,,,0.55035,0.82225,-0.12059,0.08048,
9.39063,34.80086,-2.69868,121.85175,-0.97706,1.30966,0.08538,,,0.54769,0.82254,-0.12732,0.08517,
9.39844,29.15459,-6.28982,109.97228,-0.97214,1.28326,0.09506,,,0.54536,0.82268,-0.13354,0.08916,
9.40625,20.70250,-10.91208,84.28030,-0.92352,1.22949,0.10475,,,0.54358,0.82273,-0.13854,0.09186,
9.41406,13.60136,-9.73874,58.09626,-0.85623,1.17082,0.08780,,,0.54236,0.82274,-0.14207,0.09358,
9.42188,10.62235,-6.68093,44.74065,-0.82479,1.14491,0.07812,,,0.54142,0.82274,-0.14475,0.09496,
9.42969,5.42639,4.87472,17.04532,-0.75406,1.11656,0.09022,,,0.54106,0.82274,-0.14548,0.09590,
9.43750,2.96697,11.48810,4.46293,-0.76143,1.08429,0.08054,,,0.54098,0.82273,-0.14528,0.09673,
9.44531,1.68530,21.47929,-18.97969,-0.78009,1.03980,0.09361,,,0.54123,0.82283,-0.14341,0.09725,
9.45313,0.50755,30.40381,-41.01645,-0.75357,1.06669,0.11443,,,0.54177,0.82304,-0.13997,0.09743,
9.46094,-1.46691,35.41718,-50.99802,-0.74276,1.06425,0.12944,,,0.54253,0.82323,-0.13581,0.09751,
9.46875,-5.58903,42.27946,-67.72768,-0.66859,1.06816,0.15123,,,0.54368,0.82336,-0.13047,0.09732,
9.47656,-10.33467,48.99951,-80.80212,-0.59148,1.04616,0.15123,,,0.54523,0.82335,-0.12418,0.09697,
9.48438,-11.92810,52.09287,-86.24981,-0.55710,1.03589,0.14155,,,0.54690,0.82327,-0.11747,0.09658,
9.49219,-14.04112,60.91072,-97.07488,-0.50945,1.01047,0.11250,,,0.54880,0.82310,-0.10983,0.09626,
9.50000,-16.22342,69.58635,-105.12340,-0.49668,0.96207,0.08344,,,0.55091,0.82279,-0.10143,0.09610,
9.50781,-16.01558,72.35970,-108.32172,-0.38617,0.99727,-0.13155,,,0.55300,0.82242,-0.09273,0.09597,
9.51563,10.69163,78.40419,-92.92761,0.70671,1.16007,-0.84964,,,0.55349,0.82287,-0.08450,0.09693,
9.52344,20.28683,89.81762,-69.62558,0.48420,0.86479,-0.69033,,,0.55331,0.82342,-0.07706,0.09946,
9.53125,29.15459,17.67482,-57.35951,1.65272,0.77631,-1.10240,,,0.55215,0.82469,-0.07299,0.09845,
9.53906,1.58139,-14.57433,-28.01230,1.67040,0.76115,-0.41336,,,0.55217,0.82499,-0.07196,0.09660,
9.54688,-3.09497,-11.90764,-37.39638,0.62075,0.70200,-0.03471,,,0.55252,0.82513,-0.07033,0.09451,
9.55469,15.12551,-5.43648,-74.01888,-0.24078,1.11998,0.16576,,,0.55211,0.82608,-0.06627,0.09148,
9.56250,0.95787,52.98177,-102.80374,-0.30463,1.76137,0.49890,,,0.55293,0.82622,-0.05847,0.09059,
9.57031,-17.60901,53.44399,-95.10669,-0.32723,1.66164,0.33233,,,0.55471,0.82558,-0.05120,0.08994,
9.57813,-21.93897,10.88365,-80.90756,-0.15187,1.41721,0.17109,,,0.55648,0.82495,-0.04637,0.08741,
9.58594,-9.98828,-15.92545,-82.38371,-0.03301,1.38201,0.00791,,,0.55748,0.82490,-0.04239,0.08336,
9.59375,14.22488,-40.31676,-93.98201,0.10649,1.50814,-0.23226,,,0.55709,0.82592,-0.03856,0.07755,
9.60156,-0.04668,-39.03675,-107.23218,0.13743,1.51107,-0.30296,,,0.55755,0.82638,-0.03400,0.07128,
9.60938,-17.29725,-36.93895,-109.90330,0.09617,1.37908,-0.32330,,,0.55896,0.82613,-0.02930,0.06498,
9.61719,-30.25250,-33.98782,-111.27401,0.00727,1.21238,-0.17029,,,0.56107,0.82532,-0.02446,0.05876,
9.62500,-27.41205,-22.00550,-113.20706,0.16002,1.07403,-0.10104,,,0.56301,0.82452,-0.01904,0.05315,
9.63281,-24.25983,-13.50765,-112.60957,0.26612,0.98554,-0.12090,,,0.56475,0.82376,-0.01331,0.04803,
9.64063,-16.11950,6.40362,-104.06901,0.33243,0.79439,-0.25890,,,0.56599,0.82319,-0.00728,0.04437,
9.64844,-2.43682,42.06612,-97.49664,0.16494,0.67560,-0.37511,,,0.56643,0.82299,-0.00019,0.04297,
9.65625,6.15383,60.66183,-96.51254,0.03183,0.67267,-0.41772,,,0.56635,0.82303,0.00759,0.04264,
9.66406,20.77178,82.45756,-96.68827,-0.32723,0.87310,-0.29812,,,0.56540,0.82351,0.01626,0.04352,
9.67188,21.60313,77.23085,-97.14518,-0.43234,1.02465,-0.26761,,,0.56437,0.82397,0.02475,0.04408,
9.67969,7.74725,53.51511,-93.52510,-0.28155,1.24122,-0.11315,,,0.56411,0.82393,0.03209,0.04347,
9.68750,-5.69295,15.96814,-80.48581,-0.15040,0.99483,-0.09184,,,0.56463,0.82347,0.03721,0.04129,
9.69531,-1.70939,-4.51203,-77.74439,-0.15040,0.91563,-0.14026,,,0.56495,0.82321,0.04140,0.03804,
9.70313,2.23954,-28.37000,-77.21719,-0.29235,1.14344,0.00064,,,0.56509,0.82314,0.04465,0.03347,
9.71094,-15.59991,-51.58796,-72.61302,-0.13567,1.13269,-0.07732,,,0.56628,0.82242,0.04670,0.02782,
9.71875,-20.06843,-61.50804,-68.92266,-0.04185,1.08038,-0.14511,,,0.56773,0.82152,0.04815,0.02177,
9.72656,-21.14226,-71.32145,-64.28334,0.00923,1.09505,-0.14898,,,0.56923,0.82057,0.04895,0.01536,
