Gait Up - Physilog data export
Created on: YYYY-MM-DD hh:mm:ss
Total data points: 19655

Time [128 hz],Gyro [128 hz],,,Accel [128 hz],,,Baro [1 hz],,Event [128 hz],Quaternion [128 hz],,,,
Time,Gyro X,Gyro Y,Gyro Z,Accel X,Accel Y,Accel Z,Pressure,Temperature,Quat W,Quat X,Quat Y,Quat Z,
[s],[deg/s],[deg/s],[deg/s],[g],[g],[g],[mBar],[degree C],[],[],[],[],
0.00781,0.26352,0.76877,-0.25573,0.19628,0.87647,0.43865,1020.896,27.9,0.84826,0.51628,-0.11792,0.00006,
0.01563,0.36666,0.59306,-0.25573,0.19482,0.87744,0.44204,,,0.84826,0.51630,-0.11788,0.00007,
0.02344,0.33228,0.52277,-0.43075,0.20067,0.87501,0.43962,,,0.84825,0.51632,-0.11783,0.00007,
0.03125,0.19477,0.45249,-0.32574,0.20018,0.87113,0.44737,,,0.84825,0.51634,-0.11779,0.00007,
0.03906,0.19477,0.31192,-0.43075,0.20359,0.87599,0.44543,,,0.84824,0.51635,-0.11776,0.00006,
0.04688,0.19477,0.34706,-0.43075,0.20846,0.87550,0.44156,,,0.84824,0.51637,-0.11772,0.00004,
0.05469,0.16039,0.17135,-0.53577,0.20651,0.87696,0.44785,,,0.84823,0.51638,-0.11770,0.00002,
0.06250,0.05725,0.20649,-0.67579,0.20359,0.87939,0.44834,,,0.84823,0.51639,-0.11766,-0.00001,
0.07031,-0.04588,0.17135,-0.50076,0.20359,0.87501,0.44446,,,0.84824,0.51639,-0.11763,-0.00003,
0.07813,-0.11464,0.24163,-0.57078,0.20164,0.88084,0.43914,,,0.84824,0.51639,-0.11760,-0.00006,
0.08594,-0.04588,0.24163,-0.67579,0.20554,0.87987,0.44543,,,0.84824,0.51639,-0.11756,-0.00009,
0.09375,-0.18340,0.27678,-0.64079,0.20505,0.87161,0.44107,,,0.84825,0.51639,-0.11752,-0.00012,
0.10156,-0.14902,0.27678,-0.78081,0.20992,0.86772,0.43962,,,0.84826,0.51638,-0.11748,-0.00016,
0.10938,-0.14902,0.27678,-0.57078,0.20846,0.86870,0.43720,,,0.84827,0.51638,-0.11744,-0.00018,
0.11719,-0.11464,0.38220,-0.53577,0.20798,0.86578,0.43720,,,0.84828,0.51638,-0.11740,-0.00020,
0.12500,-0.08026,0.31192,-0.43075,0.20895,0.87550,0.44107,,,0.84828,0.51638,-0.11737,-0.00021,
0.13281,-0.11464,0.24163,-0.29073,0.21090,0.86772,0.44737,,,0.84829,0.51637,-0.11734,-0.00022,
0.14063,0.05725,0.55792,-0.25573,0.21236,0.87599,0.44882,,,0.84829,0.51638,-0.11730,-0.00022,
0.14844,0.09163,0.66334,-0.11571,0.20798,0.87939,0.44349,,,0.84829,0.51638,-0.11726,-0.00020,
0.15625,0.16039,0.69848,-0.22072,0.20505,0.87210,0.44301,,,0.84829,0.51639,-0.11721,-0.00019,
0.16406,0.05725,0.83905,-0.15071,0.21334,0.87647,0.44059,,,0.84830,0.51640,-0.11716,-0.00016,
0.17188,0.12601,0.83905,-0.32574,0.20408,0.87356,0.44253,,,0.84830,0.51641,-0.11710,-0.00015,
0.17969,0.02287,0.90934,-0.25573,0.20895,0.87453,0.44495,,,0.84830,0.51641,-0.11704,-0.00014,
0.18750,-0.08026,0.97962,-0.15071,0.20846,0.87453,0.44156,,,0.84832,0.51641,-0.11697,-0.00011,
0.19531,-0.08026,0.90934,-0.15071,0.20700,0.87404,0.44059,,,0.84833,0.51641,-0.11692,-0.00009,
0.20313,-0.04588,0.90934,-0.22072,0.20213,0.87550,0.44253,,,0.84833,0.51640,-0.11686,-0.00007,
0.21094,-0.18340,0.94448,-0.08070,0.20749,0.87015,0.43575,,,0.84835,0.51639,-0.11680,-0.00004,
0.21875,-0.14902,0.97962,-0.11571,0.19774,0.87064,0.44446,,,0.84836,0.51639,-0.11674,-0.00002,
0.22656,0.05725,0.87420,-0.25573,0.20554,0.86578,0.43914,,,0.84837,0.51639,-0.11668,0.00000,
0.23438,0.29790,0.69848,-0.15071,0.20213,0.86724,0.44107,,,0.84836,0.51641,-0.11663,0.00002,
0.24219,0.40104,0.62820,-0.29073,0.20359,0.86627,0.44495,,,0.84835,0.51644,-0.11659,0.00003,
0.25000,0.50417,0.59306,-0.22072,0.20067,0.86918,0.44543,,,0.84834,0.51647,-0.11654,0.00004,
0.25781,0.77920,0.45249,-0.25573,0.19872,0.87501,0.43865,,,0.84832,0.51651,-0.11651,0.00005,
0.26563,0.91671,0.41735,-0.29073,0.19677,0.87550,0.44301,,,0.84829,0.51657,-0.11647,0.00005,
0.27344,1.08860,0.45249,-0.32574,0.19920,0.87550,0.44398,,,0.84825,0.51663,-0.11644,0.00006,
0.28125,1.19173,0.48763,-0.32574,0.20505,0.87696,0.44785,,,0.84821,0.51671,-0.11640,0.00007,
0.28906,1.15736,0.55792,-0.29073,0.20603,0.87841,0.44785,,,0.84818,0.51678,-0.11635,0.00008,
0.29688,1.15736,0.55792,-0.29073,0.20554,0.87453,0.44349,,,0.84814,0.51684,-0.11631,0.00009,
0.30469,1.19173,0.55792,-0.53577,0.20456,0.87210,0.44543,,,0.84810,0.51692,-0.11626,0.00009,
0.31250,1.15736,0.66334,-0.50076,0.20798,0.87404,0.44398,,,0.84807,0.51699,-0.11621,0.00009,
0.32031,1.19173,0.76877,-0.60578,0.20262,0.87307,0.44446,,,0.84803,0.51706,-0.11614,0.00009,
0.32813,1.12298,0.87420,-0.60578,0.20408,0.87890,0.44107,,,0.84800,0.51713,-0.11607,0.00010,
0.33594,1.12298,0.97962,-0.64079,0.20018,0.87210,0.44398,,,0.84797,0.51720,-0.11599,0.00010,
0.34375,1.12298,1.04991,-0.50076,0.20603,0.87890,0.44398,,,0.84794,0.51727,-0.11591,0.00012,
0.35156,1.12298,1.26076,-0.39575,0.20164,0.86870,0.44592,,,0.84791,0.51734,-0.11582,0.00015,
0.35938,1.12298,1.36619,-0.53577,0.20115,0.87793,0.43817,,,0.84788,0.51741,-0.11573,0.00018,
0.36719,1.12298,1.57704,-0.60578,0.21041,0.87647,0.44253,,,0.84785,0.51748,-0.11561,0.00021,
0.37500,1.08860,1.57704,-0.74580,0.20700,0.87744,0.44495,,,0.84782,0.51755,-0.11550,0.00023,
0.38281,1.08860,1.57704,-0.64079,0.20700,0.87696,0.44688,,,0.84780,0.51761,-0.11538,0.00026,
0.39063,0.84795,1.50676,-0.67579,0.20359,0.88327,0.44543,,,0.84778,0.51767,-0.11527,0.00028,
0.39844,0.46979,1.40133,-0.46576,0.20359,0.88230,0.43817,,,0.84777,0.51770,-0.11517,0.00030,
0.40625,0.40104,1.22562,-0.46576,0.20456,0.88279,0.43962,,,0.84777,0.51773,-0.11509,0.00032,
0.41406,0.26352,1.26076,-0.39575,0.19872,0.89008,0.44010,,,0.84777,0.51774,-0.11500,0.00035,
0.42188,-0.18340,1.15533,-0.32574,0.20018,0.88522,0.44349,,,0.84779,0.51774,-0.11492,0.00037,
0.42969,-0.38966,1.04991,-0.36074,0.19725,0.88473,0.44495,,,0.84781,0.51772,-0.11485,0.00038,
0.43750,-0.87096,0.87420,-0.57078,0.19969,0.88279,0.43914,,,0.84785,0.51767,-0.11478,0.00037,
0.44531,-1.00847,0.62820,-0.67579,0.19774,0.87793,0.44059,,,0.84789,0.51762,-0.11472,0.00035,
0.45313,-0.93972,0.59306,-0.67579,0.19920,0.87404,0.44156,,,0.84792,0.51757,-0.11466,0.00032,
0.46094,-1.00847,0.45249,-0.78081,0.19238,0.87161,0.43865,,,0.84796,0.51752,-0.11460,0.00028,
0.46875,-0.87096,0.24163,-0.78081,0.19433,0.87453,0.43914,,,0.84800,0.51747,-0.11456,0.00024,
0.47656,-0.73345,0.17135,-0.92083,0.19579,0.86772,0.43768,,,0.84802,0.51744,-0.11452,0.00019,
0.48438,-0.35529,-0.00436,-1.06085,0.19579,0.87064,0.43720,,,0.84804,0.51743,-0.11448,0.00012,
0.49219,-0.28653,0.06592,-0.92083,0.20115,0.86821,0.43720,,,0.84805,0.51742,-0.11445,0.00007,
0.50000,-0.04588,-0.14493,-1.02584,0.19969,0.86529,0.44204,,,0.84805,0.51742,-0.11442,0.00000,
0.50781,0.29790,-0.00436,-0.95583,0.20213,0.87015,0.43768,,,0.84804,0.51745,-0.11439,-0.00005,
0.51563,0.29790,-0.03950,-1.09585,0.20164,0.87015,0.44156,,,0.84803,0.51747,-0.11435,-0.00011,
0.52344,0.22914,-0.35578,-1.02584,0.19969,0.87161,0.44156,,,0.84801,0.51749,-0.11433,-0.00018,
0.53125,0.33228,-0.28550,-0.95583,0.20164,0.87064,0.44204,,,0.84800,0.51752,-0.11432,-0.00024,
0.53906,0.19477,-0.32064,-0.95583,0.20798,0.87599,0.44301,,,0.84799,0.51754,-0.11430,-0.00031,
0.54688,0.29790,-0.49635,-0.88582,0.20554,0.87453,0.44398,,,0.84798,0.51756,-0.11430,-0.00038,
0.55469,0.36666,-0.49635,-0.88582,0.20846,0.87404,0.44592,,,0.84796,0.51759,-0.11430,-0.00044,
0.56250,0.26352,-0.53150,-0.85082,0.20651,0.87599,0.44640,,,0.84795,0.51761,-0.11430,-0.00051,
0.57031,0.22914,-0.56664,-0.85082,0.20505,0.87501,0.44640,,,0.84793,0.51763,-0.11430,-0.00057,
0.57813,0.29790,-0.56664,-0.81581,0.20554,0.87939,0.44688,,,0.84792,0.51766,-0.11430,-0.00064,
0.58594,0.29790,-0.67207,-0.85082,0.20456,0.88182,0.44446,,,0.84790,0.51768,-0.11431,-0.00071,
0.59375,0.36666,-0.49635,-0.78081,0.20359,0.87404,0.44543,,,0.84789,0.51771,-0.11431,-0.00077,
0.60156,0.29790,-0.53150,-0.71080,0.20262,0.87890,0.44059,,,0.84787,0.51773,-0.11432,-0.00083,
0.60938,0.43541,-0.46121,-0.53577,0.20749,0.87890,0.44543,,,0.84785,0.51776,-0.11433,-0.00087,
0.61719,0.40104,-0.35578,-0.57078,0.20310,0.87113,0.44253,,,0.84784,0.51779,-0.11433,-0.00091,
0.62500,0.36666,-0.21522,-0.43075,0.20651,0.88036,0.44495,,,0.84782,0.51781,-0.11432,-0.00094,
0.63281,0.33228,-0.14493,-0.43075,0.20651,0.87113,0.43914,,,0.84781,0.51783,-0.11432,-0.00097,
0.64063,0.36666,-0.10979,-0.36074,0.20554,0.87841,0.44834,,,0.84779,0.51786,-0.11431,-0.00099,
0.64844,0.50417,0.03078,-0.32574,0.20456,0.86918,0.44349,,,0.84778,0.51789,-0.11430,-0.00101,
0.65625,0.46979,0.06592,-0.32574,0.20310,0.87064,0.44592,,,0.84776,0.51792,-0.11428,-0.00102,
0.66406,0.50417,0.13621,-0.32574,0.20749,0.86772,0.44882,,,0.84774,0.51795,-0.11426,-0.00103,
0.67188,0.57293,0.27678,-0.29073,0.20651,0.87404,0.44737,,,0.84773,0.51799,-0.11424,-0.00103,
0.67969,0.50417,0.17135,-0.22072,0.21041,0.86821,0.45027,,,0.84771,0.51802,-0.11422,-0.00103,
0.68750,0.36666,0.38220,-0.25573,0.20456,0.87113,0.44834,,,0.84770,0.51804,-0.11419,-0.00103,
0.69531,0.12601,0.38220,-0.18572,0.20408,0.87356,0.45076,,,0.84770,0.51805,-0.11416,-0.00103,
0.70313,0.05725,0.20649,-0.25573,0.19969,0.87696,0.44349,,,0.84770,0.51805,-0.11414,-0.00104,
0.71094,0.05725,0.20649,-0.22072,0.20554,0.87599,0.45076,,,0.84770,0.51806,-0.11412,-0.00104,
0.71875,-0.04588,0.31192,-0.18572,0.19969,0.88133,0.44882,,,0.84770,0.51806,-0.11410,-0.00104,
0.72656,0.05725,0.41735,-0.11571,0.19969,0.87696,0.44688,,,0.84770,0.51806,-0.11407,-0.00103,
0.73438,-0.11464,0.34706,0.09432,0.20115,0.87987,0.44979,,,0.84771,0.51806,-0.11405,-0.00102,
0.74219,-0.08026,0.62820,0.12933,0.20505,0.88036,0.45027,,,0.84772,0.51805,-0.11402,-0.00099,
0.75000,-0.18340,0.80391,0.09432,0.20359,0.87501,0.44882,,,0.84773,0.51804,-0.11398,-0.00095,
0.75781,-0.14902,0.80391,0.12933,0.20067,0.87453,0.45269,,,0.84774,0.51803,-0.11393,-0.00092,
0.76563,-0.21777,0.97962,-0.04570,0.20213,0.87258,0.44785,,,0.84776,0.51802,-0.11388,-0.00089,
0.77344,-0.21777,0.94448,-0.04570,0.19920,0.87356,0.44349,,,0.84777,0.51800,-0.11382,-0.00086,
0.78125,-0.35529,0.90934,-0.08070,0.19433,0.87210,0.44688,,,0.84779,0.51798,-0.11376,-0.00084,
0.78906,-0.28653,0.66334,-0.32574,0.19872,0.86724,0.44834,,,0.84781,0.51797,-0.11371,-0.00083,
0.79688,-0.35529,0.55792,-0.39575,0.20164,0.87113,0.44592,,,0.84782,0.51795,-0.11367,-0.00084,
0.80469,-0.45842,0.66334,-0.39575,0.19677,0.87161,0.44349,,,0.84784,0.51793,-0.11361,-0.00084,
0.81250,-0.28653,0.59306,-0.57078,0.19969,0.87404,0.44882,,,0.84786,0.51792,-0.11356,-0.00086,
0.82031,-0.21777,0.55792,-0.60578,0.19872,0.87501,0.44446,,,0.84787,0.51791,-0.11351,-0.00087,
0.82813,-0.25215,0.90934,-0.60578,0.20262,0.87939,0.44349,,,0.84789,0.51790,-0.11343,-0.00088,
0.83594,-0.28653,0.80391,-0.60578,0.19725,0.87890,0.44156,,,0.84790,0.51789,-0.11336,-0.00089,
0.84375,-0.25215,1.04991,-0.81581,0.20164,0.88084,0.44349,,,0.84792,0.51788,-0.11328,-0.00090,
0.85156,-0.45842,1.01477,-0.78081,0.20554,0.87793,0.44398,,,0.84794,0.51786,-0.11319,-0.00091,
0.85938,-0.45842,0.94448,-0.81581,0.20408,0.88279,0.44446,,,0.84797,0.51784,-0.11311,-0.00093,
0.86719,-0.69907,0.83905,-0.67579,0.20262,0.87793,0.44834,,,0.84800,0.51780,-0.11303,-0.00094,
0.87500,-0.69907,0.80391,-0.85082,0.20359,0.87307,0.44253,,,0.84803,0.51777,-0.11296,-0.00097,
0.88281,-0.69907,0.76877,-0.81581,0.20018,0.86918,0.44640,,,0.84806,0.51774,-0.11288,-0.00100,
0.89063,-0.69907,0.55792,-0.92083,0.19920,0.86627,0.44253,,,0.84809,0.51770,-0.11282,-0.00103,
0.89844,-0.56156,0.59306,-0.95583,0.20213,0.86238,0.44592,,,0.84811,0.51768,-0.11275,-0.00107,
0.90625,-0.49280,0.55792,-0.92083,0.20359,0.86529,0.44059,,,0.84813,0.51766,-0.11269,-0.00111,
0.91406,-0.28653,0.41735,-0.95583,0.21187,0.86529,0.44979,,,0.84815,0.51765,-0.11263,-0.00115,
0.92188,0.02287,0.45249,-0.88582,0.20798,0.87210,0.44446,,,0.84815,0.51766,-0.11257,-0.00119,
0.92969,0.05725,0.34706,-0.81581,0.21772,0.87210,0.44785,,,0.84815,0.51767,-0.11252,-0.00122,
0.93750,0.26352,0.52277,-0.64079,0.21918,0.88036,0.44495,,,0.84815,0.51769,-0.11247,-0.00124,
0.94531,0.26352,0.62820,-0.53577,0.22162,0.87841,0.44543,,,0.84814,0.51770,-0.11241,-0.00125,
0.95313,0.19477,0.94448,-0.39575,0.21821,0.87793,0.44010,,,0.84814,0.51772,-0.11235,-0.00123,
0.96094,0.02287,1.19048,-0.08070,0.21480,0.88230,0.44495,,,0.84815,0.51772,-0.11227,-0.00120,
0.96875,-0.08026,1.47162,0.16433,0.22016,0.88036,0.43720,,,0.84816,0.51772,-0.11219,-0.00114,
0.97656,-0.04588,1.40133,0.37437,0.21285,0.87696,0.43623,,,0.84818,0.51771,-0.11213,-0.00107,
0.98438,-0.21777,1.29590,0.61940,0.20992,0.87210,0.44156,,,0.84819,0.51769,-0.11207,-0.00099,
0.99219,-0.21777,0.83905,0.82943,0.21139,0.87064,0.43962,,,0.84821,0.51767,-0.11205,-0.00091,
1.00000,-0.14902,0.80391,0.96946,0.20846,0.87113,0.44737,,,0.84822,0.51766,-0.11204,-0.00083,
1.00781,-0.08026,0.66334,1.17949,0.20164,0.86092,0.45076,1020.914,27.9,0.84823,0.51764,-0.11204,-0.00074,
1.01563,0.12601,0.48763,1.28450,0.19969,0.86384,0.44979,,,0.84823,0.51764,-0.11206,-0.00064,
1.02344,0.26352,0.45249,1.24950,0.19920,0.85946,0.44979,,,0.84822,0.51765,-0.11208,-0.00055,
1.03125,0.46979,0.55792,1.17949,0.19823,0.85995,0.44979,,,0.84821,0.51767,-0.11209,-0.00046,
1.03906,0.98547,0.41735,1.03947,0.20115,0.86238,0.45124,,,0.84818,0.51771,-0.11210,-0.00038,
1.04688,0.88233,0.48763,0.96946,0.19531,0.86043,0.45560,,,0.84815,0.51776,-0.11211,-0.00030,
1.05469,1.08860,0.34706,0.86444,0.19189,0.86724,0.45947,,,0.84811,0.51781,-0.11212,-0.00023,
1.06250,1.12298,0.69848,0.72442,0.19579,0.87064,0.45076,,,0.84808,0.51787,-0.11210,-0.00015,
1.07031,1.22611,0.66334,0.68941,0.18702,0.87064,0.45899,,,0.84804,0.51794,-0.11209,-0.00008,
1.07813,1.12298,0.55792,0.61940,0.19189,0.87599,0.45657,,,0.84801,0.51800,-0.11208,-0.00002,
1.08594,0.98547,0.59306,0.37437,0.19579,0.87501,0.46044,,,0.84798,0.51805,-0.11206,0.00003,
1.09375,0.88233,0.52277,0.44438,0.19287,0.87015,0.45608,,,0.84795,0.51810,-0.11204,0.00008,
1.10156,0.84795,0.55792,0.33936,0.19579,0.87453,0.45802,,,0.84792,0.51815,-0.11202,0.00013,
1.10938,0.84795,0.55792,0.37437,0.19433,0.87307,0.45657,,,0.84790,0.51819,-0.11200,0.00018,
1.11719,0.81357,0.55792,0.33936,0.19384,0.86967,0.45850,,,0.84787,0.51824,-0.11198,0.00022,
1.12500,0.77920,0.66334,0.30436,0.19482,0.86918,0.45560,,,0.84785,0.51828,-0.11196,0.00027,
1.13281,0.81357,0.83905,0.30436,0.20115,0.86627,0.45705,,,0.84783,0.51833,-0.11192,0.00032,
1.14063,0.77920,0.97962,0.23435,0.19725,0.86870,0.45996,,,0.84781,0.51837,-0.11187,0.00038,
1.14844,0.74482,1.01477,-0.04570,0.19774,0.87015,0.45366,,,0.84779,0.51841,-0.11181,0.00042,
1.15625,0.77920,1.22562,0.02431,0.20213,0.86821,0.45512,,,0.84777,0.51846,-0.11174,0.00047,
1.16406,0.91671,1.12019,-0.08070,0.19969,0.86870,0.45366,,,0.84775,0.51851,-0.11167,0.00051,
1.17188,0.84795,1.29590,-0.11571,0.19774,0.87210,0.45027,,,0.84773,0.51856,-0.11159,0.00056,
1.17969,0.91671,1.33105,-0.04570,0.19872,0.87404,0.45173,,,0.84770,0.51861,-0.11151,0.00061,
1.18750,0.74482,1.43647,-0.08070,0.20164,0.88036,0.45463,,,0.84769,0.51866,-0.11143,0.00066,
1.19531,0.60730,1.54190,0.05932,0.20018,0.87599,0.45705,,,0.84768,0.51869,-0.11134,0.00072,
1.20313,0.60730,1.50676,0.05932,0.20164,0.87890,0.45124,,,0.84767,0.51873,-0.11126,0.00078,
1.21094,0.53855,1.75275,0.16433,0.19920,0.86918,0.46286,,,0.84766,0.51876,-0.11116,0.00086,
1.21875,0.46979,1.75275,0.02431,0.20115,0.86772,0.45754,,,0.84766,0.51878,-0.11106,0.00093,
1.22656,0.46979,1.71761,0.02431,0.19823,0.87210,0.45802,,,0.84766,0.51881,-0.11096,0.00099,
1.23438,0.40104,1.96361,-0.15071,0.20408,0.87404,0.46044,,,0.84766,0.51883,-0.11084,0.00105,
1.24219,0.26352,1.92847,-0.29073,0.19725,0.87307,0.45657,,,0.84766,0.51885,-0.11072,0.00111,
1.25000,0.29790,1.92847,-0.22072,0.19823,0.87015,0.46189,,,0.84767,0.51887,-0.11060,0.00117,
1.25781,0.22914,1.75275,-0.32574,0.19579,0.87161,0.45657,,,0.84767,0.51889,-0.11049,0.00121,
1.26563,0.22914,1.47162,-0.39575,0.19872,0.87307,0.45512,,,0.84767,0.51890,-0.11039,0.00124,
1.27344,0.19477,1.50676,-0.29073,0.19725,0.87404,0.45269,,,0.84768,0.51892,-0.11029,0.00128,
1.28125,0.19477,1.19048,-0.22072,0.19725,0.87015,0.45996,,,0.84768,0.51893,-0.11022,0.00131,
1.28906,0.29790,1.26076,-0.25573,0.19823,0.86772,0.45899,,,0.84768,0.51895,-0.11013,0.00134,
1.29688,0.40104,1.29590,-0.18572,0.20115,0.86870,0.45705,,,0.84768,0.51897,-0.11005,0.00138,
1.30469,0.26352,1.19048,-0.15071,0.19920,0.87161,0.45560,,,0.84768,0.51899,-0.10998,0.00142,
1.31250,0.29790,1.04991,-0.32574,0.19823,0.86821,0.45850,,,0.84767,0.51901,-0.10991,0.00144,
1.32031,0.26352,0.97962,-0.32574,0.19969,0.86967,0.45560,,,0.84767,0.51903,-0.10984,0.00145,
1.32813,0.40104,0.87420,-0.39575,0.20164,0.86967,0.44979,,,0.84766,0.51905,-0.10977,0.00147,
1.33594,0.29790,0.62820,-0.39575,0.19482,0.86918,0.44930,,,0.84766,0.51907,-0.10972,0.00147,
1.34375,0.29790,0.62820,-0.36074,0.19969,0.87064,0.44834,,,0.84765,0.51909,-0.10967,0.00147,
1.35156,0.33228,0.24163,-0.46576,0.20359,0.87356,0.44882,,,0.84764,0.51911,-0.10964,0.00145,
1.35938,0.29790,0.06592,-0.50076,0.19238,0.87696,0.44543,,,0.84763,0.51914,-0.10962,0.00143,
1.36719,0.36666,-0.10979,-0.46576,0.19774,0.87501,0.45027,,,0.84762,0.51916,-0.10961,0.00140,
1.37500,0.22914,-0.35578,-0.67579,0.19920,0.87647,0.44301,,,0.84761,0.51918,-0.10961,0.00135,
1.38281,-0.01150,-0.46121,-0.71080,0.20164,0.87404,0.44785,,,0.84760,0.51918,-0.10961,0.00130,
1.39063,0.12601,-0.49635,-0.71080,0.20067,0.87453,0.44446,,,0.84760,0.51920,-0.10961,0.00124,
1.39844,0.22914,-0.60178,-0.78081,0.20798,0.87356,0.44543,,,0.84758,0.51921,-0.10962,0.00117,
1.40625,0.46979,-0.35578,-0.78081,0.20992,0.87015,0.44010,,,0.84756,0.51925,-0.10961,0.00112,
1.41406,0.43541,-0.18007,-0.74580,0.20262,0.86821,0.44543,,,0.84755,0.51928,-0.10960,0.00107,
1.42188,0.60730,0.38220,-0.78081,0.20651,0.87015,0.44495,,,0.84753,0.51932,-0.10955,0.00105,
1.42969,0.95109,0.73363,-0.64079,0.20944,0.87356,0.44204,,,0.84750,0.51938,-0.10948,0.00104,
1.43750,0.91671,0.83905,-0.60578,0.20798,0.86772,0.44592,,,0.84747,0.51944,-0.10941,0.00104,
1.44531,1.01984,1.08505,-0.43075,0.21334,0.86821,0.44785,,,0.84745,0.51950,-0.10934,0.00106,
1.45313,1.01984,1.40133,-0.29073,0.20700,0.87647,0.44640,,,0.84742,0.51956,-0.10924,0.00110,
1.46094,1.15736,1.22562,-0.18572,0.21285,0.87064,0.45076,,,0.84739,0.51963,-0.10917,0.00115,
1.46875,1.15736,1.57704,0.12933,0.21431,0.87015,0.45173,,,0.84736,0.51969,-0.10908,0.00122,
1.47656,1.36363,1.68247,0.26935,0.20651,0.86870,0.45124,,,0.84732,0.51977,-0.10899,0.00130,
1.48438,1.43238,1.68247,0.30436,0.21041,0.86967,0.45124,,,0.84729,0.51985,-0.10891,0.00139,
1.49219,1.46676,1.85818,0.44438,0.20846,0.86772,0.45269,,,0.84725,0.51993,-0.10881,0.00149,
1.50000,1.63865,1.92847,0.61940,0.20700,0.87307,0.45027,,,0.84720,0.52002,-0.10872,0.00161,
1.50781,1.60427,2.17446,0.68941,0.20359,0.87404,0.45124,,,0.84716,0.52011,-0.10862,0.00174,
1.51563,1.67303,2.31503,0.75942,0.20895,0.87113,0.45173,,,0.84712,0.52020,-0.10852,0.00188,
1.52344,1.67303,2.49074,0.68941,0.20408,0.87647,0.45221,,,0.84708,0.52029,-0.10840,0.00202,
1.53125,1.63865,2.77188,0.65441,0.20018,0.87501,0.45027,,,0.84704,0.52038,-0.10826,0.00217,
1.53906,1.56990,2.94759,0.68941,0.19628,0.87210,0.44979,,,0.84701,0.52047,-0.10811,0.00232,
1.54688,1.46676,2.98273,0.65441,0.19677,0.87210,0.44882,,,0.84698,0.52054,-0.10796,0.00248,
1.55469,1.26049,2.91245,0.65441,0.19579,0.87550,0.45076,,,0.84695,0.52061,-0.10782,0.00263,
1.56250,1.08860,2.73674,0.61940,0.19238,0.88036,0.45318,,,0.84694,0.52067,-0.10768,0.00277,
1.57031,0.81357,2.66645,0.72442,0.18848,0.87987,0.45027,,,0.84693,0.52071,-0.10755,0.00291,
1.57813,0.91671,2.42046,0.72442,0.19189,0.88230,0.44543,,,0.84691,0.52076,-0.10744,0.00304,
1.58594,0.71044,2.59617,0.65441,0.19628,0.87841,0.44834,,,0.84690,0.52079,-0.10731,0.00318,
1.59375,0.64168,2.56103,0.65441,0.19628,0.88084,0.44688,,,0.84690,0.52083,-0.10719,0.00331,
1.60156,0.43541,2.56103,0.54939,0.19774,0.87453,0.44737,,,0.84690,0.52085,-0.10706,0.00344,
1.60938,0.33228,2.63131,0.26935,0.18995,0.86821,0.44301,,,0.84691,0.52086,-0.10692,0.00355,
1.61719,0.29790,2.45560,0.16433,0.19482,0.87404,0.44640,,,0.84692,0.52088,-0.10678,0.00365,
1.62500,0.50417,2.45560,0.02431,0.19433,0.86918,0.44882,,,0.84692,0.52091,-0.10664,0.00374,
1.63281,0.77920,2.35017,-0.08070,0.19433,0.86967,0.44882,,,0.84691,0.52095,-0.10650,0.00383,
1.64063,0.84795,2.31503,-0.08070,0.19433,0.87064,0.45027,,,0.84689,0.52100,-0.10636,0.00391,
1.64844,1.01984,2.31503,-0.08070,0.20018,0.87550,0.44882,,,0.84687,0.52106,-0.10623,0.00399,
1.65625,0.95109,2.31503,0.02431,0.20018,0.87161,0.45560,,,0.84686,0.52111,-0.10609,0.00408,
1.66406,1.05422,2.38532,0.16433,0.20262,0.87647,0.44737,,,0.84684,0.52117,-0.10596,0.00419,
1.67188,0.95109,2.73674,0.16433,0.21041,0.87744,0.44446,,,0.84682,0.52123,-0.10581,0.00430,
1.67969,0.74482,2.91245,0.33936,0.21236,0.87258,0.45076,,,0.84682,0.52127,-0.10565,0.00443,
1.68750,0.77920,3.29902,0.40937,0.21285,0.87356,0.44446,,,0.84681,0.52131,-0.10548,0.00458,
1.69531,0.74482,3.54501,0.30436,0.20798,0.87453,0.44543,,,0.84681,0.52135,-0.10528,0.00472,
1.70313,0.88233,3.86129,0.23435,0.20554,0.87113,0.44688,,,0.84681,0.52139,-0.10507,0.00488,
1.71094,0.95109,4.03700,0.26935,0.20456,0.87453,0.44688,,,0.84680,0.52145,-0.10485,0.00505,
1.71875,0.84795,4.00186,0.23435,0.20554,0.86967,0.45027,,,0.84680,0.52149,-0.10462,0.00521,
1.72656,0.98547,4.10729,0.26935,0.19531,0.86432,0.44640,,,0.84680,0.52155,-0.10439,0.00538,
1.73438,1.26049,4.14243,0.19934,0.19920,0.87015,0.44688,,,0.84678,0.52161,-0.10416,0.00555,
1.74219,1.46676,3.89643,0.37437,0.19774,0.86724,0.45124,,,0.84676,0.52170,-0.10395,0.00572,
1.75000,1.63865,3.82615,0.65441,0.19628,0.87356,0.44930,,,0.84672,0.52178,-0.10375,0.00590,
1.75781,1.70741,3.79101,0.65441,0.19969,0.86821,0.45027,,,0.84669,0.52188,-0.10356,0.00609,
1.76563,1.67303,3.68558,0.75942,0.19238,0.86870,0.44398,,,0.84666,0.52197,-0.10337,0.00627,
1.77344,1.67303,3.40444,0.44438,0.18946,0.86675,0.44592,,,0.84662,0.52206,-0.10319,0.00643,
1.78125,1.67303,3.33416,0.44438,0.18848,0.87501,0.45560,,,0.84658,0.52215,-0.10301,0.00659,
1.78906,1.81054,2.84217,0.23435,0.19092,0.87550,0.45027,,,0.84654,0.52225,-0.10285,0.00672,
1.79688,1.46676,2.63131,0.12933,0.18361,0.87841,0.44882,,,0.84651,0.52233,-0.10271,0.00683,
1.80469,1.39800,2.49074,0.05932,0.18264,0.87404,0.45173,,,0.84647,0.52241,-0.10256,0.00693,
1.81250,1.19173,1.85818,0.02431,0.18653,0.87841,0.45318,,,0.84644,0.52248,-0.10246,0.00700,
1.82031,1.05422,1.50676,-0.11571,0.19141,0.87307,0.44979,,,0.84642,0.52254,-0.10236,0.00706,
1.82813,0.98547,1.29590,-0.29073,0.18946,0.87113,0.45027,,,0.84639,0.52260,-0.10228,0.00710,
1.83594,1.05422,1.04991,-0.57078,0.18605,0.86967,0.44834,,,0.84636,0.52266,-0.10220,0.00711,
1.84375,1.22611,0.69848,-0.71080,0.18653,0.86821,0.45027,,,0.84632,0.52274,-0.10213,0.00710,
1.85156,1.26049,0.52277,-0.88582,0.18507,0.87501,0.45173,,,0.84628,0.52282,-0.10207,0.00708,
1.85938,1.29487,-0.07465,-1.09585,0.18215,0.88036,0.45221,,,0.84624,0.52290,-0.10203,0.00702,
1.86719,1.15736,-0.60178,-1.16586,0.19384,0.87939,0.45269,,,0.84619,0.52298,-0.10203,0.00694,
1.87500,0.91671,-0.81263,-1.34089,0.18605,0.88084,0.44398,,,0.84615,0.52304,-0.10202,0.00684,
1.88281,0.53855,-0.98835,-1.34089,0.19092,0.87841,0.44785,,,0.84613,0.52308,-0.10203,0.00673,
1.89063,0.36666,-1.33977,-1.51592,0.19043,0.88230,0.44253,,,0.84611,0.52311,-0.10206,0.00660,
1.89844,0.26352,-1.51548,-1.62093,0.19579,0.88133,0.44543,,,0.84609,0.52314,-0.10209,0.00645,
1.90625,-0.04588,-1.76148,-1.69094,0.20067,0.87841,0.44398,,,0.84608,0.52315,-0.10213,0.00629,
1.91406,-0.11464,-1.76148,-1.76095,0.19482,0.87550,0.43914,,,0.84607,0.52315,-0.10217,0.00612,
1.92188,-0.28653,-1.86690,-1.90097,0.19872,0.87210,0.44737,,,0.84607,0.52315,-0.10221,0.00595,
1.92969,-0.21777,-2.04262,-1.93598,0.20115,0.87501,0.44640,,,0.84606,0.52315,-0.10226,0.00576,
1.93750,-0.28653,-1.97233,-2.00599,0.19969,0.87453,0.44640,,,0.84606,0.52315,-0.10230,0.00557,
1.94531,-0.04588,-2.07776,-2.00599,0.20164,0.86772,0.44543,,,0.84605,0.52316,-0.10235,0.00538,
1.95313,0.05725,-2.07776,-2.00599,0.20505,0.87258,0.44737,,,0.84603,0.52318,-0.10239,0.00519,
1.96094,0.09163,-2.07776,-1.93598,0.19774,0.87404,0.44107,,,0.84601,0.52320,-0.10245,0.00501,
1.96875,0.16039,-1.93719,-1.86597,0.20262,0.87307,0.44737,,,0.84600,0.52323,-0.10249,0.00483,
1.97656,0.05725,-1.69119,-1.76095,0.20164,0.87356,0.45076,,,0.84598,0.52324,-0.10252,0.00467,
1.98438,0.02287,-1.69119,-1.79596,0.20456,0.87356,0.44543,,,0.84597,0.52326,-0.10256,0.00451,
1.99219,0.29790,-1.62091,-1.69094,0.20651,0.87404,0.44882,,,0.84595,0.52328,-0.10259,0.00435,
2.00000,0.16039,-1.48034,-1.51592,0.20798,0.87404,0.44785,,,0.84593,0.52331,-0.10262,0.00421,
2.00781,0.16039,-1.41005,-1.55092,0.20456,0.87161,0.44688,1020.920,27.9,0.84592,0.52333,-0.10265,0.00408,
2.01563,0.29790,-1.41005,-1.37590,0.20505,0.87356,0.45027,,,0.84590,0.52335,-0.10268,0.00395,
2.02344,0.36666,-1.19920,-1.20087,0.20067,0.87113,0.44446,,,0.84588,0.52338,-0.10271,0.00384,
2.03125,0.33228,-1.26948,-1.20087,0.20018,0.87647,0.44253,,,0.84586,0.52341,-0.10274,0.00373,
2.03906,0.43541,-0.95320,-1.09585,0.20992,0.87939,0.45173,,,0.84583,0.52344,-0.10275,0.00363,
2.04688,0.40104,-1.16406,-0.99084,0.20310,0.87599,0.44882,,,0.84581,0.52347,-0.10278,0.00354,
2.05469,0.36666,-0.95320,-1.06085,0.20798,0.87647,0.44592,,,0.84579,0.52350,-0.10280,0.00344,
2.06250,0.36666,-0.70721,-0.88582,0.20408,0.87599,0.44398,,,0.84577,0.52353,-0.10281,0.00337,
2.07031,0.26352,-0.70721,-0.78081,0.20505,0.88716,0.44834,,,0.84576,0.52355,-0.10282,0.00330,
2.07813,0.22914,-0.74235,-0.71080,0.20505,0.88813,0.44688,,,0.84575,0.52357,-0.10284,0.00324,
2.08594,0.02287,-0.46121,-0.50076,0.20018,0.88425,0.44640,,,0.84574,0.52357,-0.10285,0.00319,
2.09375,-0.49280,-0.32064,-0.43075,0.20408,0.89299,0.44446,,,0.84576,0.52355,-0.10285,0.00315,
2.10156,-0.66469,-0.21522,-0.29073,0.20408,0.89348,0.44059,,,0.84578,0.52351,-0.10286,0.00312,
2.10938,-1.14599,0.13621,-0.04570,0.21480,0.89931,0.44834,,,0.84582,0.52345,-0.10285,0.00312,
2.11719,-1.76480,0.31192,0.19934,0.20700,0.89688,0.43817,,,0.84589,0.52334,-0.10284,0.00313,
2.12500,-2.03982,0.52277,0.26935,0.21041,0.89980,0.43768,,,0.84596,0.52322,-0.10282,0.00315,
2.13281,-2.65863,0.83905,0.37437,0.20895,0.90514,0.43817,,,0.84606,0.52307,-0.10278,0.00318,
2.14063,-3.51809,1.12019,0.40937,0.20359,0.89445,0.43429,,,0.84620,0.52286,-0.10273,0.00322,
2.14844,-3.82749,1.22562,0.47938,0.20456,0.89056,0.43865,,,0.84634,0.52264,-0.10268,0.00326,
2.15625,-4.27441,1.54190,0.33936,0.20213,0.88036,0.43817,,,0.84651,0.52239,-0.10260,0.00331,
2.16406,-4.13689,1.61218,0.23435,0.19677,0.86918,0.44398,,,0.84666,0.52215,-0.10252,0.00335,
2.17188,-3.89625,1.78790,0.19934,0.19677,0.86870,0.44349,,,0.84682,0.52192,-0.10242,0.00340,
2.17969,-3.38057,1.82304,-0.01069,0.19238,0.85703,0.44059,,,0.84695,0.52173,-0.10232,0.00344,
2.18750,-2.65863,1.78790,0.09432,0.19092,0.85509,0.44010,,,0.84706,0.52157,-0.10222,0.00349,
2.19531,-2.31485,1.89332,0.09432,0.19043,0.85460,0.44059,,,0.84715,0.52144,-0.10211,0.00355,
2.20313,-1.73042,1.61218,0.02431,0.18848,0.85315,0.43817,,,0.84722,0.52134,-0.10202,0.00359,
2.21094,-1.35226,1.50676,-0.08070,0.18946,0.86092,0.44592,,,0.84728,0.52126,-0.10193,0.00363,
2.21875,-1.11161,1.15533,-0.08070,0.19189,0.86043,0.44930,,,0.84733,0.52119,-0.10186,0.00366,
2.22656,-0.83658,0.87420,-0.04570,0.19384,0.86967,0.44543,,,0.84737,0.52115,-0.10181,0.00368,
2.23438,-0.63031,0.80391,-0.08070,0.19677,0.86335,0.45124,,,0.84739,0.52111,-0.10176,0.00370,
2.24219,-0.38966,0.66334,-0.15071,0.19287,0.86384,0.45608,,,0.84741,0.52109,-0.10172,0.00371,
2.25000,-0.18340,0.55792,-0.18572,0.19579,0.86529,0.45076,,,0.84742,0.52108,-0.10168,0.00372,
2.25781,-0.11464,0.45249,-0.11571,0.19482,0.86384,0.45560,,,0.84743,0.52107,-0.10165,0.00373,
2.26563,0.29790,0.48763,-0.15071,0.19725,0.86043,0.45705,,,0.84742,0.52109,-0.10162,0.00374,
2.27344,0.71044,0.24163,0.05932,0.19336,0.86238,0.45899,,,0.84740,0.52113,-0.10160,0.00376,
2.28125,0.88233,0.24163,-0.01069,0.19141,0.86043,0.45996,,,0.84737,0.52118,-0.10159,0.00377,
2.28906,1.19173,0.13621,0.05932,0.19336,0.85752,0.45608,,,0.84733,0.52125,-0.10158,0.00379,
2.29688,1.77617,-0.14493,0.02431,0.19092,0.85946,0.46093,,,0.84726,0.52135,-0.10159,0.00380,
2.30469,1.98243,-0.25036,-0.01069,0.19384,0.86043,0.46189,,,0.84719,0.52147,-0.10161,0.00380,
2.31250,2.11995,-0.46121,0.05932,0.19189,0.86481,0.46383,,,0.84711,0.52159,-0.10163,0.00380,
2.32031,2.22308,-0.39093,-0.11571,0.18653,0.86724,0.46432,,,0.84703,0.52172,-0.10165,0.00380,
2.32813,2.25746,-0.49635,-0.18572,0.18751,0.86238,0.46141,,,0.84695,0.52185,-0.10167,0.00379,
2.33594,2.22308,-0.60178,-0.32574,0.18897,0.86578,0.46093,,,0.84686,0.52198,-0.10170,0.00376,
2.34375,2.11995,-0.77749,-0.50076,0.18556,0.86384,0.45947,,,0.84678,0.52211,-0.10172,0.00372,
2.35156,2.15433,-0.91806,-0.53577,0.19043,0.86529,0.46335,,,0.84670,0.52224,-0.10176,0.00367,
2.35938,2.01681,-0.95320,-0.53577,0.18702,0.87161,0.46189,,,0.84662,0.52236,-0.10179,0.00362,
2.36719,1.87930,-0.95320,-0.57078,0.19092,0.87307,0.45754,,,0.84655,0.52247,-0.10183,0.00357,
2.37500,1.98243,-1.05863,-0.60578,0.19287,0.87744,0.46432,,,0.84647,0.52259,-0.10187,0.00351,
2.38281,1.74179,-0.88292,-0.67579,0.19238,0.87890,0.46577,,,0.84640,0.52269,-0.10189,0.00345,
2.39063,1.53552,-1.02349,-0.67579,0.19677,0.87890,0.46189,,,0.84634,0.52279,-0.10193,0.00338,
2.39844,1.50114,-1.12892,-0.85082,0.19384,0.88425,0.46093,,,0.84628,0.52288,-0.10196,0.00330,
2.40625,1.01984,-1.05863,-0.74580,0.19725,0.87890,0.45947,,,0.84624,0.52294,-0.10200,0.00323,
2.41406,0.60730,-0.95320,-0.92083,0.19141,0.87890,0.45899,,,0.84621,0.52299,-0.10202,0.00315,
2.42188,0.43541,-0.91806,-0.95583,0.19238,0.87501,0.45850,,,0.84619,0.52302,-0.10204,0.00306,
2.42969,0.16039,-1.09377,-1.20087,0.19482,0.87161,0.44979,,,0.84617,0.52304,-0.10206,0.00296,
2.43750,-0.11464,-1.37491,-1.37590,0.19238,0.86578,0.45608,,,0.84617,0.52304,-0.10209,0.00283,
2.44531,-0.18340,-1.37491,-1.51592,0.19238,0.86918,0.45366,,,0.84617,0.52304,-0.10211,0.00269,
2.45313,-0.25215,-1.55062,-1.51592,0.19287,0.86772,0.45269,,,0.84616,0.52303,-0.10215,0.00254,
2.46094,-0.49280,-1.58577,-1.72595,0.19384,0.86821,0.45415,,,0.84617,0.52302,-0.10218,0.00239,
2.46875,-0.56156,-1.65605,-1.58593,0.19384,0.86967,0.45269,,,0.84618,0.52300,-0.10222,0.00223,
2.47656,-0.63031,-1.51548,-1.65594,0.19823,0.86481,0.45269,,,0.84619,0.52297,-0.10224,0.00208,
2.48438,-0.63031,-1.30463,-1.65594,0.19872,0.87113,0.46044,,,0.84621,0.52295,-0.10226,0.00193,
2.49219,-0.52718,-1.37491,-1.62093,0.19725,0.86967,0.46093,,,0.84621,0.52293,-0.10228,0.00178,
2.50000,-0.35529,-1.48034,-1.65594,0.19677,0.86821,0.46335,,,0.84622,0.52292,-0.10231,0.00163,
2.50781,-0.32091,-1.65605,-1.51592,0.20213,0.86724,0.46141,,,0.84622,0.52291,-0.10235,0.00148,
2.51563,-0.28653,-1.65605,-1.41090,0.20359,0.87161,0.45947,,,0.84622,0.52291,-0.10240,0.00134,
2.52344,-0.35529,-1.72633,-1.41090,0.20359,0.87647,0.46528,,,0.84622,0.52290,-0.10245,0.00120,
2.53125,-0.35529,-1.72633,-1.37590,0.20310,0.87841,0.46432,,,0.84622,0.52289,-0.10250,0.00105,
2.53906,-0.56156,-1.69119,-1.37590,0.20213,0.87939,0.45754,,,0.84623,0.52286,-0.10254,0.00091,
2.54688,-0.56156,-1.51548,-1.41090,0.20505,0.87015,0.45657,,,0.84624,0.52284,-0.10258,0.00077,
2.55469,-0.69907,-1.26948,-1.48091,0.20262,0.87015,0.45850,,,0.84625,0.52281,-0.10260,0.00063,
2.56250,-0.66469,-1.30463,-1.20087,0.20213,0.87015,0.45657,,,0.84627,0.52278,-0.10263,0.00051,
2.57031,-0.59593,-0.98835,-1.37590,0.20164,0.86870,0.45173,,,0.84628,0.52276,-0.10264,0.00040,
2.57813,-0.42404,-1.02349,-1.30589,0.19725,0.86141,0.45076,,,0.84629,0.52274,-0.10266,0.00028,
2.58594,-0.21777,-1.02349,-1.16586,0.19823,0.86384,0.45463,,,0.84629,0.52274,-0.10267,0.00018,
2.59375,0.12601,-1.02349,-1.06085,0.20359,0.86821,0.44688,,,0.84628,0.52275,-0.10269,0.00008,
2.60156,0.29790,-1.02349,-1.06085,0.19628,0.87064,0.44107,,,0.84626,0.52278,-0.10272,-0.00002,
2.60938,0.46979,-1.02349,-0.74580,0.20067,0.87501,0.45221,,,0.84624,0.52281,-0.10275,-0.00009,
2.61719,0.40104,-0.91806,-0.53577,0.20944,0.87599,0.44834,,,0.84622,0.52283,-0.10278,-0.00015,
2.62500,0.46979,-0.81263,-0.46576,0.20067,0.87987,0.45076,,,0.84619,0.52286,-0.10281,-0.00021,
2.63281,0.29790,-0.63692,-0.32574,0.20115,0.87987,0.44834,,,0.84618,0.52288,-0.10284,-0.00025,
2.64063,0.36666,-0.56664,-0.22072,0.20408,0.87647,0.44930,,,0.84616,0.52291,-0.10286,-0.00028,
2.64844,0.40104,-0.46121,-0.18572,0.20603,0.87015,0.45027,,,0.84614,0.52293,-0.10288,-0.00030,
2.65625,0.50417,-0.28550,-0.29073,0.20651,0.86870,0.45124,,,0.84612,0.52296,-0.10289,-0.00032,
2.66406,0.40104,-0.18007,-0.29073,0.20456,0.86772,0.45076,,,0.84611,0.52299,-0.10289,-0.00034,
2.67188,0.50417,-0.14493,-0.22072,0.20310,0.86675,0.44349,,,0.84609,0.52302,-0.10289,-0.00036,
2.67969,0.84795,-0.07465,-0.22072,0.19482,0.86189,0.44785,,,0.84606,0.52307,-0.10289,-0.00037,
2.68750,0.77920,-0.00436,-0.08070,0.19433,0.86675,0.45173,,,0.84603,0.52311,-0.10288,-0.00037,
2.69531,0.88233,-0.07465,-0.08070,0.19433,0.86821,0.45366,,,0.84600,0.52317,-0.10288,-0.00037,
2.70313,0.91671,0.20649,0.16433,0.19433,0.87113,0.45221,,,0.84597,0.52322,-0.10288,-0.00035,
2.71094,1.01984,0.06592,0.09432,0.20115,0.87307,0.45173,,,0.84593,0.52328,-0.10288,-0.00033,
2.71875,1.01984,0.13621,0.09432,0.19920,0.87161,0.44785,,,0.84590,0.52333,-0.10287,-0.00031,
2.72656,1.01984,0.17135,-0.01069,0.19336,0.87550,0.45173,,,0.84586,0.52339,-0.10286,-0.00030,
2.73438,1.01984,0.13621,-0.08070,0.20213,0.87550,0.44979,,,0.84582,0.52345,-0.10285,-0.00029,
2.74219,1.08860,0.06592,-0.11571,0.19823,0.87550,0.45027,,,0.84579,0.52352,-0.10284,-0.00029,
2.75000,1.01984,0.13621,-0.08070,0.20262,0.87793,0.45027,,,0.84575,0.52358,-0.10283,-0.00028,
2.75781,1.05422,0.20649,-0.15071,0.19482,0.87113,0.44882,,,0.84571,0.52364,-0.10282,-0.00028,
2.76563,1.05422,0.24163,-0.11571,0.19628,0.87258,0.44785,,,0.84568,0.52370,-0.10280,-0.00027,
2.77344,0.98547,0.24163,-0.04570,0.19189,0.87258,0.45512,,,0.84565,0.52376,-0.10278,-0.00025,
2.78125,0.74482,0.34706,-0.01069,0.19628,0.87647,0.45560,,,0.84562,0.52380,-0.10276,-0.00024,
2.78906,0.57293,0.20649,-0.15071,0.19872,0.87015,0.45366,,,0.84560,0.52383,-0.10275,-0.00023,
2.79688,0.43541,0.27678,-0.18572,0.19823,0.87404,0.44882,,,0.84559,0.52386,-0.10272,-0.00023,
2.80469,0.57293,0.31192,-0.25573,0.19628,0.87307,0.45027,,,0.84557,0.52389,-0.10270,-0.00023,
2.81250,0.53855,0.34706,-0.22072,0.19189,0.87307,0.44592,,,0.84555,0.52393,-0.10267,-0.00023,
2.82031,0.60730,0.41735,-0.29073,0.19579,0.86675,0.44834,,,0.84553,0.52396,-0.10263,-0.00023,
2.82813,0.71044,0.34706,-0.39575,0.19823,0.87015,0.45027,,,0.84551,0.52401,-0.10260,-0.00023,
2.83594,0.64168,0.27678,-0.36074,0.19384,0.86918,0.44882,,,0.84549,0.52405,-0.10257,-0.00024,
2.84375,0.67606,0.17135,-0.39575,0.19336,0.87210,0.45221,,,0.84547,0.52409,-0.10255,-0.00025,
2.85156,0.74482,0.20649,-0.32574,0.20115,0.87404,0.45173,,,0.84544,0.52413,-0.10252,-0.00026,
2.85938,0.88233,0.10107,-0.46576,0.19189,0.86821,0.45512,,,0.84541,0.52419,-0.10250,-0.00027,
2.86719,0.81357,-0.10979,-0.46576,0.19336,0.87161,0.45463,,,0.84538,0.52424,-0.10249,-0.00030,
2.87500,0.74482,-0.03950,-0.60578,0.19238,0.87501,0.45850,,,0.84535,0.52429,-0.10247,-0.00033,
2.88281,0.77920,-0.32064,-0.64079,0.18995,0.86967,0.45608,,,0.84532,0.52433,-0.10247,-0.00037,
2.89063,0.71044,-0.35578,-0.53577,0.19141,0.87404,0.45657,,,0.84530,0.52438,-0.10247,-0.00041,
2.89844,0.71044,-0.42607,-0.85082,0.20018,0.87501,0.45221,,,0.84527,0.52443,-0.10246,-0.00047,
2.90625,0.60730,-0.35578,-0.81581,0.19482,0.87258,0.45366,,,0.84524,0.52447,-0.10245,-0.00052,
2.91406,0.46979,-0.35578,-0.92083,0.20213,0.87064,0.45027,,,0.84522,0.52450,-0.10244,-0.00059,
2.92188,0.53855,-0.21522,-0.88582,0.19628,0.86918,0.44930,,,0.84520,0.52454,-0.10242,-0.00064,
2.92969,0.60730,-0.28550,-0.92083,0.19725,0.87258,0.45463,,,0.84518,0.52458,-0.10241,-0.00070,
2.93750,0.50417,-0.25036,-0.92083,0.20115,0.86627,0.45221,,,0.84516,0.52461,-0.10239,-0.00076,
2.94531,0.60730,-0.25036,-0.95583,0.19579,0.86772,0.45850,,,0.84514,0.52466,-0.10237,-0.00082,
2.95313,0.64168,-0.53150,-0.71080,0.19677,0.86724,0.45318,,,0.84511,0.52470,-0.10237,-0.00088,
2.96094,0.60730,-0.74235,-0.64079,0.19969,0.86918,0.45415,,,0.84508,0.52474,-0.10239,-0.00093,
2.96875,0.91671,-0.84778,-0.64079,0.20408,0.87210,0.44930,,,0.84504,0.52479,-0.10242,-0.00100,
2.97656,0.84795,-0.81263,-0.71080,0.19969,0.87307,0.45269,,,0.84501,0.52485,-0.10244,-0.00106,
2.98438,0.60730,-1.02349,-0.64079,0.19920,0.88182,0.45415,,,0.84498,0.52489,-0.10248,-0.00113,
2.99219,0.60730,-0.91806,-0.71080,0.19823,0.87987,0.45124,,,0.84495,0.52493,-0.10250,-0.00120,
3.00000,0.26352,-0.91806,-0.81581,0.20651,0.88036,0.45269,,,0.84494,0.52495,-0.10253,-0.00128,
3.00781,0.05725,-0.74235,-0.64079,0.20164,0.88327,0.44930,1020.907,27.9,0.84493,0.52496,-0.10255,-0.00134,
3.01563,-0.04588,-0.81263,-0.71080,0.20798,0.88522,0.44446,,,0.84492,0.52496,-0.10257,-0.00141,
3.02344,-0.18340,-0.81263,-0.57078,0.19725,0.87647,0.44834,,,0.84492,0.52495,-0.10259,-0.00147,
3.03125,-0.42404,-0.70721,-0.71080,0.20749,0.87696,0.45027,,,0.84493,0.52493,-0.10261,-0.00154,
3.03906,-0.35529,-0.67207,-0.53577,0.19677,0.87210,0.45124,,,0.84494,0.52492,-0.10263,-0.00160,
3.04688,-0.25215,-0.60178,-0.57078,0.20018,0.87064,0.45366,,,0.84495,0.52491,-0.10264,-0.00166,
3.05469,-0.11464,-0.46121,-0.53577,0.20115,0.86432,0.44398,,,0.84495,0.52490,-0.10265,-0.00170,
3.06250,-0.08026,-0.42607,-0.57078,0.20262,0.86870,0.45027,,,0.84495,0.52490,-0.10266,-0.00175,
3.07031,0.19477,-0.49635,-0.43075,0.20651,0.86870,0.44834,,,0.84494,0.52492,-0.10267,-0.00179,
3.07813,0.40104,-0.25036,-0.43075,0.20408,0.87307,0.44979,,,0.84492,0.52494,-0.10267,-0.00182,
3.08594,0.50417,-0.18007,-0.32574,0.19920,0.86481,0.44688,,,0.84490,0.52497,-0.10267,-0.00185,
3.09375,0.64168,-0.18007,-0.29073,0.20067,0.87258,0.45318,,,0.84488,0.52501,-0.10267,-0.00186,
3.10156,0.53855,-0.07465,-0.15071,0.19969,0.87793,0.44834,,,0.84486,0.52504,-0.10267,-0.00187,
3.10938,0.57293,0.03078,-0.18572,0.20164,0.87696,0.44834,,,0.84484,0.52508,-0.10266,-0.00188,
3.11719,0.64168,0.20649,-0.08070,0.20651,0.87501,0.44640,,,0.84482,0.52512,-0.10264,-0.00187,
3.12500,0.60730,0.34706,-0.01069,0.20018,0.87113,0.44640,,,0.84480,0.52515,-0.10262,-0.00185,
3.13281,0.43541,0.45249,-0.08070,0.19920,0.87258,0.44398,,,0.84478,0.52518,-0.10259,-0.00184,
3.14063,0.57293,0.73363,-0.11571,0.19482,0.87064,0.44204,,,0.84477,0.52521,-0.10255,-0.00182,
3.14844,0.64168,0.87420,-0.01069,0.20067,0.87258,0.44640,,,0.84475,0.52525,-0.10250,-0.00178,
3.15625,0.91671,0.69848,0.05932,0.19336,0.86967,0.44688,,,0.84472,0.52530,-0.10246,-0.00175,
3.16406,1.05422,0.76877,0.12933,0.19920,0.87161,0.44592,,,0.84469,0.52536,-0.10242,-0.00170,
3.17188,1.15736,0.38220,0.12933,0.20018,0.87210,0.44979,,,0.84465,0.52543,-0.10240,-0.00167,
3.17969,0.95109,0.48763,0.05932,0.19433,0.87599,0.45269,,,0.84462,0.52548,-0.10238,-0.00165,
3.18750,0.98547,0.45249,-0.22072,0.19336,0.87404,0.45124,,,0.84459,0.52554,-0.10234,-0.00164,
3.19531,0.77920,0.24163,-0.43075,0.20018,0.87404,0.44785,,,0.84456,0.52559,-0.10231,-0.00165,
3.20313,0.71044,0.13621,-0.50076,0.19677,0.87647,0.44688,,,0.84454,0.52563,-0.10229,-0.00167,
3.21094,0.71044,0.17135,-0.57078,0.19774,0.87307,0.44688,,,0.84452,0.52568,-0.10226,-0.00169,
3.21875,0.81357,-0.10979,-0.81581,0.19872,0.87064,0.45124,,,0.84449,0.52573,-0.10223,-0.00173,
3.22656,0.81357,-0.21522,-0.85082,0.19579,0.87113,0.44640,,,0.84445,0.52578,-0.10222,-0.00178,
3.23438,0.81357,-0.35578,-0.74580,0.19677,0.87404,0.44882,,,0.84442,0.52583,-0.10221,-0.00183,
3.24219,0.88233,-0.46121,-0.74580,0.19969,0.87841,0.44543,,,0.84439,0.52589,-0.10221,-0.00189,
3.25000,0.88233,-0.46121,-0.88582,0.19969,0.87599,0.44688,,,0.84435,0.52595,-0.10220,-0.00195,
3.25781,0.88233,-0.63692,-0.78081,0.19774,0.87501,0.44640,,,0.84432,0.52600,-0.10221,-0.00201,
3.26563,0.88233,-0.77749,-0.71080,0.19920,0.87550,0.44495,,,0.84428,0.52606,-0.10223,-0.00207,
3.27344,0.81357,-0.84778,-0.78081,0.20067,0.87841,0.44640,,,0.84424,0.52611,-0.10225,-0.00214,
3.28125,0.71044,-0.74235,-0.81581,0.20164,0.87550,0.45173,,,0.84421,0.52616,-0.10227,-0.00221,
3.28906,0.71044,-0.88292,-0.67579,0.19872,0.87744,0.44979,,,0.84418,0.52620,-0.10229,-0.00228,
3.29688,0.77920,-0.81263,-0.85082,0.20408,0.87210,0.44882,,,0.84415,0.52625,-0.10231,-0.00235,
3.30469,0.95109,-0.67207,-0.88582,0.20603,0.86529,0.45269,,,0.84411,0.52631,-0.10232,-0.00242,
3.31250,1.12298,-0.60178,-0.74580,0.20505,0.85898,0.46044,,,0.84406,0.52638,-0.10233,-0.00248,
3.32031,1.36363,-0.77749,-0.67579,0.20115,0.85412,0.46093,,,0.84401,0.52647,-0.10235,-0.00253,
3.32813,1.74179,-0.63692,-0.64079,0.19920,0.84780,0.46093,,,0.84394,0.52657,-0.10236,-0.00258,
3.33594,1.94806,-0.77749,-0.60578,0.20554,0.85703,0.46189,,,0.84387,0.52669,-0.10238,-0.00263,
3.34375,2.22308,-0.81263,-0.46576,0.20164,0.86043,0.45996,,,0.84378,0.52682,-0.10241,-0.00267,
3.35156,2.49811,-0.91806,-0.39575,0.20067,0.86772,0.46577,,,0.84369,0.52696,-0.10245,-0.00271,
3.35938,2.39497,-0.74235,-0.29073,0.19920,0.86481,0.46528,,,0.84359,0.52710,-0.10249,-0.00273,
3.36719,2.36060,-0.60178,-0.08070,0.20213,0.87015,0.46383,,,0.84351,0.52724,-0.10252,-0.00274,
3.37500,2.25746,-0.53150,-0.04570,0.20359,0.87258,0.46383,,,0.84342,0.52737,-0.10255,-0.00275,
3.38281,2.18870,-0.56664,-0.04570,0.20262,0.87404,0.46335,,,0.84334,0.52750,-0.10258,-0.00276,
3.39063,2.05119,-0.35578,-0.08070,0.20505,0.87356,0.46335,,,0.84326,0.52761,-0.10260,-0.00276,
3.39844,1.91368,-0.18007,0.12933,0.20749,0.87696,0.46770,,,0.84319,0.52772,-0.10261,-0.00275,
3.40625,1.84492,-0.03950,0.12933,0.20408,0.87841,0.46238,,,0.84312,0.52783,-0.10262,-0.00273,
3.41406,1.43238,0.10107,0.23435,0.20895,0.88133,0.45754,,,0.84307,0.52791,-0.10262,-0.00270,
3.42188,1.19173,0.38220,0.47938,0.20700,0.88133,0.45027,,,0.84303,0.52797,-0.10262,-0.00265,
3.42969,0.91671,0.66334,0.61940,0.20359,0.88327,0.45899,,,0.84301,0.52802,-0.10260,-0.00258,
3.43750,0.53855,1.08505,0.75942,0.21480,0.88327,0.44979,,,0.84299,0.52805,-0.10257,-0.00250,
3.44531,0.22914,1.43647,1.00446,0.21187,0.88619,0.44446,,,0.84300,0.52805,-0.10252,-0.00239,
3.45313,0.02287,1.54190,1.03947,0.21236,0.87793,0.44446,,,0.84301,0.52805,-0.10247,-0.00227,
3.46094,-0.11464,2.31503,1.07447,0.21285,0.87890,0.44592,,,0.84303,0.52804,-0.10238,-0.00213,
3.46875,-0.38966,2.49074,1.28450,0.20700,0.88376,0.44398,,,0.84306,0.52800,-0.10228,-0.00197,
3.47656,-0.45842,2.80702,1.31951,0.21139,0.87744,0.44446,,,0.84309,0.52797,-0.10216,-0.00179,
3.48438,-0.63031,2.80702,1.38952,0.20603,0.87258,0.43914,,,0.84314,0.52792,-0.10205,-0.00162,
3.49219,-0.69907,2.91245,1.49453,0.19969,0.87113,0.44204,,,0.84318,0.52787,-0.10194,-0.00143,
3.50000,-0.66469,2.91245,1.45953,0.20067,0.87599,0.43865,,,0.84323,0.52783,-0.10182,-0.00125,
3.50781,-0.83658,2.87731,1.59955,0.19725,0.87356,0.44495,,,0.84328,0.52777,-0.10172,-0.00106,
3.51563,-0.66469,2.73674,1.56454,0.19287,0.87161,0.43478,,,0.84332,0.52772,-0.10162,-0.00087,
3.52344,-0.63031,2.63131,1.52954,0.19823,0.87501,0.43575,,,0.84336,0.52767,-0.10152,-0.00069,
3.53125,-0.52718,2.24475,1.49453,0.18946,0.87793,0.43720,,,0.84340,0.52763,-0.10144,-0.00053,
3.53906,-0.56156,1.64733,1.21449,0.18458,0.88036,0.43575,,,0.84343,0.52759,-0.10139,-0.00041,
3.54688,-0.56156,1.61218,1.14448,0.18069,0.87841,0.43865,,,0.84346,0.52755,-0.10134,-0.00029,
3.55469,-0.42404,0.87420,0.58440,0.17679,0.87793,0.44010,,,0.84348,0.52752,-0.10131,-0.00022,
3.56250,-0.42404,0.34706,0.33936,0.17289,0.87793,0.43817,,,0.84350,0.52749,-0.10130,-0.00020,
3.57031,-0.28653,-0.14493,-0.01069,0.17191,0.87696,0.44010,,,0.84351,0.52748,-0.10131,-0.00020,
3.57813,-0.28653,-0.60178,-0.29073,0.17533,0.87696,0.44204,,,0.84351,0.52746,-0.10134,-0.00024,
3.58594,-0.42404,-1.19920,-0.74580,0.17581,0.87744,0.43720,,,0.84352,0.52744,-0.10138,-0.00033,
3.59375,-0.52718,-1.51548,-0.92083,0.18117,0.88182,0.43623,,,0.84353,0.52742,-0.10143,-0.00044,
3.60156,-0.52718,-1.97233,-1.20087,0.18361,0.87501,0.44156,,,0.84353,0.52740,-0.10150,-0.00059,
3.60938,-0.25215,-2.18318,-1.69094,0.18361,0.87599,0.43672,,,0.84353,0.52739,-0.10157,-0.00076,
3.61719,-0.35529,-2.14804,-1.76095,0.18312,0.86918,0.44446,,,0.84352,0.52739,-0.10163,-0.00095,
3.62500,-0.11464,-2.46432,-1.97099,0.19482,0.86870,0.43962,,,0.84351,0.52739,-0.10170,-0.00115,
3.63281,0.19477,-2.53461,-2.18102,0.19628,0.87550,0.43865,,,0.84349,0.52742,-0.10177,-0.00136,
3.64063,0.22914,-2.74546,-2.25103,0.20213,0.87258,0.44834,,,0.84346,0.52745,-0.10184,-0.00159,
3.64844,0.50417,-2.85089,-2.32104,0.19482,0.87404,0.44495,,,0.84342,0.52749,-0.10192,-0.00182,
3.65625,0.53855,-2.85089,-2.35604,0.19969,0.87453,0.44495,,,0.84338,0.52754,-0.10200,-0.00206,
3.66406,0.64168,-2.71032,-2.35604,0.20700,0.87307,0.44785,,,0.84334,0.52759,-0.10207,-0.00229,
3.67188,0.95109,-2.85089,-2.28603,0.20603,0.87890,0.44737,,,0.84329,0.52766,-0.10216,-0.00251,
3.67969,0.91671,-2.95632,-2.25103,0.21236,0.87501,0.44592,,,0.84323,0.52773,-0.10225,-0.00274,
3.68750,0.81357,-2.78060,-2.11101,0.20846,0.87599,0.44688,,,0.84318,0.52779,-0.10233,-0.00296,
3.69531,0.91671,-2.46432,-1.97099,0.21187,0.87890,0.45463,,,0.84313,0.52786,-0.10240,-0.00315,
3.70313,0.84795,-2.32375,-1.97099,0.21334,0.87453,0.44785,,,0.84308,0.52792,-0.10246,-0.00334,
3.71094,0.67606,-2.07776,-1.90097,0.21675,0.87841,0.45221,,,0.84304,0.52797,-0.10251,-0.00352,
3.71875,0.64168,-1.72633,-1.72595,0.21382,0.87501,0.44737,,,0.84301,0.52802,-0.10255,-0.00368,
3.72656,0.43541,-1.58577,-1.69094,0.21382,0.87599,0.44979,,,0.84298,0.52806,-0.10258,-0.00383,
3.73438,0.53855,-1.05863,-1.55092,0.21285,0.87161,0.45318,,,0.84295,0.52810,-0.10259,-0.00395,
3.74219,0.50417,-0.81263,-1.41090,0.21431,0.86724,0.45366,,,0.84293,0.52814,-0.10258,-0.00406,
3.75000,0.43541,-0.77749,-1.30589,0.20846,0.86821,0.45173,,,0.84291,0.52817,-0.10258,-0.00416,
3.75781,0.67606,-0.67207,-1.09585,0.20651,0.86141,0.45173,,,0.84288,0.52822,-0.10258,-0.00424,
3.76563,0.74482,-0.56664,-0.81581,0.20798,0.86675,0.45366,,,0.84285,0.52826,-0.10258,-0.00431,
3.77344,0.88233,-0.49635,-0.81581,0.20798,0.86724,0.45076,,,0.84281,0.52832,-0.10258,-0.00436,
3.78125,0.88233,-0.53150,-0.60578,0.20067,0.86870,0.45608,,,0.84278,0.52838,-0.10259,-0.00441,
3.78906,0.81357,-0.53150,-0.64079,0.20603,0.86627,0.45512,,,0.84274,0.52843,-0.10260,-0.00446,
3.79688,0.81357,-0.42607,-0.57078,0.20798,0.86967,0.45173,,,0.84271,0.52848,-0.10260,-0.00451,
3.80469,0.57293,-0.21522,-0.53577,0.20992,0.86675,0.45173,,,0.84269,0.52851,-0.10260,-0.00454,
3.81250,0.57293,-0.14493,-0.39575,0.21090,0.86821,0.45221,,,0.84267,0.52855,-0.10259,-0.00456,
3.82031,0.43541,-0.03950,-0.36074,0.20798,0.87015,0.45124,,,0.84265,0.52858,-0.10258,-0.00458,
3.82813,0.57293,-0.00436,-0.15071,0.20749,0.86675,0.45221,,,0.84263,0.52861,-0.10258,-0.00459,
3.83594,0.40104,0.17135,-0.25573,0.20651,0.86772,0.45415,,,0.84262,0.52864,-0.10256,-0.00459,
3.84375,0.40104,0.03078,-0.18572,0.20213,0.86870,0.45560,,,0.84260,0.52866,-0.10255,-0.00460,
3.85156,0.50417,0.03078,-0.25573,0.20651,0.86627,0.45366,,,0.84259,0.52869,-0.10254,-0.00461,
3.85938,0.53855,0.03078,-0.11571,0.19725,0.87404,0.45318,,,0.84257,0.52872,-0.10253,-0.00461,
3.86719,0.50417,-0.00436,-0.08070,0.20164,0.87550,0.45560,,,0.84255,0.52875,-0.10253,-0.00461,
3.87500,0.43541,0.03078,0.09432,0.20408,0.87696,0.46093,,,0.84253,0.52878,-0.10253,-0.00460,
3.88281,0.50417,-0.03950,0.16433,0.20213,0.87453,0.45754,,,0.84251,0.52880,-0.10254,-0.00459,
3.89063,0.40104,0.06592,0.16433,0.20067,0.88133,0.45463,,,0.84250,0.52883,-0.10254,-0.00458,
3.89844,0.33228,-0.00436,0.12933,0.20262,0.87841,0.45366,,,0.84249,0.52884,-0.10255,-0.00457,
3.90625,0.26352,-0.07465,-0.08070,0.19872,0.87258,0.45076,,,0.84248,0.52886,-0.10255,-0.00457,
3.91406,0.05725,-0.07465,-0.18572,0.20310,0.86967,0.45076,,,0.84248,0.52886,-0.10255,-0.00459,
3.92188,0.02287,-0.10979,-0.25573,0.19531,0.87356,0.45463,,,0.84247,0.52887,-0.10254,-0.00460,
3.92969,-0.01150,0.17135,-0.46576,0.20115,0.87307,0.45076,,,0.84248,0.52887,-0.10252,-0.00463,
3.93750,-0.01150,0.03078,-0.36074,0.19579,0.86286,0.44688,,,0.84248,0.52887,-0.10250,-0.00464,
3.94531,0.02287,0.31192,-0.39575,0.19384,0.87015,0.44737,,,0.84248,0.52888,-0.10247,-0.00466,
3.95313,0.19477,0.31192,-0.53577,0.19287,0.87210,0.45173,,,0.84247,0.52889,-0.10243,-0.00467,
3.96094,0.19477,0.31192,-0.43075,0.19823,0.87404,0.44640,,,0.84247,0.52890,-0.10240,-0.00469,
3.96875,0.33228,0.03078,-0.50076,0.19823,0.87258,0.44349,,,0.84246,0.52893,-0.10238,-0.00471,
3.97656,0.09163,0.06592,-0.43075,0.20018,0.87307,0.44979,,,0.84245,0.52894,-0.10236,-0.00473,
3.98438,0.12601,-0.00436,-0.60578,0.19774,0.87550,0.44301,,,0.84245,0.52895,-0.10234,-0.00477,
3.99219,0.05725,-0.28550,-0.60578,0.19628,0.87890,0.45173,,,0.84244,0.52895,-0.10233,-0.00481,
4.00000,-0.08026,-0.21522,-0.57078,0.19482,0.87307,0.44737,,,0.84245,0.52895,-0.10233,-0.00485,
4.00781,-0.04588,-0.42607,-0.85082,0.19482,0.87501,0.45269,1020.881,27.9,0.84244,0.52896,-0.10232,-0.00492,
4.01563,-0.04588,-0.53150,-0.95583,0.19920,0.87550,0.44107,,,0.84244,0.52896,-0.10232,-0.00499,
4.02344,-0.01150,-0.67207,-1.02584,0.19920,0.87744,0.44349,,,0.84244,0.52897,-0.10232,-0.00508,
4.03125,-0.01150,-0.70721,-0.99084,0.20164,0.87550,0.44398,,,0.84243,0.52897,-0.10232,-0.00516,
4.03906,0.02287,-0.39093,-1.02584,0.20359,0.87647,0.44398,,,0.84243,0.52898,-0.10231,-0.00523,
4.04688,0.02287,-0.28550,-0.99084,0.19920,0.87599,0.44010,,,0.84242,0.52899,-0.10229,-0.00530,
4.05469,0.02287,-0.14493,-0.92083,0.20456,0.87356,0.44834,,,0.84242,0.52900,-0.10226,-0.00536,
4.06250,0.26352,-0.14493,-0.71080,0.20310,0.87258,0.44592,,,0.84241,0.52902,-0.10225,-0.00540,
4.07031,0.36666,0.06592,-0.81581,0.20213,0.86724,0.44253,,,0.84240,0.52904,-0.10221,-0.00544,
4.07813,0.43541,-0.03950,-0.74580,0.20310,0.87307,0.44737,,,0.84238,0.52907,-0.10219,-0.00548,
4.08594,0.60730,-0.00436,-0.88582,0.20456,0.87841,0.44543,,,0.84236,0.52912,-0.10216,-0.00553,
4.09375,0.57293,-0.18007,-0.78081,0.20505,0.87599,0.44495,,,0.84234,0.52915,-0.10214,-0.00558,
4.10156,0.53855,-0.14493,-0.46576,0.20895,0.87307,0.44592,,,0.84232,0.52919,-0.10213,-0.00561,
4.10938,0.60730,-0.10979,-0.60578,0.20456,0.87161,0.44495,,,0.84229,0.52923,-0.10212,-0.00564,
4.11719,0.67606,-0.00436,-0.46576,0.20700,0.87258,0.44979,,,0.84227,0.52927,-0.10210,-0.00566,
4.12500,0.53855,0.06592,-0.50076,0.20505,0.87890,0.44592,,,0.84225,0.52930,-0.10208,-0.00568,
4.13281,0.67606,0.06592,-0.43075,0.20992,0.87356,0.44543,,,0.84223,0.52934,-0.10206,-0.00570,
4.14063,0.60730,0.13621,-0.22072,0.21090,0.87258,0.44204,,,0.84221,0.52938,-0.10204,-0.00571,
4.14844,0.60730,0.24163,-0.25573,0.20798,0.87550,0.44882,,,0.84219,0.52942,-0.10202,-0.00571,
4.15625,0.67606,0.38220,-0.11571,0.20505,0.87550,0.44301,,,0.84216,0.52946,-0.10199,-0.00570,
4.16406,0.71044,0.24163,-0.18572,0.20262,0.86967,0.44688,,,0.84214,0.52950,-0.10197,-0.00569,
4.17188,0.67606,0.55792,-0.18572,0.20359,0.87453,0.44834,,,0.84212,0.52954,-0.10194,-0.00568,
4.17969,0.88233,0.31192,-0.22072,0.20505,0.87113,0.44301,,,0.84209,0.52959,-0.10191,-0.00567,
4.18750,0.77920,0.34706,-0.15071,0.20651,0.87453,0.44834,,,0.84206,0.52964,-0.10189,-0.00566,
4.19531,0.81357,0.38220,-0.15071,0.20554,0.88084,0.45221,,,0.84204,0.52969,-0.10186,-0.00565,
4.20313,0.71044,0.38220,-0.15071,0.20505,0.87890,0.45124,,,0.84201,0.52973,-0.10183,-0.00564,
4.21094,0.67606,0.41735,-0.08070,0.20700,0.88230,0.44737,,,0.84199,0.52977,-0.10181,-0.00563,
4.21875,0.50417,0.41735,-0.08070,0.20067,0.88522,0.44930,,,0.84198,0.52980,-0.10178,-0.00561,
4.22656,0.33228,0.34706,-0.11571,0.20213,0.87987,0.44495,,,0.84197,0.52982,-0.10175,-0.00561,
4.23438,0.16039,0.34706,-0.18572,0.19823,0.87793,0.44495,,,0.84196,0.52983,-0.10173,-0.00560,
4.24219,0.19477,0.34706,-0.15071,0.20505,0.88036,0.44785,,,0.84196,0.52984,-0.10170,-0.00560,
4.25000,0.02287,0.20649,-0.15071,0.19969,0.87453,0.44834,,,0.84196,0.52984,-0.10169,-0.00560,
4.25781,-0.01150,0.34706,-0.15071,0.20213,0.87210,0.44688,,,0.84196,0.52984,-0.10166,-0.00559,
4.26563,-0.21777,0.48763,-0.25573,0.19725,0.87307,0.44010,,,0.84197,0.52983,-0.10162,-0.00559,
4.27344,-0.01150,0.52277,-0.32574,0.19920,0.86529,0.44592,,,0.84198,0.52983,-0.10158,-0.00559,
4.28125,0.05725,0.31192,-0.43075,0.19969,0.86627,0.44495,,,0.84198,0.52984,-0.10155,-0.00561,
4.28906,0.22914,0.27678,-0.50076,0.20018,0.87258,0.44495,,,0.84197,0.52986,-0.10151,-0.00562,
4.29688,0.36666,0.20649,-0.43075,0.19531,0.87793,0.44737,,,0.84196,0.52988,-0.10149,-0.00564,
4.30469,0.40104,0.20649,-0.43075,0.19531,0.87404,0.44737,,,0.84195,0.52991,-0.10146,-0.00565,
4.31250,0.36666,-0.00436,-0.46576,0.18897,0.87404,0.45608,,,0.84193,0.52993,-0.10144,-0.00568,
4.32031,0.26352,-0.25036,-0.29073,0.19238,0.88327,0.44785,,,0.84192,0.52995,-0.10145,-0.00570,
4.32813,0.29790,-0.28550,-0.39575,0.18946,0.87841,0.44785,,,0.84191,0.52997,-0.10145,-0.00573,
4.33594,0.12601,-0.60178,-0.60578,0.19774,0.87307,0.44979,,,0.84190,0.52998,-0.10146,-0.00579,
4.34375,0.02287,-0.56664,-0.60578,0.19287,0.87501,0.45173,,,0.84189,0.52998,-0.10147,-0.00584,
4.35156,0.12601,-0.63692,-0.88582,0.19725,0.87356,0.45173,,,0.84188,0.53000,-0.10148,-0.00592,
4.35938,0.16039,-0.77749,-0.95583,0.19238,0.87113,0.44592,,,0.84187,0.53001,-0.10149,-0.00600,
4.36719,0.12601,-0.74235,-1.09585,0.19628,0.87015,0.44834,,,0.84186,0.53003,-0.10149,-0.00609,
4.37500,0.29790,-0.81263,-1.20087,0.19677,0.87258,0.44592,,,0.84185,0.53005,-0.10149,-0.00618,
4.38281,0.29790,-0.91806,-1.13086,0.19336,0.86870,0.44543,,,0.84183,0.53008,-0.10151,-0.00628,
4.39063,0.40104,-0.98835,-1.09585,0.19920,0.86918,0.45124,,,0.84181,0.53011,-0.10152,-0.00637,
4.39844,0.46979,-0.98835,-1.20087,0.20018,0.86918,0.44834,,,0.84178,0.53014,-0.10154,-0.00648,
4.40625,0.40104,-1.02349,-1.30589,0.20408,0.87696,0.45221,,,0.84176,0.53017,-0.10155,-0.00658,
4.41406,0.36666,-1.09377,-1.16586,0.20067,0.87307,0.45366,,,0.84174,0.53020,-0.10157,-0.00669,
4.42188,0.36666,-1.05863,-1.20087,0.19920,0.87744,0.44785,,,0.84172,0.53023,-0.10159,-0.00679,
4.42969,0.29790,-0.98835,-1.16586,0.20456,0.88084,0.44882,,,0.84170,0.53026,-0.10160,-0.00689,
4.43750,0.12601,-0.91806,-0.99084,0.20018,0.88230,0.44785,,,0.84169,0.53027,-0.10162,-0.00698,
4.44531,-0.04588,-0.81263,-1.06085,0.20700,0.87987,0.45027,,,0.84168,0.53027,-0.10163,-0.00707,
4.45313,-0.18340,-0.77749,-1.02584,0.20992,0.87793,0.45173,,,0.84168,0.53027,-0.10163,-0.00716,
4.46094,-0.21777,-0.77749,-0.99084,0.20603,0.87404,0.45076,,,0.84169,0.53026,-0.10164,-0.00725,
4.46875,-0.35529,-0.60178,-1.06085,0.20944,0.87793,0.45027,,,0.84170,0.53025,-0.10164,-0.00733,
4.47656,-0.49280,-0.53150,-0.95583,0.20700,0.87647,0.44688,,,0.84171,0.53023,-0.10163,-0.00741,
4.48438,-0.42404,-0.49635,-0.92083,0.20992,0.87356,0.44834,,,0.84172,0.53021,-0.10163,-0.00748,
4.49219,-0.52718,-0.18007,-0.85082,0.20115,0.86529,0.44592,,,0.84174,0.53019,-0.10161,-0.00754,
4.50000,-0.49280,-0.32064,-0.74580,0.20505,0.86675,0.45221,,,0.84175,0.53016,-0.10160,-0.00760,
4.50781,-0.45842,-0.10979,-0.78081,0.20359,0.86967,0.44688,,,0.84177,0.53014,-0.10158,-0.00765,
4.51563,-0.25215,-0.18007,-0.71080,0.20603,0.87113,0.45027,,,0.84178,0.53013,-0.10156,-0.00770,
4.52344,-0.21777,0.10107,-0.60578,0.20408,0.86967,0.44495,,,0.84178,0.53012,-0.10154,-0.00773,
4.53125,0.02287,-0.07465,-0.67579,0.20603,0.87550,0.44785,,,0.84178,0.53013,-0.10152,-0.00778,
4.53906,-0.01150,-0.07465,-0.64079,0.20408,0.87356,0.45269,,,0.84178,0.53013,-0.10150,-0.00782,
4.54688,0.09163,0.03078,-0.57078,0.20505,0.87258,0.45269,,,0.84178,0.53014,-0.10147,-0.00785,
4.55469,0.12601,0.10107,-0.39575,0.20164,0.87404,0.44979,,,0.84177,0.53015,-0.10145,-0.00786,
4.56250,0.12601,-0.00436,-0.50076,0.20115,0.87793,0.45463,,,0.84177,0.53016,-0.10144,-0.00789,
4.57031,0.09163,-0.21522,-0.46576,0.20359,0.87647,0.45173,,,0.84176,0.53017,-0.10143,-0.00793,
4.57813,0.22914,0.03078,-0.46576,0.20408,0.87647,0.44979,,,0.84176,0.53019,-0.10141,-0.00795,
4.58594,0.19477,0.10107,-0.32574,0.20603,0.87307,0.44979,,,0.84175,0.53020,-0.10140,-0.00796,
4.59375,0.19477,0.24163,-0.36074,0.21187,0.87453,0.44592,,,0.84174,0.53021,-0.10137,-0.00797,
4.60156,0.12601,0.45249,-0.29073,0.20408,0.87501,0.45076,,,0.84174,0.53022,-0.10133,-0.00797,
4.60938,0.33228,0.55792,-0.25573,0.20651,0.87258,0.44640,,,0.84173,0.53024,-0.10129,-0.00797,
4.61719,0.22914,0.62820,-0.11571,0.20700,0.87647,0.45027,,,0.84173,0.53026,-0.10125,-0.00795,
4.62500,0.29790,0.55792,-0.15071,0.21041,0.87064,0.44785,,,0.84172,0.53028,-0.10121,-0.00793,
4.63281,0.36666,0.76877,0.09432,0.20262,0.87501,0.44834,,,0.84172,0.53030,-0.10117,-0.00790,
4.64063,0.33228,0.76877,-0.04570,0.20505,0.87599,0.44930,,,0.84171,0.53032,-0.10113,-0.00787,
4.64844,0.43541,0.73363,-0.11571,0.20505,0.87550,0.44882,,,0.84170,0.53034,-0.10108,-0.00785,
4.65625,0.40104,0.73363,-0.08070,0.20456,0.87550,0.44495,,,0.84169,0.53037,-0.10104,-0.00782,
4.66406,0.29790,0.66334,-0.11571,0.19774,0.87453,0.44495,,,0.84168,0.53039,-0.10100,-0.00780,
4.67188,0.33228,0.76877,-0.11571,0.19189,0.87696,0.44495,,,0.84168,0.53041,-0.10095,-0.00778,
4.67969,0.26352,0.76877,-0.11571,0.19872,0.87161,0.44834,,,0.84167,0.53042,-0.10090,-0.00776,
4.68750,0.19477,0.41735,-0.29073,0.19531,0.87356,0.44979,,,0.84167,0.53044,-0.10086,-0.00776,
4.69531,0.22914,0.45249,-0.18572,0.19482,0.87599,0.44543,,,0.84166,0.53045,-0.10083,-0.00775,
4.70313,0.22914,0.31192,-0.32574,0.18897,0.87890,0.44930,,,0.84166,0.53047,-0.10080,-0.00776,
4.71094,0.19477,0.27678,-0.39575,0.19189,0.87744,0.45415,,,0.84165,0.53048,-0.10077,-0.00777,
4.71875,0.12601,0.20649,-0.50076,0.19579,0.87550,0.44640,,,0.84165,0.53049,-0.10074,-0.00779,
4.72656,0.02287,-0.07465,-0.64079,0.19287,0.87015,0.44785,,,0.84165,0.53050,-0.10072,-0.00783,
4.73438,0.05725,-0.28550,-0.74580,0.19384,0.87015,0.44785,,,0.84164,0.53050,-0.10071,-0.00788,
4.74219,0.12601,-0.14493,-0.88582,0.19579,0.86870,0.45173,,,0.84163,0.53052,-0.10069,-0.00794,
4.75000,0.22914,-0.35578,-0.88582,0.19628,0.87161,0.45269,,,0.84162,0.53054,-0.10068,-0.00800,
4.75781,0.26352,-0.42607,-1.02584,0.19287,0.87307,0.44592,,,0.84161,0.53056,-0.10067,-0.00807,
4.76563,0.50417,-0.46121,-1.06085,0.20018,0.87453,0.45173,,,0.84159,0.53059,-0.10065,-0.00814,
4.77344,0.46979,-0.67207,-0.99084,0.19725,0.87744,0.45027,,,0.84157,0.53063,-0.10066,-0.00822,
4.78125,0.40104,-0.70721,-1.02584,0.19774,0.87404,0.45657,,,0.84155,0.53066,-0.10066,-0.00830,
4.78906,0.33228,-0.63692,-0.92083,0.20262,0.88182,0.44979,,,0.84153,0.53068,-0.10066,-0.00838,
4.79688,0.12601,-0.70721,-1.06085,0.20310,0.88376,0.44979,,,0.84152,0.53070,-0.10067,-0.00846,
4.80469,0.05725,-0.70721,-0.99084,0.20456,0.87987,0.45124,,,0.84151,0.53071,-0.10067,-0.00854,
4.81250,-0.18340,-0.63692,-1.13086,0.20798,0.87307,0.44882,,,0.84151,0.53070,-0.10067,-0.00863,
4.82031,-0.25215,-0.67207,-1.13086,0.20262,0.86772,0.44592,,,0.84152,0.53070,-0.10066,-0.00873,
4.82813,-0.32091,-0.70721,-1.30589,0.20164,0.86772,0.44979,,,0.84152,0.53069,-0.10066,-0.00883,
4.83594,-0.11464,-0.98835,-1.44591,0.19823,0.86432,0.44688,,,0.84152,0.53069,-0.10066,-0.00895,
4.84375,-0.01150,-1.33977,-1.23588,0.19725,0.86627,0.45269,,,0.84151,0.53070,-0.10069,-0.00907,
4.85156,0.05725,-1.48034,-1.30589,0.19677,0.86286,0.45173,,,0.84150,0.53071,-0.10073,-0.00919,
4.85938,0.16039,-1.58577,-1.41090,0.19336,0.86529,0.45705,,,0.84148,0.53072,-0.10077,-0.00933,
4.86719,0.29790,-1.79662,-1.30589,0.19384,0.86384,0.45512,,,0.84146,0.53075,-0.10083,-0.00947,
4.87500,0.40104,-1.97233,-1.30589,0.19531,0.87210,0.45463,,,0.84143,0.53078,-0.10089,-0.00961,
4.88281,0.29790,-2.18318,-1.34089,0.19433,0.87258,0.45463,,,0.84140,0.53081,-0.10097,-0.00977,
4.89063,0.29790,-2.53461,-1.34089,0.19287,0.87258,0.45512,,,0.84137,0.53083,-0.10107,-0.00993,
4.89844,0.29790,-2.46432,-1.48091,0.20115,0.87599,0.45802,,,0.84134,0.53086,-0.10116,-0.01011,
4.90625,0.16039,-2.67518,-1.58593,0.20164,0.87453,0.45754,,,0.84132,0.53087,-0.10125,-0.01029,
4.91406,-0.04588,-2.71032,-1.72595,0.20603,0.88036,0.46432,,,0.84130,0.53088,-0.10135,-0.01049,
4.92188,-0.04588,-2.64003,-1.69094,0.20164,0.87258,0.45560,,,0.84128,0.53089,-0.10144,-0.01068,
4.92969,-0.04588,-2.42918,-1.69094,0.19774,0.87744,0.45269,,,0.84127,0.53089,-0.10151,-0.01087,
4.93750,-0.25215,-2.53461,-1.72595,0.19920,0.87307,0.45415,,,0.84126,0.53089,-0.10160,-0.01106,
4.94531,-0.28653,-2.49947,-1.72595,0.20554,0.86724,0.45366,,,0.84125,0.53088,-0.10168,-0.01125,
4.95313,-0.38966,-2.46432,-1.69094,0.20262,0.86918,0.44979,,,0.84124,0.53087,-0.10176,-0.01144,
4.96094,-0.42404,-2.60489,-1.76095,0.19969,0.87113,0.45415,,,0.84124,0.53086,-0.10184,-0.01164,
4.96875,-0.49280,-2.49947,-1.62093,0.20456,0.87015,0.45318,,,0.84124,0.53084,-0.10193,-0.01183,
4.97656,-0.49280,-2.49947,-1.58593,0.20700,0.87064,0.45124,,,0.84124,0.53082,-0.10201,-0.01201,
4.98438,-0.38966,-2.42918,-1.55092,0.21090,0.86821,0.44930,,,0.84123,0.53081,-0.10210,-0.01219,
4.99219,-0.38966,-2.18318,-1.58593,0.21382,0.86967,0.45318,,,0.84123,0.53079,-0.10216,-0.01236,
5.00000,-0.25215,-2.07776,-1.51592,0.20408,0.86675,0.44785,,,0.84122,0.53079,-0.10223,-0.01253,
5.00781,-0.01150,-1.93719,-1.44591,0.20944,0.86772,0.45269,1020.912,27.9,0.84121,0.53079,-0.10229,-0.01268,
5.01563,-0.04588,-1.69119,-1.34089,0.20603,0.86870,0.45705,,,0.84120,0.53080,-0.10233,-0.01282,
5.02344,-0.08026,-1.55062,-1.20087,0.19969,0.87161,0.46044,,,0.84119,0.53080,-0.10238,-0.01294,
5.03125,0.05725,-1.30463,-1.06085,0.20846,0.86675,0.45076,,,0.84118,0.53081,-0.10242,-0.01305,
5.03906,0.02287,-1.16406,-0.95583,0.20067,0.86967,0.45754,,,0.84117,0.53082,-0.10245,-0.01315,
5.04688,-0.04588,-1.09377,-1.02584,0.20359,0.87210,0.45221,,,0.84116,0.53082,-0.10247,-0.01325,
5.05469,0.05725,-0.88292,-0.81581,0.20749,0.87064,0.44640,,,0.84115,0.53083,-0.10250,-0.01332,
5.06250,-0.01150,-0.67207,-0.60578,0.20456,0.87210,0.45366,,,0.84115,0.53083,-0.10251,-0.01338,
5.07031,-0.01150,-0.53150,-0.60578,0.20944,0.87064,0.44979,,,0.84114,0.53084,-0.10252,-0.01344,
5.07813,0.02287,-0.46121,-0.57078,0.20651,0.87307,0.44882,,,0.84114,0.53084,-0.10253,-0.01349,
5.08594,0.12601,-0.32064,-0.39575,0.20651,0.87307,0.44834,,,0.84113,0.53085,-0.10253,-0.01352,
5.09375,0.19477,-0.00436,-0.15071,0.20408,0.87015,0.44979,,,0.84112,0.53086,-0.10253,-0.01353,
5.10156,0.29790,0.10107,-0.08070,0.20456,0.87113,0.45076,,,0.84111,0.53088,-0.10252,-0.01353,
5.10938,0.43541,0.45249,-0.04570,0.19725,0.86918,0.45705,,,0.84110,0.53091,-0.10249,-0.01351,
5.11719,0.64168,0.62820,0.02431,0.20164,0.87307,0.45221,,,0.84108,0.53094,-0.10246,-0.01348,
5.12500,0.71044,0.59306,0.12933,0.20213,0.87210,0.45221,,,0.84106,0.53098,-0.10243,-0.01345,
5.13281,0.84795,0.66334,0.02431,0.19920,0.86918,0.45415,,,0.84104,0.53103,-0.10239,-0.01342,
5.14063,0.91671,0.76877,-0.01069,0.19384,0.87550,0.45415,,,0.84101,0.53109,-0.10235,-0.01338,
5.14844,0.84795,0.76877,-0.11571,0.19433,0.87647,0.45269,,,0.84098,0.53114,-0.10230,-0.01336,
5.15625,0.67606,0.73363,-0.15071,0.19336,0.87647,0.45560,,,0.84096,0.53118,-0.10225,-0.01333,
5.16406,0.57293,0.80391,-0.36074,0.19677,0.87356,0.45124,,,0.84095,0.53121,-0.10219,-0.01332,
5.17188,0.46979,0.66334,-0.25573,0.19628,0.87744,0.44688,,,0.84094,0.53124,-0.10215,-0.01331,
5.17969,0.53855,0.55792,-0.22072,0.19725,0.87015,0.45124,,,0.84092,0.53127,-0.10211,-0.01330,
5.18750,0.53855,0.66334,-0.32574,0.20018,0.86918,0.45269,,,0.84090,0.53131,-0.10206,-0.01329,
5.19531,0.60730,0.66334,-0.32574,0.19579,0.86481,0.45608,,,0.84089,0.53135,-0.10201,-0.01328,
5.20313,0.81357,0.48763,-0.39575,0.20018,0.86675,0.45076,,,0.84086,0.53140,-0.10197,-0.01328,
5.21094,0.88233,0.34706,-0.67579,0.19725,0.87404,0.45124,,,0.84083,0.53145,-0.10192,-0.01330,
5.21875,0.88233,0.27678,-0.67579,0.19677,0.87356,0.45076,,,0.84080,0.53151,-0.10189,-0.01332,
5.22656,0.81357,0.17135,-0.81581,0.19628,0.87599,0.45027,,,0.84077,0.53156,-0.10185,-0.01335,
5.23438,0.81357,0.13621,-0.67579,0.20115,0.87890,0.45027,,,0.84074,0.53161,-0.10182,-0.01338,
5.24219,0.67606,0.10107,-0.85082,0.19920,0.87696,0.45027,,,0.84072,0.53165,-0.10178,-0.01342,
5.25000,0.53855,0.31192,-0.81581,0.19774,0.87696,0.44882,,,0.84070,0.53169,-0.10173,-0.01345,
5.25781,0.50417,0.38220,-0.88582,0.20554,0.87307,0.44204,,,0.84068,0.53173,-0.10168,-0.01349,
5.26563,0.36666,0.34706,-0.95583,0.20310,0.87501,0.44930,,,0.84067,0.53175,-0.10162,-0.01353,
5.27344,0.33228,0.27678,-0.95583,0.20456,0.87550,0.44882,,,0.84066,0.53178,-0.10157,-0.01357,
5.28125,0.29790,0.27678,-0.95583,0.20456,0.86967,0.44785,,,0.84065,0.53180,-0.10152,-0.01361,
5.28906,0.33228,0.20649,-0.95583,0.20115,0.86627,0.44592,,,0.84064,0.53183,-0.10148,-0.01366,
5.29688,0.29790,0.13621,-0.78081,0.20554,0.86967,0.44156,,,0.84063,0.53185,-0.10144,-0.01369,
5.30469,0.36666,-0.03950,-0.81581,0.20798,0.87307,0.44543,,,0.84061,0.53188,-0.10142,-0.01374,
5.31250,0.40104,0.03078,-0.74580,0.20798,0.87064,0.44930,,,0.84060,0.53191,-0.10139,-0.01378,
5.32031,0.46979,-0.03950,-0.78081,0.20895,0.86967,0.44930,,,0.84058,0.53194,-0.10136,-0.01382,
5.32813,0.60730,-0.03950,-0.64079,0.20262,0.87161,0.45512,,,0.84056,0.53198,-0.10134,-0.01386,
5.33594,0.53855,-0.10979,-0.57078,0.21139,0.87210,0.44930,,,0.84054,0.53201,-0.10133,-0.01389,
5.34375,0.46979,-0.10979,-0.46576,0.20164,0.87501,0.45269,,,0.84052,0.53204,-0.10132,-0.01392,
5.35156,0.53855,-0.18007,-0.46576,0.20700,0.87550,0.45124,,,0.84050,0.53208,-0.10131,-0.01395,
5.35938,0.53855,-0.14493,-0.39575,0.20700,0.87404,0.44979,,,0.84048,0.53211,-0.10131,-0.01397,
5.36719,0.46979,-0.03950,-0.36074,0.20408,0.87696,0.44979,,,0.84046,0.53214,-0.10130,-0.01399,
5.37500,0.64168,0.17135,-0.29073,0.20213,0.87258,0.44688,,,0.84044,0.53218,-0.10128,-0.01399,
5.38281,0.50417,-0.00436,-0.25573,0.20700,0.87453,0.44592,,,0.84042,0.53221,-0.10127,-0.01401,
5.39063,0.64168,0.06592,-0.32574,0.20067,0.86821,0.44398,,,0.84039,0.53225,-0.10125,-0.01402,
5.39844,0.64168,-0.18007,-0.36074,0.20262,0.86724,0.45076,,,0.84037,0.53229,-0.10125,-0.01404,
5.40625,0.77920,-0.25036,-0.29073,0.20262,0.86967,0.44979,,,0.84034,0.53233,-0.10125,-0.01406,
5.41406,0.84795,-0.28550,-0.18572,0.19969,0.87113,0.45221,,,0.84031,0.53238,-0.10127,-0.01408,
5.42188,1.01984,-0.35578,-0.25573,0.20067,0.87113,0.45124,,,0.84027,0.53244,-0.10128,-0.01410,
5.42969,1.01984,-0.28550,-0.36074,0.20115,0.86675,0.45366,,,0.84023,0.53250,-0.10128,-0.01412,
5.43750,1.08860,-0.35578,-0.43075,0.19482,0.87404,0.45027,,,0.84019,0.53257,-0.10129,-0.01415,
5.44531,1.22611,-0.25036,-0.43075,0.19531,0.87356,0.44930,,,0.84014,0.53264,-0.10129,-0.01418,
5.45313,1.22611,-0.42607,-0.53577,0.19287,0.88084,0.45318,,,0.84009,0.53272,-0.10129,-0.01421,
5.46094,1.08860,-0.35578,-0.53577,0.19774,0.88716,0.45366,,,0.84005,0.53278,-0.10130,-0.01425,
5.46875,0.81357,-0.39093,-0.53577,0.19628,0.87890,0.45560,,,0.84002,0.53283,-0.10130,-0.01429,
5.47656,0.77920,-0.60178,-0.53577,0.19920,0.88473,0.44737,,,0.83998,0.53288,-0.10131,-0.01434,
5.48438,0.40104,-0.46121,-0.64079,0.19823,0.88182,0.45415,,,0.83996,0.53291,-0.10132,-0.01439,
5.49219,0.36666,-0.46121,-0.64079,0.20359,0.88182,0.45124,,,0.83995,0.53293,-0.10132,-0.01444,
5.50000,0.26352,-0.39093,-0.74580,0.20213,0.87356,0.44930,,,0.83993,0.53295,-0.10132,-0.01449,
5.50781,0.05725,-0.35578,-0.74580,0.20164,0.87307,0.44882,,,0.83993,0.53296,-0.10131,-0.01455,
5.51563,0.12601,-0.42607,-0.88582,0.20262,0.87161,0.45027,,,0.83992,0.53297,-0.10130,-0.01461,
5.52344,0.16039,-0.39093,-0.81581,0.20359,0.87064,0.44930,,,0.83991,0.53298,-0.10130,-0.01467,
5.53125,0.19477,-0.53150,-0.74580,0.20359,0.87453,0.45269,,,0.83990,0.53300,-0.10130,-0.01473,
5.53906,0.16039,-0.42607,-0.78081,0.20115,0.87647,0.45173,,,0.83989,0.53301,-0.10130,-0.01479,
5.54688,0.02287,-0.32064,-0.74580,0.20115,0.87599,0.44688,,,0.83989,0.53302,-0.10129,-0.01485,
5.55469,-0.14902,-0.07465,-0.71080,0.19969,0.87599,0.44737,,,0.83989,0.53302,-0.10127,-0.01489,
5.56250,-0.04588,-0.00436,-0.60578,0.20164,0.87890,0.45124,,,0.83989,0.53302,-0.10124,-0.01493,
5.57031,-0.14902,0.20649,-0.53577,0.20505,0.87793,0.45269,,,0.83990,0.53301,-0.10121,-0.01495,
5.57813,-0.21777,0.34706,-0.60578,0.20651,0.87939,0.45027,,,0.83991,0.53301,-0.10117,-0.01497,
5.58594,-0.32091,0.31192,-0.50076,0.20554,0.87647,0.44737,,,0.83992,0.53299,-0.10113,-0.01499,
5.59375,-0.49280,0.38220,-0.57078,0.20895,0.87696,0.44737,,,0.83994,0.53297,-0.10109,-0.01502,
5.60156,-0.63031,0.48763,-0.46576,0.20554,0.87113,0.45221,,,0.83997,0.53293,-0.10105,-0.01503,
5.60938,-0.52718,0.62820,-0.36074,0.20798,0.87647,0.44737,,,0.83999,0.53291,-0.10100,-0.01503,
5.61719,-0.52718,0.97962,-0.25573,0.21236,0.87210,0.44834,,,0.84002,0.53288,-0.10093,-0.01501,
5.62500,-0.56156,1.08505,-0.22072,0.21285,0.87841,0.44446,,,0.84004,0.53285,-0.10086,-0.01499,
5.63281,-0.63031,1.33105,-0.11571,0.20798,0.88716,0.44253,,,0.84008,0.53282,-0.10078,-0.01495,
5.64063,-0.83658,1.50676,0.02431,0.21090,0.88279,0.44834,,,0.84012,0.53277,-0.10069,-0.01490,
5.64844,-1.04285,1.92847,0.09432,0.21139,0.88619,0.43672,,,0.84017,0.53271,-0.10058,-0.01483,
5.65625,-1.11161,2.06903,0.05932,0.21382,0.88959,0.43042,,,0.84022,0.53265,-0.10047,-0.01476,
5.66406,-1.62728,2.10418,0.19934,0.21382,0.88668,0.43720,,,0.84030,0.53256,-0.10035,-0.01469,
5.67188,-1.76480,2.35017,0.23435,0.20603,0.88570,0.43139,,,0.84038,0.53246,-0.10022,-0.01460,
5.67969,-2.07420,2.49074,0.09432,0.20408,0.89299,0.42558,,,0.84047,0.53234,-0.10008,-0.01452,
5.68750,-2.48674,2.63131,0.16433,0.20749,0.89008,0.42994,,,0.84058,0.53220,-0.09994,-0.01443,
5.69531,-2.69301,2.73674,0.05932,0.20749,0.88911,0.42848,,,0.84069,0.53205,-0.09978,-0.01435,
5.70313,-2.79614,2.87731,-0.01069,0.20798,0.88327,0.42558,,,0.84081,0.53189,-0.09961,-0.01426,
5.71094,-2.83052,3.15845,-0.04570,0.20700,0.88279,0.42122,,,0.84094,0.53173,-0.09943,-0.01417,
5.71875,-2.79614,3.47473,0.02431,0.20992,0.88668,0.41880,,,0.84106,0.53157,-0.09922,-0.01406,
5.72656,-3.00241,3.93158,0.09432,0.20213,0.89056,0.42267,,,0.84120,0.53140,-0.09900,-0.01393,
5.73438,-3.10555,4.14243,0.33936,0.20164,0.88716,0.41880,,,0.84134,0.53123,-0.09877,-0.01378,
5.74219,-3.10555,4.24786,0.33936,0.19969,0.89445,0.42122,,,0.84148,0.53105,-0.09854,-0.01363,
5.75000,-3.20868,4.28300,0.19934,0.19725,0.89639,0.42364,,,0.84163,0.53087,-0.09830,-0.01349,
5.75781,-3.79311,4.95070,0.12933,0.19336,0.89785,0.42461,,,0.84180,0.53066,-0.09801,-0.01332,
5.76563,-4.10252,5.30213,-0.01069,0.18264,0.89348,0.41638,,,0.84198,0.53042,-0.09770,-0.01316,
5.77344,-4.20565,6.25097,-0.50076,0.18215,0.89348,0.41541,,,0.84217,0.53019,-0.09732,-0.01299,
5.78125,-3.99938,7.69180,-0.88582,0.17776,0.90174,0.41396,,,0.84237,0.52998,-0.09685,-0.01279,
5.78906,-3.79311,8.28922,-1.06085,0.17191,0.89494,0.41202,,,0.84256,0.52977,-0.09633,-0.01258,
5.79688,-3.44933,10.29233,-1.90097,0.15632,0.90028,0.40863,,,0.84275,0.52959,-0.09567,-0.01234,
5.80469,-2.93366,12.99829,-2.46106,0.14414,0.89397,0.41105,,,0.84294,0.52945,-0.09483,-0.01203,
5.81250,-2.38360,14.12285,-3.02114,0.13927,0.89202,0.41638,,,0.84311,0.52935,-0.09391,-0.01171,
5.82031,-0.90534,15.77453,-3.86127,0.12123,0.89591,0.42461,,,0.84324,0.52933,-0.09286,-0.01137,
5.82813,0.74482,17.21537,-4.77141,0.10856,0.90660,0.43962,,,0.84332,0.52942,-0.09170,-0.01101,
5.83594,1.46676,18.02364,-5.12146,0.09882,0.91049,0.43768,,,0.84337,0.52955,-0.09048,-0.01065,
5.84375,2.46373,19.56990,-6.13661,0.10272,0.90611,0.45221,,,0.84340,0.52974,-0.08913,-0.01028,
5.85156,4.01075,19.88618,-6.73170,0.09151,0.90077,0.48901,,,0.84337,0.53003,-0.08775,-0.00992,
5.85938,4.38891,19.46448,-7.01174,0.09443,0.90952,0.49434,,,0.84332,0.53033,-0.08638,-0.00960,
5.86719,4.90459,17.56679,-7.11676,0.06568,0.91972,0.50208,,,0.84324,0.53067,-0.08511,-0.00934,
5.87500,4.66394,15.45825,-7.22177,0.04863,0.92847,0.49918,,,0.84316,0.53099,-0.08397,-0.00917,
5.88281,4.45767,14.33370,-7.36179,0.04668,0.93478,0.50983,,,0.84308,0.53129,-0.08288,-0.00905,
5.89063,3.87324,11.66288,-8.02689,0.02231,0.92993,0.49288,,,0.84300,0.53157,-0.08192,-0.00907,
5.89844,2.94503,9.44892,-9.18207,0.02329,0.90806,0.48175,,,0.84294,0.53179,-0.08105,-0.00924,
5.90625,2.25746,8.78121,-10.16221,0.02767,0.88862,0.49385,,,0.84290,0.53199,-0.08017,-0.00949,
5.91406,0.91671,6.84839,-12.71760,0.02572,0.84294,0.49821,,,0.84289,0.53211,-0.07932,-0.00997,
5.92188,1.26049,3.58015,-15.51802,0.03498,0.80649,0.51371,,,0.84285,0.53227,-0.07855,-0.01072,
5.92969,1.63865,2.13932,-17.05825,0.02475,0.79094,0.52872,,,0.84279,0.53246,-0.07781,-0.01162,
5.93750,2.77313,-1.05863,-19.75365,0.05350,0.75498,0.52484,,,0.84267,0.53272,-0.07716,-0.01278,
5.94531,3.87324,-5.20542,-22.23903,0.04814,0.72583,0.52194,,,0.84248,0.53305,-0.07665,-0.01422,
5.95313,3.97637,-8.12223,-23.67424,0.06763,0.70056,0.50451,,,0.84227,0.53340,-0.07626,-0.01586,
5.96094,4.21702,-12.79616,-26.61468,0.08810,0.66363,0.49966,,,0.84202,0.53376,-0.07603,-0.01783,
5.96875,6.96728,-15.92383,-30.53527,0.10759,0.64370,0.51322,,,0.84165,0.53430,-0.07584,-0.02012,
5.97656,8.96122,-16.06440,-32.53057,0.11880,0.62767,0.50693,,,0.84119,0.53496,-0.07559,-0.02253,
5.98438,16.24941,-15.99411,-35.99609,0.15876,0.64613,0.45415,,,0.84046,0.53605,-0.07522,-0.02509,
5.99219,24.19079,-14.13157,-37.78136,0.22796,0.68889,0.42703,,,0.83943,0.53760,-0.07469,-0.02765,
6.00000,27.80051,-12.51502,-37.95638,0.25817,0.72728,0.41928,,,0.83827,0.53936,-0.07407,-0.03014,
6.00781,35.19183,-9.70364,-36.34614,0.32249,0.82204,0.40379,1020.880,27.9,0.83685,0.54153,-0.07336,-0.03240,
6.01563,40.93300,-7.41939,-32.18052,0.35563,0.95374,0.40040,,,0.83522,0.54401,-0.07268,-0.03430,
6.02344,42.06748,-5.90827,-29.45011,0.37415,0.99699,0.39846,,,0.83356,0.54653,-0.07203,-0.03599,
6.03125,42.06748,-2.28861,-23.28918,0.37317,1.09223,0.40379,,,0.83192,0.54903,-0.07139,-0.03719,
6.03906,39.79852,1.04991,-16.32314,0.35222,1.13597,0.37135,,,0.83039,0.55136,-0.07082,-0.03788,
6.04688,37.90771,1.71761,-12.92763,0.35709,1.15492,0.38733,,,0.82894,0.55357,-0.07034,-0.03836,
6.05469,30.86017,2.56103,-6.34664,0.32298,1.14131,0.37958,,,0.82777,0.55535,-0.07003,-0.03848,
6.06250,23.57198,3.29902,-0.88582,0.25573,1.11167,0.40718,,,0.82689,0.55670,-0.06988,-0.03829,
6.07031,20.92485,4.07215,1.10948,0.24063,1.09369,0.42025,,,0.82611,0.55788,-0.06974,-0.03797,
6.07813,18.14022,5.68869,3.69987,0.15388,1.04072,0.45463,,,0.82546,0.55890,-0.06961,-0.03746,
6.08594,17.93395,5.82926,4.39997,0.08712,1.00185,0.46141,,,0.82481,0.55990,-0.06950,-0.03691,
6.09375,17.00573,5.44270,4.04992,0.06130,0.96880,0.46625,,,0.82420,0.56085,-0.06939,-0.03639,
6.10156,13.94607,4.07215,2.36967,0.03255,0.87647,0.44010,,,0.82369,0.56163,-0.06928,-0.03604,
6.10938,13.39602,1.04991,1.35451,0.05252,0.84148,0.43962,,,0.82319,0.56238,-0.06931,-0.03586,
6.11719,13.53353,-0.63692,-0.29073,0.06081,0.75012,0.41396,,,0.82266,0.56314,-0.06937,-0.03583,
6.12500,16.11190,-3.90516,-1.51592,0.07202,0.75158,0.39362,,,0.82202,0.56404,-0.06957,-0.03599,
6.13281,16.59319,-4.92428,-1.79596,0.07445,0.76956,0.37813,,,0.82136,0.56497,-0.06982,-0.03620,
6.14063,16.28379,-6.08398,-1.79596,0.08712,0.80504,0.36554,,,0.82070,0.56587,-0.07013,-0.03646,
6.14844,15.73374,-7.59510,-2.35604,0.07884,0.84780,0.36021,,,0.82005,0.56674,-0.07050,-0.03681,
6.15625,14.94304,-8.78994,-3.19617,0.09102,0.86141,0.35149,,,0.81942,0.56757,-0.07091,-0.03726,
6.16406,12.67407,-11.42561,-5.19147,0.10856,0.93430,0.32486,,,0.81886,0.56828,-0.07138,-0.03793,
6.17188,8.47993,-12.55016,-6.38165,0.13147,0.97560,0.29436,,,0.81845,0.56875,-0.07185,-0.03873,
6.17969,5.59215,-11.95275,-6.59168,0.14755,0.99067,0.29000,,,0.81816,0.56906,-0.07228,-0.03953,
6.18750,0.88233,-10.19563,-6.48666,0.16363,0.99747,0.28225,,,0.81806,0.56911,-0.07260,-0.04029,
6.19531,-2.38360,-9.00079,-5.89157,0.19287,1.02274,0.28564,,,0.81809,0.56899,-0.07286,-0.04098,
6.20313,-4.34316,-7.70053,-5.47151,0.20067,1.01011,0.29000,,,0.81820,0.56875,-0.07307,-0.04160,
6.21094,-7.64348,-4.04573,-5.05145,0.22211,0.98921,0.27692,,,0.81846,0.56834,-0.07308,-0.04208,
6.21875,-8.64045,-0.77749,-5.96158,0.23819,0.94839,0.28516,,,0.81878,0.56788,-0.07287,-0.04248,
6.22656,-9.19050,1.01477,-6.80171,0.23721,0.94450,0.27741,,,0.81912,0.56740,-0.07252,-0.04287,
6.23438,-10.63439,4.59928,-8.34194,0.25622,0.89008,0.27063,,,0.81953,0.56687,-0.07191,-0.04321,
6.24219,-9.32801,8.28922,-9.91718,0.24404,0.83662,0.24981,,,0.81990,0.56642,-0.07104,-0.04349,
6.25000,-7.40283,10.08148,-10.79231,0.25086,0.81864,0.23819,,,0.82020,0.56609,-0.07003,-0.04374,
6.25781,-4.30879,14.50941,-11.77246,0.24014,0.80504,0.23964,,,0.82040,0.56594,-0.06875,-0.04386,
6.26563,-0.97410,18.90220,-12.61258,0.23575,0.80066,0.24497,,,0.82049,0.56600,-0.06721,-0.04384,
6.27344,0.50417,21.15131,-12.85762,0.22893,0.80309,0.25175,,,0.82053,0.56615,-0.06553,-0.04374,
6.28125,3.94200,25.68466,-12.33254,0.22016,0.82059,0.24545,,,0.82045,0.56650,-0.06363,-0.04342,
6.28906,8.34241,29.40975,-10.89732,0.22162,0.84829,0.26966,,,0.82022,0.56710,-0.06159,-0.04286,
6.29688,10.30197,30.78030,-9.77716,0.22406,0.87210,0.27402,,,0.81992,0.56781,-0.05952,-0.04217,
6.30469,13.70542,33.27540,-7.71185,0.22065,0.90368,0.29436,,,0.81950,0.56870,-0.05740,-0.04125,
6.31250,16.11190,35.10280,-5.71655,0.21285,0.92993,0.30017,,,0.81899,0.56972,-0.05526,-0.04015,
6.32031,16.93698,35.73536,-4.66639,0.21041,0.94159,0.31615,,,0.81846,0.57078,-0.05313,-0.03896,
6.32813,17.55578,35.45422,-3.05615,0.21723,0.95422,0.33116,,,0.81789,0.57186,-0.05108,-0.03769,
6.33594,17.62454,34.85681,-1.23588,0.21041,0.99796,0.35779,,,0.81732,0.57294,-0.04914,-0.03633,
6.34375,15.28682,34.61081,-0.50076,0.20164,1.01594,0.39168,,,0.81683,0.57387,-0.04723,-0.03496,
6.35156,9.27063,30.99115,0.75942,0.15973,1.02420,0.40815,,,0.81657,0.57446,-0.04555,-0.03367,
6.35938,7.65485,26.49294,1.70457,0.09541,1.02809,0.37813,,,0.81635,0.57494,-0.04416,-0.03252,
6.36719,6.24534,25.19267,1.84459,0.08712,1.03052,0.38975,,,0.81619,0.57534,-0.04285,-0.03141,
6.37500,-2.07420,21.64330,0.68941,0.06666,0.97415,0.37667,,,0.81633,0.57527,-0.04166,-0.03053,
6.38281,-4.75570,15.31768,-1.41090,0.04473,0.95519,0.34520,,,0.81656,0.57504,-0.04075,-0.03002,
6.39063,-6.71526,12.64687,-2.42605,0.04814,0.94888,0.35440,,,0.81685,0.57470,-0.03993,-0.02968,
6.39844,-12.31892,8.28922,-4.70140,0.04180,0.90563,0.35827,,,0.81735,0.57404,-0.03926,-0.02965,
6.40625,-18.23198,5.47784,-7.81686,0.08615,0.82447,0.51516,,,0.81806,0.57305,-0.03862,-0.02992,
6.41406,-20.43219,4.14243,-10.23222,0.05106,0.74915,0.48126,,,0.81885,0.57195,-0.03794,-0.03038,
6.42188,-15.75675,-2.42918,-14.95793,0.00184,0.74575,0.69819,,,0.81942,0.57110,-0.03746,-0.03135,
6.42969,-14.45037,-9.84421,-18.42345,-0.10926,0.72000,0.89575,,,0.81992,0.57032,-0.03726,-0.03280,
6.43750,-11.08130,-14.30728,-19.19357,-0.19210,0.71368,0.88994,,,0.82027,0.56972,-0.03729,-0.03446,
6.44531,1.67303,-23.37399,-16.25313,-0.37094,0.84683,0.76404,,,0.82011,0.56979,-0.03797,-0.03627,
6.45313,11.36770,-31.10530,-5.85657,-0.43137,1.01205,0.66333,,,0.81957,0.57036,-0.03951,-0.03778,
6.46094,13.05223,-33.77612,1.52954,-0.41480,1.07134,0.60086,,,0.81897,0.57100,-0.04149,-0.03897,
6.46875,14.15234,-36.06037,17.87699,-0.26910,1.11410,0.45463,,,0.81837,0.57164,-0.04423,-0.03934,
6.47656,14.42736,-36.20094,25.68316,-0.16530,1.07668,0.43429,,,0.81776,0.57227,-0.04729,-0.03927,
6.48438,16.00876,-34.61953,36.39477,0.09395,0.95665,0.41977,,,0.81712,0.57295,-0.05069,-0.03854,
6.49219,18.55275,-31.07016,40.03532,0.30446,0.84926,0.40573,,,0.81638,0.57376,-0.05403,-0.03746,
6.50000,20.51232,-30.12132,39.72027,0.35271,0.83371,0.40524,,,0.81557,0.57467,-0.05731,-0.03635,
6.50781,22.60939,-30.15646,36.63981,0.37074,0.88084,0.44446,,,0.81465,0.57570,-0.06048,-0.03540,
6.51563,20.58107,-27.38022,31.14398,0.31372,0.92895,0.43526,,,0.81380,0.57665,-0.06327,-0.03466,
6.52344,21.02799,-26.15024,27.67846,0.26938,0.97075,0.45221,,,0.81292,0.57763,-0.06586,-0.03407,
6.53125,17.93395,-21.58174,20.15233,0.18946,1.03975,0.46964,,,0.81216,0.57848,-0.06789,-0.03372,
6.53906,14.53050,-17.54037,12.87124,0.10564,1.08494,0.49821,,,0.81154,0.57919,-0.06941,-0.03363,
6.54688,13.29288,-15.22098,9.65076,0.05399,1.12090,0.49385,,,0.81096,0.57984,-0.07066,-0.03363,
6.55469,9.88943,-12.47988,5.13508,-0.00108,1.15200,0.49046,,,0.81052,0.58033,-0.07158,-0.03380,
6.56250,4.73270,-9.91449,3.69987,-0.01375,1.14229,0.47739,,,0.81030,0.58055,-0.07228,-0.03396,
6.57031,3.18567,-8.82508,3.73487,-0.01229,1.10147,0.45608,,,0.81013,0.58069,-0.07292,-0.03409,
6.57813,2.84189,-7.91138,4.75002,0.00964,1.04947,0.41832,,,0.80999,0.58081,-0.07355,-0.03412,
6.58594,4.38891,-8.19252,6.67531,0.05496,0.99358,0.40476,,,0.80979,0.58100,-0.07428,-0.03406,
6.59375,5.24837,-8.12223,7.72547,0.07738,0.96394,0.39168,,,0.80956,0.58123,-0.07505,-0.03393,
6.60156,7.44858,-8.93051,9.37072,0.13244,0.91632,0.39459,,,0.80924,0.58157,-0.07593,-0.03373,
6.60938,7.86112,-9.03593,10.24585,0.14901,0.87404,0.39459,,,0.80891,0.58193,-0.07685,-0.03348,
6.61719,7.58609,-8.75480,10.03582,0.14511,0.85752,0.39023,,,0.80858,0.58227,-0.07775,-0.03323,
6.62500,6.69226,-8.22766,7.90050,0.12172,0.84731,0.39362,,,0.80829,0.58258,-0.07853,-0.03309,
6.63281,5.55777,-7.94652,4.75002,0.11003,0.85849,0.38248,,,0.80804,0.58284,-0.07917,-0.03311,
6.64063,4.73270,-7.48967,3.17479,0.08664,0.85849,0.37280,,,0.80782,0.58307,-0.07972,-0.03321,
6.64844,3.94200,-8.26280,0.51439,0.07543,0.86141,0.37231,,,0.80762,0.58327,-0.08021,-0.03349,
6.65625,3.42632,-8.57908,-0.99084,0.10662,0.85849,0.37038,,,0.80743,0.58344,-0.08065,-0.03386,
6.66406,2.84189,-8.71965,-1.51592,0.10954,0.84877,0.37183,,,0.80727,0.58358,-0.08107,-0.03428,
6.67188,2.22308,-9.70364,-2.11101,0.13293,0.83711,0.37813,,,0.80712,0.58369,-0.08153,-0.03477,
6.67969,1.70741,-10.37134,-1.76095,0.14024,0.84780,0.38248,,,0.80699,0.58377,-0.08203,-0.03527,
6.68750,1.53552,-11.21476,-1.51592,0.14511,0.85558,0.38297,,,0.80686,0.58384,-0.08259,-0.03579,
6.69531,-0.18340,-13.28815,-0.46576,0.13293,0.84829,0.37958,,,0.80680,0.58380,-0.08331,-0.03634,
6.70313,-0.38966,-16.59153,1.14448,0.11441,0.86529,0.37619,,,0.80672,0.58373,-0.08426,-0.03694,
6.71094,-1.07723,-18.17293,1.66956,0.09638,0.87501,0.37764,,,0.80666,0.58361,-0.08533,-0.03758,
6.71875,-3.99938,-20.49233,2.40467,0.08371,0.86432,0.36554,,,0.80671,0.58333,-0.08654,-0.03829,
6.72656,-5.51203,-22.31973,2.50969,0.07592,0.85266,0.37231,,,0.80680,0.58295,-0.08785,-0.03907,
6.73438,-6.19959,-23.19828,2.12463,0.07835,0.83565,0.36941,,,0.80691,0.58253,-0.08919,-0.03991,
6.74219,-7.02467,-24.92026,0.61940,0.09979,0.82642,0.37570,,,0.80704,0.58207,-0.09057,-0.04091,
6.75000,-7.19656,-26.00967,-1.27088,0.11100,0.81621,0.37377,,,0.80716,0.58161,-0.09193,-0.04206,
6.75781,-6.99029,-26.64223,-2.04100,0.11344,0.82302,0.37909,,,0.80726,0.58116,-0.09330,-0.04327,
6.76563,-7.12780,-27.66136,-3.93128,0.12562,0.82399,0.38587,,,0.80736,0.58071,-0.09464,-0.04463,
6.77344,-7.47159,-28.39934,-4.91143,0.13049,0.83225,0.38490,,,0.80745,0.58024,-0.09599,-0.04607,
6.78125,-7.57472,-28.85619,-5.26148,0.12854,0.83760,0.37813,,,0.80755,0.57977,-0.09734,-0.04755,
6.78906,-7.29969,-30.19160,-5.50652,0.12465,0.85558,0.38587,,,0.80761,0.57930,-0.09876,-0.04910,
6.79688,-7.67786,-31.87843,-5.15646,0.12075,0.86627,0.37716,,,0.80768,0.57881,-0.10029,-0.05069,
6.80469,-7.84975,-32.75699,-4.84142,0.12854,0.88230,0.37231,,,0.80775,0.57829,-0.10188,-0.05230,
6.81250,-8.91547,-34.23297,-4.14131,0.13293,0.90077,0.35585,,,0.80785,0.57771,-0.10357,-0.05394,
6.82031,-9.46552,-34.72496,-3.86127,0.13342,0.90952,0.34762,,,0.80796,0.57708,-0.10529,-0.05559,
6.82813,-10.56563,-35.35752,-3.54622,0.13537,0.91826,0.33164,,,0.80811,0.57639,-0.10706,-0.05725,
6.83594,-11.11568,-35.74409,-3.68624,0.14219,0.91535,0.32970,,,0.80826,0.57566,-0.10884,-0.05894,
6.84375,-11.01255,-35.95494,-3.93128,0.14950,0.91972,0.32196,,,0.80841,0.57494,-0.11062,-0.06065,
6.85156,-11.25319,-36.20094,-4.59638,0.16948,0.91632,0.32099,,,0.80856,0.57420,-0.11239,-0.06241,
6.85938,-10.80628,-36.48207,-5.75155,0.19092,0.89785,0.30017,,,0.80867,0.57349,-0.11413,-0.06423,
6.86719,-10.04995,-36.44693,-5.89157,0.18653,0.90028,0.30162,,,0.80875,0.57282,-0.11587,-0.06606,
6.87500,-8.70920,-36.27122,-5.71655,0.19189,0.89591,0.29097,,,0.80878,0.57222,-0.11760,-0.06786,
6.88281,-7.05905,-36.02522,-5.08645,0.19920,0.87696,0.27402,,,0.80874,0.57171,-0.11936,-0.06960,
6.89063,-6.57775,-35.91980,-4.80641,0.19384,0.86918,0.27499,,,0.80868,0.57121,-0.12112,-0.07132,
6.89844,-5.20262,-35.21695,-4.42135,0.19287,0.85655,0.25804,,,0.80857,0.57079,-0.12286,-0.07298,
6.90625,-2.45236,-34.33839,-4.28133,0.18995,0.85072,0.25465,,,0.80835,0.57052,-0.12458,-0.07457,
6.91406,-1.14599,-33.67069,-4.24633,0.20067,0.85558,0.25223,,,0.80809,0.57032,-0.12626,-0.07612,
6.92188,2.05119,-31.17559,-3.30118,0.19531,0.85801,0.24787,,,0.80772,0.57029,-0.12786,-0.07750,
6.92969,5.83280,-27.87221,-2.18102,0.18556,0.86286,0.24690,,,0.80724,0.57049,-0.12934,-0.07865,
6.93750,7.48296,-25.79881,-1.51592,0.18215,0.86627,0.25659,,,0.80671,0.57077,-0.13074,-0.07967,
6.94531,10.88640,-21.72231,-0.29073,0.17679,0.88668,0.25465,,,0.80609,0.57125,-0.13199,-0.08044,
6.95313,13.32726,-16.97810,0.75942,0.18069,0.89348,0.25562,,,0.80542,0.57189,-0.13302,-0.08094,
6.96094,14.77115,-14.37756,1.10948,0.18800,0.89931,0.25271,,,0.80472,0.57261,-0.13394,-0.08130,
6.96875,16.90260,-9.42250,1.77458,0.18117,0.91243,0.25852,,,0.80398,0.57347,-0.13462,-0.08142,
6.97656,18.20897,-4.43229,2.33466,0.18507,0.92409,0.25659,,,0.80324,0.57442,-0.13505,-0.08130,
6.98438,18.69027,-1.72633,2.43968,0.19969,0.92264,0.26143,,,0.80251,0.57541,-0.13535,-0.08106,
6.99219,18.58713,2.59617,2.54469,0.20115,0.93041,0.26869,,,0.80181,0.57642,-0.13541,-0.08065,
7.00000,18.48400,5.72383,2.85974,0.21626,0.94548,0.27692,,,0.80116,0.57743,-0.13531,-0.08009,
7.00781,17.86519,6.70782,3.03477,0.22698,0.95277,0.28370,1020.871,27.9,0.80053,0.57842,-0.13516,-0.07950,
7.01563,16.62757,8.14865,4.04992,0.24257,0.98095,0.29726,,,0.79997,0.57933,-0.13496,-0.07880,
7.02344,14.25547,7.72695,5.94020,0.24842,1.01351,0.31082,,,0.79951,0.58009,-0.13485,-0.07804,
7.03125,12.91472,7.05924,7.13038,0.24599,1.02809,0.31808,,,0.79910,0.58077,-0.13482,-0.07725,
7.03906,9.09873,5.16156,9.72077,0.24111,1.04655,0.32583,,,0.79884,0.58120,-0.13497,-0.07644,
7.04688,3.77010,3.29902,11.89109,0.22990,1.05336,0.33455,,,0.79878,0.58131,-0.13528,-0.07562,
7.05469,0.77920,2.49074,12.62620,0.22162,1.05481,0.33309,,,0.79884,0.58125,-0.13565,-0.07483,
7.06250,-4.48068,1.19048,13.64136,0.21187,1.04364,0.32922,,,0.79910,0.58089,-0.13611,-0.07408,
7.07031,-9.32801,0.59306,13.67636,0.21187,1.02031,0.31566,,,0.79954,0.58026,-0.13657,-0.07340,
7.07813,-11.35633,0.38220,13.39632,0.21675,1.00816,0.30259,,,0.80006,0.57951,-0.13702,-0.07276,
7.08594,-14.14097,1.04991,12.48618,0.21187,0.99650,0.29629,,,0.80069,0.57863,-0.13739,-0.07217,
7.09375,-16.30680,2.49074,11.19099,0.20310,0.98775,0.29339,,,0.80141,0.57765,-0.13761,-0.07161,
7.10156,-16.85685,3.26387,10.31586,0.19677,0.98921,0.28709,,,0.80215,0.57664,-0.13776,-0.07108,
7.10938,-18.19760,5.37241,8.77563,0.18897,0.97317,0.30307,,,0.80296,0.57559,-0.13772,-0.07056,
7.11719,-18.47263,6.95382,7.16539,0.18117,0.95519,0.30985,,,0.80379,0.57455,-0.13753,-0.07006,
7.12500,-18.12885,7.30524,6.18524,0.17630,0.95034,0.33745,,,0.80459,0.57353,-0.13729,-0.06961,
7.13281,-17.13188,8.46493,4.32996,0.18458,0.92895,0.34375,,,0.80536,0.57259,-0.13691,-0.06920,
7.14063,-15.85988,9.58949,3.03477,0.19189,0.90320,0.35924,,,0.80608,0.57173,-0.13643,-0.06881,
7.14844,-14.51913,10.78433,2.57970,0.18166,0.88765,0.38151,,,0.80676,0.57096,-0.13587,-0.06838,
7.15625,-9.98120,14.50941,1.45953,0.21285,0.87307,0.40815,,,0.80729,0.57047,-0.13508,-0.06783,
7.16406,-4.51506,18.62106,-0.22072,0.26353,0.85217,0.41977,,,0.80764,0.57031,-0.13403,-0.06716,
7.17188,-1.35226,20.30789,-1.51592,0.28497,0.85412,0.41686,,,0.80787,0.57034,-0.13284,-0.06646,
7.17969,4.18264,21.64330,-5.05145,0.32347,0.85315,0.41057,,,0.80788,0.57071,-0.13147,-0.06586,
7.18750,6.24534,21.50273,-6.94173,0.34198,0.85655,0.39991,,,0.80780,0.57121,-0.13005,-0.06535,
7.19531,7.65485,21.88929,-9.07705,0.28643,0.84926,0.37474,,,0.80765,0.57181,-0.12852,-0.06493,
7.20313,10.40511,19.46448,-10.68729,0.22211,0.84343,0.30840,,,0.80737,0.57256,-0.12708,-0.06467,
7.21094,13.63666,16.82880,-11.70245,0.20115,0.86675,0.31324,,,0.80693,0.57349,-0.12576,-0.06454,
7.21875,18.00270,11.27632,-14.95793,0.14219,0.92166,0.32196,,,0.80625,0.57465,-0.12463,-0.06476,
7.22656,17.28076,6.63753,-17.93338,0.08859,0.92507,0.34375,,,0.80555,0.57578,-0.12364,-0.06534,
7.23438,16.42130,6.14554,-19.12356,0.06568,0.91583,0.37570,,,0.80487,0.57687,-0.12263,-0.06601,
7.24219,17.21200,6.39154,-21.08385,0.07299,0.92604,0.43236,,,0.80415,0.57802,-0.12152,-0.06678,
7.25000,14.56488,8.11351,-21.22387,0.09638,0.89882,0.49918,,,0.80355,0.57903,-0.12031,-0.06750,
7.25781,13.05223,9.30835,-20.97884,0.08956,0.87793,0.53453,,,0.80301,0.57996,-0.11903,-0.06817,
7.26563,11.53959,10.60861,-19.89367,0.11295,0.85801,0.55099,,,0.80255,0.58080,-0.11772,-0.06875,
7.27344,11.67710,11.31146,-18.56347,0.15291,0.85072,0.56503,,,0.80209,0.58164,-0.11642,-0.06922,
7.28125,12.22716,11.55746,-17.75835,0.17143,0.85606,0.56552,,,0.80161,0.58250,-0.11514,-0.06964,
7.28906,14.49612,10.67890,-16.18312,0.23234,0.92118,0.55002,,,0.80104,0.58347,-0.11398,-0.06998,
7.29688,14.87428,9.44892,-14.74790,0.27669,0.99456,0.54082,,,0.80046,0.58444,-0.11295,-0.07030,
7.30469,14.15234,9.30835,-13.87277,0.29764,1.01399,0.53501,,,0.79990,0.58536,-0.11196,-0.07057,
7.31250,12.67407,8.71093,-11.94748,0.32201,1.07960,0.50305,,,0.79940,0.58619,-0.11107,-0.07078,
7.32031,9.75192,8.53522,-10.37225,0.28594,1.13208,0.48804,,,0.79903,0.58684,-0.11023,-0.07093,
7.32813,8.61744,8.64065,-9.42710,0.25914,1.15103,0.48175,,,0.79870,0.58742,-0.10943,-0.07103,
7.33594,4.80145,9.09750,-7.57183,0.21967,1.15735,0.44979,,,0.79854,0.58778,-0.10865,-0.07105,
7.34375,3.11692,9.51920,-5.29648,0.18946,1.12042,0.41202,,,0.79846,0.58803,-0.10794,-0.07093,
7.35156,3.08254,9.37863,-4.07130,0.17533,1.09952,0.39798,,,0.79838,0.58827,-0.10728,-0.07075,
7.35938,4.76707,8.64065,-1.34089,0.16802,1.04364,0.38055,,,0.79825,0.58859,-0.10678,-0.07044,
7.36719,8.44555,7.41066,2.01961,0.19677,1.01254,0.37425,,,0.79798,0.58907,-0.10650,-0.06997,
7.37500,10.54262,7.05924,4.11993,0.21236,1.00233,0.36796,,,0.79762,0.58964,-0.10633,-0.06939,
7.38281,13.70542,7.16467,9.02066,0.23380,1.00428,0.37716,,,0.79717,0.59035,-0.10637,-0.06851,
7.39063,16.35255,8.21894,14.34146,0.26402,1.02857,0.39217,,,0.79663,0.59118,-0.10657,-0.06728,
7.39844,16.49006,9.48406,17.00186,0.28302,1.04412,0.40185,,,0.79612,0.59199,-0.10682,-0.06586,
7.40625,16.14628,12.40087,21.79758,0.28546,1.06599,0.42316,,,0.79565,0.59276,-0.10710,-0.06405,
7.41406,12.60532,15.49340,25.12308,0.28351,1.06405,0.42897,,,0.79536,0.59333,-0.10733,-0.06197,
7.42188,10.13008,17.32080,25.99821,0.28058,1.04801,0.41589,,,0.79519,0.59376,-0.10749,-0.05979,
7.42969,5.90156,19.92133,26.66331,0.27815,1.00282,0.40718,,,0.79520,0.59396,-0.10751,-0.05749,
7.43750,2.22308,21.74873,26.06822,0.27133,0.95422,0.39314,,,0.79537,0.59398,-0.10740,-0.05518,
7.44531,0.71044,22.38129,25.33311,0.26060,0.92604,0.37813,,,0.79560,0.59391,-0.10721,-0.05289,
7.45313,-0.56156,24.20869,24.24795,0.22162,0.87550,0.36166,,,0.79589,0.59379,-0.10688,-0.05060,
7.46094,0.16039,25.79009,23.47783,0.18605,0.84051,0.34665,,,0.79615,0.59371,-0.10643,-0.04828,
7.46875,0.50417,26.17666,23.44283,0.18069,0.82496,0.33358,,,0.79639,0.59365,-0.10596,-0.04595,
7.47656,2.39497,26.80922,23.05777,0.16655,0.78074,0.31857,,,0.79656,0.59370,-0.10544,-0.04359,
7.48438,6.52036,27.30121,22.67271,0.16997,0.76179,0.32244,,,0.79656,0.59397,-0.10490,-0.04121,
7.49219,8.30803,27.65263,22.63771,0.17191,0.75207,0.30404,,,0.79648,0.59433,-0.10434,-0.03880,
7.50000,11.74586,27.79320,23.09277,0.17874,0.76422,0.30404,,,0.79626,0.59488,-0.10379,-0.03634,
7.50781,14.56488,28.28519,24.31796,0.21090,0.77977,0.30743,,,0.79593,0.59556,-0.10328,-0.03376,
7.51563,15.25244,28.49605,24.94805,0.22113,0.78706,0.29920,,,0.79556,0.59628,-0.10278,-0.03115,
7.52344,17.79643,28.35548,26.20824,0.24063,0.81135,0.28709,,,0.79509,0.59712,-0.10235,-0.02845,
7.53125,18.48400,28.25005,26.69832,0.25963,0.82739,0.29339,,,0.79458,0.59798,-0.10194,-0.02572,
7.53906,17.96832,29.30432,27.57345,0.26402,0.86141,0.28758,,,0.79410,0.59881,-0.10151,-0.02291,
7.54688,16.24941,30.21802,27.46843,0.25719,0.89542,0.28951,,,0.79368,0.59955,-0.10102,-0.02007,
7.55469,14.94304,30.49916,27.15338,0.25671,0.90757,0.29436,,,0.79332,0.60021,-0.10050,-0.01725,
7.56250,11.05829,31.55343,25.89319,0.23039,0.89931,0.27789,,,0.79311,0.60066,-0.09986,-0.01449,
7.57031,8.41117,31.06144,24.03792,0.21236,0.91049,0.28322,,,0.79300,0.60098,-0.09918,-0.01186,
7.57813,6.69226,30.60459,23.12778,0.19336,0.91486,0.28370,,,0.79294,0.60121,-0.09848,-0.00931,
7.58594,2.49811,29.37461,21.13248,0.16461,0.90854,0.27886,,,0.79305,0.60122,-0.09776,-0.00694,
7.59375,-1.73042,27.96891,18.89214,0.12903,0.88765,0.25949,,,0.79331,0.60101,-0.09702,-0.00479,
7.60156,-3.34619,27.02007,17.66696,0.11490,0.88668,0.25513,,,0.79363,0.60072,-0.09628,-0.00275,
7.60938,-5.95894,24.63039,14.83154,0.09931,0.86821,0.24836,,,0.79404,0.60031,-0.09555,-0.00097,
7.61719,-8.12477,22.24072,11.99611,0.07884,0.85655,0.23528,,,0.79452,0.59979,-0.09484,0.00053,
7.62500,-8.60607,21.11616,10.56089,0.07445,0.85120,0.22608,,,0.79501,0.59925,-0.09412,0.00191,
7.63281,-9.49990,18.19935,7.55044,0.08030,0.83954,0.21398,,,0.79551,0.59869,-0.09345,0.00300,
7.64063,-8.98423,14.33370,4.08492,0.10272,0.83274,0.20865,,,0.79597,0.59817,-0.09284,0.00375,
7.64844,-8.94985,12.71715,2.26465,0.09931,0.82739,0.19800,,,0.79641,0.59767,-0.09224,0.00434,
7.65625,-8.05602,9.13264,-0.95583,0.12172,0.82302,0.18977,,,0.79679,0.59723,-0.09171,0.00461,
7.66406,-6.40586,6.49697,-3.47621,0.13342,0.81913,0.18153,,,0.79710,0.59690,-0.09122,0.00464,
7.67188,-5.23700,4.81013,-4.38635,0.15583,0.82010,0.17427,,,0.79734,0.59664,-0.09078,0.00457,
7.67969,-3.24306,2.84217,-5.99659,0.18361,0.83954,0.17524,,,0.79749,0.59650,-0.09038,0.00434,
7.68750,-2.14296,1.26076,-7.25678,0.20067,0.84391,0.17282,,,0.79759,0.59643,-0.09002,0.00398,
7.69531,-1.66166,0.83905,-7.74685,0.20310,0.84343,0.17379,,,0.79766,0.59639,-0.08966,0.00358,
7.70313,0.22914,0.41735,-8.27193,0.21675,0.84829,0.16362,,,0.79766,0.59645,-0.08930,0.00315,
7.71094,1.77617,-0.53150,-8.58698,0.22503,0.84440,0.16459,,,0.79758,0.59660,-0.08898,0.00268,
7.71875,2.53249,-0.81263,-8.48196,0.23039,0.84391,0.16991,,,0.79748,0.59679,-0.08868,0.00220,
7.72656,4.25140,-0.95320,-8.27193,0.23332,0.83954,0.17524,,,0.79730,0.59707,-0.08840,0.00173,
7.73438,5.62653,-1.19920,-7.74685,0.22893,0.84002,0.17814,,,0.79706,0.59743,-0.08815,0.00130,
7.74219,6.34847,-1.19920,-7.32679,0.22990,0.84002,0.18153,,,0.79680,0.59782,-0.08791,0.00089,
7.75000,7.62047,-1.16406,-6.62668,0.23721,0.84294,0.19897,,,0.79648,0.59827,-0.08771,0.00053,
7.75781,8.96122,-1.02349,-5.96158,0.23137,0.85023,0.20865,,,0.79611,0.59879,-0.08752,0.00022,
7.76563,9.64879,-0.88292,-5.54152,0.23137,0.86043,0.20575,,,0.79571,0.59935,-0.08734,-0.00006,
7.77344,10.40511,0.06592,-4.77141,0.23380,0.87841,0.22221,,,0.79528,0.59994,-0.08714,-0.00025,
7.78125,11.43646,1.26076,-4.07130,0.24696,0.90806,0.23770,,,0.79482,0.60058,-0.08691,-0.00036,
7.78906,11.71148,2.27989,-3.72125,0.24793,0.91923,0.25707,,,0.79436,0.60124,-0.08663,-0.00039,
7.79688,11.53959,4.49385,-3.02114,0.27133,0.96054,0.26676,,,0.79391,0.60188,-0.08627,-0.00030,
7.80469,9.82068,7.44581,-2.46106,0.29861,0.99067,0.27063,,,0.79355,0.60243,-0.08576,-0.00007,
7.81250,8.96122,8.78121,-2.28603,0.31616,1.00379,0.27886,,,0.79323,0.60293,-0.08520,0.00022,
7.82031,6.58912,12.29545,-1.44591,0.33516,1.02323,0.27886,,,0.79303,0.60329,-0.08447,0.00068,
7.82813,3.90762,15.45825,-0.36074,0.35124,1.03003,0.27644,,,0.79296,0.60350,-0.08362,0.00132,
7.83594,2.56687,17.10994,0.30436,0.35612,1.02954,0.26772,,,0.79295,0.60364,-0.08271,0.00206,
7.84375,0.53855,19.28876,2.15963,0.36489,1.04607,0.25175,,,0.79304,0.60365,-0.08176,0.00297,
7.85156,-3.10555,21.99472,4.96005,0.36830,1.06162,0.24351,,,0.79329,0.60345,-0.08077,0.00413,
7.85938,-5.34013,22.90842,6.36026,0.35173,1.05336,0.22899,,,0.79363,0.60312,-0.07980,0.00539,
7.86719,-8.19353,24.41954,8.95065,0.35612,1.04801,0.20575,,,0.79409,0.60262,-0.07885,0.00683,
7.87500,-11.49384,24.48983,10.00081,0.34540,1.06453,0.21252,,,0.79469,0.60193,-0.07794,0.00832,
7.88281,-13.69405,24.73582,11.22599,0.34735,1.07085,0.20042,,,0.79538,0.60111,-0.07707,0.00987,
7.89063,-16.99436,25.29810,11.61105,0.31470,1.06551,0.15684,,,0.79620,0.60011,-0.07619,0.01145,
7.89844,-17.85382,26.07123,11.71607,0.30739,1.08300,0.16459,,,0.79705,0.59906,-0.07526,0.01306,
7.90625,-20.94786,26.70379,11.50604,0.30592,1.07328,0.25949,,,0.79803,0.59784,-0.07430,0.01467,
7.91406,-20.36343,24.38440,10.42087,0.28205,1.07960,0.24884,,,0.79897,0.59665,-0.07342,0.01612,
7.92188,-19.95089,23.50584,9.65076,0.27084,1.10487,0.28274,,,0.79989,0.59549,-0.07256,0.01751,
7.92969,-24.69509,20.87017,8.70562,0.21187,1.14520,0.30307,,,0.80098,0.59408,-0.07180,0.01871,
7.93750,-27.61724,15.91510,8.88064,0.10418,1.15978,0.33116,,,0.80216,0.59250,-0.07133,0.01970,
7.94531,-29.30178,11.80345,9.30071,0.07055,1.15395,0.32535,,,0.80339,0.59084,-0.07110,0.02054,
7.95313,-33.80533,1.22562,10.49088,0.02865,1.12042,0.35101,,,0.80474,0.58893,-0.07150,0.02100,
7.96094,-34.32100,-5.41628,12.27615,0.05252,1.08251,0.35876,,,0.80607,0.58700,-0.07234,0.02129,
7.96875,-33.59906,-7.48967,12.90625,0.07299,1.06113,0.38103,,,0.80736,0.58509,-0.07331,0.02153,
7.97656,-30.36750,-10.58220,12.94125,0.11393,1.01545,0.44930,,,0.80850,0.58337,-0.07445,0.02167,
7.98438,-25.27952,-14.37756,10.84094,0.09492,0.97220,0.51322,,,0.80941,0.58194,-0.07571,0.02157,
7.99219,-22.01359,-17.96208,10.28085,0.09492,0.97901,0.55438,,,0.81017,0.58070,-0.07715,0.02131,
8.00000,-16.95998,-23.65513,12.59120,0.10320,1.03781,0.59263,,,0.81070,0.57973,-0.07897,0.02098,
8.00781,-18.71328,-24.99054,16.75682,0.14219,0.99018,0.54518,1020.902,28.0,0.81128,0.57864,-0.08104,0.02082,
8.01563,-17.16625,-25.69339,18.75212,0.18361,0.97609,0.52242,,,0.81179,0.57762,-0.08323,0.02075,
8.02344,-13.17838,-26.07995,22.42767,0.24063,0.94013,0.50112,,,0.81213,0.57680,-0.08557,0.02089,
8.03125,-11.04692,-23.16314,24.31796,0.30203,0.88668,0.49240,,,0.81239,0.57607,-0.08783,0.02126,
8.03906,-10.56563,-20.21119,24.14293,0.31616,0.84294,0.48514,,,0.81265,0.57537,-0.08991,0.02174,
8.04688,-7.64348,-13.70986,21.06247,0.34004,0.77296,0.46867,,,0.81283,0.57483,-0.09151,0.02232,
8.05469,-3.44933,-7.52481,16.37177,0.33224,0.75012,0.48853,,,0.81289,0.57455,-0.09258,0.02291,
8.06250,-1.45539,-4.85400,13.95640,0.31031,0.74381,0.50547,,,0.81290,0.57439,-0.09339,0.02349,
8.07031,1.67303,-0.42607,9.86079,0.27474,0.75790,0.53307,,,0.81281,0.57442,-0.09380,0.02403,
8.07813,4.21702,1.64733,6.57030,0.22211,0.77734,0.52145,,,0.81265,0.57461,-0.09396,0.02448,
8.08594,5.59215,1.82304,5.76518,0.19141,0.78706,0.51855,,,0.81243,0.57487,-0.09408,0.02491,
8.09375,8.65182,-0.21522,6.50029,0.13439,0.82156,0.49531,,,0.81208,0.57531,-0.09433,0.02532,
8.10156,13.53353,-4.39715,8.60060,0.10954,0.87841,0.48756,,,0.81151,0.57601,-0.09488,0.02571,
8.10938,15.56185,-6.71654,9.40572,0.12367,0.93284,0.49869,,,0.81084,0.57682,-0.09560,0.02607,
8.11719,15.63060,-10.75791,9.96581,0.17435,1.02031,0.50160,,,0.81014,0.57764,-0.09656,0.02630,
8.12500,11.91775,-12.86645,7.90050,0.21821,1.09418,0.50402,,,0.80957,0.57827,-0.09756,0.02630,
8.13281,9.09873,-13.07730,5.76518,0.26158,1.10292,0.48707,,,0.80911,0.57875,-0.09849,0.02617,
8.14063,3.15130,-10.79305,0.51439,0.27669,1.07279,0.47448,,,0.80891,0.57894,-0.09910,0.02579,
8.14844,-2.31485,-6.40026,-4.63138,0.26207,0.99407,0.45608,,,0.80897,0.57885,-0.09927,0.02527,
8.15625,-3.82749,-4.08087,-6.94173,0.25037,0.96491,0.44882,,,0.80911,0.57870,-0.09923,0.02470,
8.16406,-6.13083,-0.00436,-11.42240,0.20895,0.89591,0.43526,,,0.80937,0.57843,-0.09879,0.02403,
8.17188,-5.51203,2.35017,-15.93808,0.15145,0.83857,0.42074,,,0.80963,0.57823,-0.09804,0.02320,
8.17969,-4.27441,2.73674,-18.52847,0.12611,0.82253,0.41928,,,0.80984,0.57812,-0.09717,0.02226,
8.18750,-0.38966,2.17446,-23.39420,0.09200,0.81378,0.42122,,,0.80991,0.57824,-0.09612,0.02105,
8.19531,3.63259,0.03078,-27.34979,0.09297,0.82010,0.41589,,,0.80980,0.57862,-0.09504,0.01956,
8.20313,4.52643,-1.16406,-28.96003,0.10126,0.82350,0.41638,,,0.80965,0.57906,-0.09395,0.01795,
8.21094,5.59215,-3.48345,-30.60528,0.10126,0.83614,0.42122,,,0.80945,0.57957,-0.09293,0.01616,
8.21875,3.94200,-5.87313,-29.41510,0.07592,0.77734,0.39798,,,0.80929,0.57997,-0.09209,0.01433,
8.22656,5.24837,-8.08709,-27.94488,0.08128,0.77248,0.38975,,,0.80905,0.58045,-0.09142,0.01250,
8.23438,7.24231,-11.56618,-25.21447,0.07250,0.75693,0.39120,,,0.80872,0.58101,-0.09106,0.01069,
8.24219,8.17052,-13.11244,-23.91928,0.07007,0.75110,0.38636,,,0.80833,0.58162,-0.09083,0.00891,
8.25000,10.85202,-16.45096,-22.30904,0.07835,0.74624,0.37716,,,0.80781,0.58236,-0.09084,0.00709,
8.25781,14.04920,-19.82462,-21.85397,0.08956,0.75596,0.38684,,,0.80714,0.58328,-0.09106,0.00519,
8.26563,14.97742,-21.47631,-21.57393,0.09297,0.76033,0.38151,,,0.80641,0.58424,-0.09138,0.00324,
8.27344,16.97135,-23.86599,-21.36389,0.08761,0.77345,0.36747,,,0.80559,0.58531,-0.09183,0.00122,
8.28125,18.27773,-25.55282,-21.53892,0.11539,0.80455,0.36408,,,0.80470,0.58645,-0.09237,-0.00087,
8.28906,18.31211,-26.22052,-21.57393,0.12708,0.81573,0.36650,,,0.80380,0.58758,-0.09295,-0.00298,
8.29688,17.55578,-26.32595,-20.97884,0.12708,0.83031,0.35779,,,0.80292,0.58867,-0.09356,-0.00508,
8.30469,15.97439,-25.86910,-20.20872,0.11880,0.82107,0.34568,,,0.80211,0.58966,-0.09417,-0.00712,
8.31250,15.76812,-25.37711,-19.75365,0.11003,0.80844,0.33164,,,0.80130,0.59064,-0.09477,-0.00912,
8.32031,17.21200,-24.63912,-19.26358,0.09589,0.78803,0.31711,,,0.80043,0.59168,-0.09535,-0.01105,
8.32813,19.41221,-23.12800,-19.33359,0.09151,0.78851,0.31372,,,0.79948,0.59285,-0.09584,-0.01292,
8.33594,20.16853,-22.10887,-19.54362,0.09589,0.78025,0.30985,,,0.79851,0.59406,-0.09628,-0.01474,
8.34375,22.57501,-20.35176,-19.82366,0.10223,0.78365,0.29242,,,0.79744,0.59539,-0.09660,-0.01650,
8.35156,25.25651,-19.40291,-19.54362,0.11100,0.80795,0.28370,,,0.79626,0.59687,-0.09689,-0.01818,
8.35938,26.32224,-19.05149,-19.29858,0.11685,0.82885,0.29532,,,0.79504,0.59840,-0.09717,-0.01983,
8.36719,26.80354,-17.68094,-17.89837,0.13829,0.87599,0.30017,,,0.79380,0.59995,-0.09744,-0.02134,
8.37500,25.08462,-16.27525,-15.69304,0.16607,0.91389,0.29387,,,0.79264,0.60138,-0.09771,-0.02269,
8.38281,23.46885,-15.53726,-14.36284,0.17922,0.93041,0.28564,,,0.79155,0.60272,-0.09800,-0.02395,
8.39063,19.41221,-13.74500,-11.03735,0.19872,0.94353,0.27644,,,0.79064,0.60382,-0.09832,-0.02498,
8.39844,13.87731,-11.91760,-8.02689,0.23234,0.94159,0.25804,,,0.78998,0.60460,-0.09866,-0.02581,
8.40625,10.85202,-11.28504,-6.80171,0.24745,0.93867,0.24884,,,0.78944,0.60521,-0.09900,-0.02657,
8.41406,5.17961,-10.72276,-4.73640,0.25963,0.90174,0.21979,,,0.78915,0.60550,-0.09940,-0.02723,
8.42188,0.64168,-11.07419,-2.74110,0.25768,0.87064,0.19316,,,0.78904,0.60553,-0.09988,-0.02783,
8.42969,-0.73345,-11.03905,-1.86597,0.25086,0.85946,0.18686,,,0.78899,0.60548,-0.10040,-0.02839,
8.43750,-1.86793,-10.93362,-0.22072,0.21967,0.83419,0.16556,,,0.78899,0.60536,-0.10097,-0.02886,
8.44531,-0.97410,-10.89848,1.10948,0.18946,0.83419,0.16991,,,0.78896,0.60528,-0.10160,-0.02926,
8.45313,0.26352,-10.61734,1.59955,0.17386,0.82933,0.17379,,,0.78888,0.60526,-0.10224,-0.02961,
8.46094,3.46070,-11.07419,2.61470,0.14755,0.83614,0.17427,,,0.78866,0.60541,-0.10295,-0.02990,
8.46875,7.89549,-12.37445,3.38482,0.11051,0.85509,0.17960,,,0.78826,0.60578,-0.10377,-0.03018,
8.47656,10.57700,-13.14758,3.76988,0.09492,0.86238,0.18057,,,0.78773,0.60630,-0.10466,-0.03044,
8.48438,15.97439,-15.71297,4.53999,0.06325,0.90271,0.20768,,,0.78697,0.60709,-0.10572,-0.03073,
8.49219,20.06540,-19.33263,5.06507,0.03401,0.94548,0.22269,,,0.78601,0.60809,-0.10701,-0.03112,
8.50000,21.71555,-21.58174,4.99506,0.01793,0.96394,0.23141,,,0.78496,0.60917,-0.10842,-0.03159,
8.50781,23.70949,-26.36109,4.04992,0.00477,1.00573,0.24739,,,0.78379,0.61035,-0.11005,-0.03229,
8.51563,23.64074,-31.77301,1.56454,-0.00741,1.04655,0.24593,,,0.78256,0.61153,-0.11186,-0.03335,
8.52344,23.12506,-34.65467,-0.01069,-0.00498,1.07620,0.24351,,,0.78133,0.61268,-0.11376,-0.03462,
8.53125,19.61848,-39.08261,-3.68624,0.01354,1.12625,0.21882,,,0.78020,0.61366,-0.11573,-0.03630,
8.53906,13.25850,-41.68314,-8.06190,0.05447,1.14471,0.21688,,,0.77929,0.61432,-0.11765,-0.03837,
8.54688,8.92684,-42.17513,-10.30224,0.06422,1.13645,0.21301,,,0.77855,0.61477,-0.11948,-0.04061,
8.55469,4.11389,-43.15911,-14.29283,0.08761,1.11216,0.18977,,,0.77798,0.61498,-0.12118,-0.04314,
8.56250,-1.48977,-43.33482,-18.56347,0.10759,1.07911,0.15442,,,0.77763,0.61492,-0.12269,-0.04596,
8.57031,-3.62122,-43.29968,-19.78866,0.12318,1.06162,0.14764,,,0.77735,0.61476,-0.12415,-0.04885,
8.57813,-6.61213,-42.94826,-20.97884,0.12952,1.02128,0.11374,,,0.77719,0.61444,-0.12552,-0.05182,
8.58594,-7.19656,-42.73740,-20.94383,0.12854,1.02469,0.11132,,,0.77705,0.61408,-0.12688,-0.05478,
8.59375,-8.22791,-42.91312,-20.10371,0.12660,1.02954,0.09631,,,0.77694,0.61366,-0.12828,-0.05771,
8.60156,-9.43115,-43.44025,-18.14341,0.12513,1.05287,0.07210,,,0.77688,0.61315,-0.12979,-0.06057,
8.60938,-9.91244,-43.82682,-16.95323,0.12513,1.07085,0.07501,,,0.77683,0.61259,-0.13136,-0.06339,
8.61719,-11.83762,-44.63509,-14.46786,0.13293,1.09175,0.05758,,,0.77686,0.61189,-0.13307,-0.06613,
8.62500,-14.27848,-44.52966,-11.98249,0.15194,1.11556,0.05031,,,0.77699,0.61104,-0.13486,-0.06875,
8.63281,-15.65361,-44.17824,-10.93233,0.15973,1.12868,0.05467,,,0.77718,0.61011,-0.13667,-0.07131,
8.64063,-19.16019,-41.71828,-9.14706,0.18848,1.14034,0.07646,,,0.77754,0.60897,-0.13841,-0.07371,
8.64844,-23.35434,-37.50120,-7.99189,0.22942,1.11945,0.13650,,,0.77811,0.60762,-0.13995,-0.07591,
8.65625,-24.17942,-35.00610,-7.64184,0.26255,1.09466,0.13457,,,0.77873,0.60623,-0.14136,-0.07799,
8.66406,-23.28558,-30.19160,-8.02689,0.32006,1.07134,0.19945,,,0.77936,0.60490,-0.14251,-0.07989,
8.67188,-22.80429,-24.25255,-10.44226,0.36830,1.04461,0.20913,,,0.78000,0.60366,-0.14325,-0.08167,
8.67969,-21.70418,-21.05460,-12.15751,0.39266,1.04315,0.21640,,,0.78062,0.60251,-0.14375,-0.08339,
8.68750,-18.02571,-13.70986,-16.53317,0.43409,1.03392,0.25804,,,0.78113,0.60163,-0.14370,-0.08501,
8.69531,-15.10356,-6.96254,-20.45376,0.45553,1.03440,0.29194,,,0.78156,0.60099,-0.14314,-0.08653,
8.70313,-13.90032,-3.97544,-21.74895,0.45065,1.03197,0.31372,,,0.78196,0.60043,-0.14238,-0.08799,
8.71094,-12.07827,2.73674,-22.48406,0.40972,1.01740,0.35730,,,0.78235,0.60002,-0.14125,-0.08919,
8.71875,-7.81537,7.83237,-22.34404,0.36343,0.99990,0.39798,,,0.78261,0.59987,-0.13987,-0.09013,
8.72656,-5.44327,9.44892,-22.06400,0.35173,0.97998,0.41202,,,0.78278,0.59984,-0.13843,-0.09097,
8.73438,0.33228,10.99518,-21.67894,0.33029,0.92604,0.42994,,,0.78274,0.60013,-0.13696,-0.09168,
8.74219,9.02998,11.48717,-23.00914,0.25232,0.92409,0.43817,,,0.78233,0.60090,-0.13546,-0.09235,
8.75000,13.67104,11.59260,-24.19932,0.21334,0.94791,0.45269,,,0.78173,0.60192,-0.13394,-0.09304,
8.75781,16.55882,9.51920,-25.56452,0.10077,0.97366,0.44592,,,0.78097,0.60309,-0.13249,-0.09386,
8.76563,16.83384,4.21272,-24.54937,0.04229,0.96151,0.48126,,,0.78016,0.60424,-0.13136,-0.09484,
8.77344,16.14628,1.04991,-23.28918,0.02134,0.94888,0.49385,,,0.77935,0.60531,-0.13045,-0.09589,
8.78125,15.59622,-6.25969,-20.13871,0.02572,0.90368,0.51225,,,0.77852,0.60627,-0.13005,-0.09708,
8.78906,14.01482,-12.51502,-16.91823,0.06032,0.85655,0.51564,,,0.77772,0.60708,-0.13011,-0.09837,
8.79688,13.87731,-15.25612,-15.30799,0.09589,0.83857,0.51903,,,0.77691,0.60785,-0.13037,-0.09969,
8.80469,15.80249,-20.14090,-11.42240,0.18507,0.84488,0.50693,,,0.77600,0.60864,-0.13107,-0.10099,
8.81250,16.73071,-21.12489,-9.11206,0.26694,0.85898,0.48562,,,0.77505,0.60946,-0.13193,-0.10220,
8.82031,16.14628,-20.28147,-8.90203,0.29179,0.86043,0.46964,,,0.77414,0.61025,-0.13275,-0.10337,
8.82813,16.24941,-19.29749,-10.58228,0.34345,0.90709,0.44930,,,0.77321,0.61107,-0.13344,-0.10458,
8.83594,14.59925,-16.69696,-13.41770,0.36635,0.97706,0.44737,,,0.77236,0.61184,-0.13387,-0.10585,
8.84375,13.12099,-14.69385,-14.64289,0.37025,1.02226,0.43865,,,0.77157,0.61255,-0.13412,-0.10711,
8.85156,9.16749,-8.89536,-15.83306,0.37122,1.08689,0.41589,,,0.77099,0.61311,-0.13400,-0.10823,
8.85938,3.59821,-2.46432,-14.81791,0.37658,1.12430,0.38394,,,0.77071,0.61341,-0.13354,-0.10908,
8.86719,0.71044,0.66334,-13.45271,0.37561,1.10778,0.35004,,,0.77059,0.61358,-0.13295,-0.10975,
8.87500,-2.00544,5.47784,-8.65699,0.39023,1.06210,0.30646,,,0.77066,0.61359,-0.13228,-0.10999,
8.88281,-1.97106,8.46493,-2.04100,0.38389,1.01399,0.29387,,,0.77080,0.61357,-0.13174,-0.10976,
8.89063,-1.07723,9.13264,1.80958,0.39608,0.98484,0.31034,,,0.77094,0.61356,-0.13133,-0.10929,
8.89844,0.60730,10.92490,10.14083,0.40290,0.93624,0.29629,,,0.77109,0.61358,-0.13119,-0.10829,
8.90625,2.87627,12.71715,18.75212,0.42336,0.92312,0.30065,,,0.77122,0.61366,-0.13133,-0.10675,
8.91406,3.28881,13.84171,23.02276,0.42239,0.90660,0.29775,,,0.77137,0.61372,-0.13159,-0.10493,
8.92188,5.24837,16.37195,30.26885,0.42580,0.88133,0.29629,,,0.77152,0.61384,-0.13203,-0.10260,
8.92969,7.92987,19.88618,35.09958,0.39608,0.87939,0.28951,,,0.77161,0.61408,-0.13251,-0.09985,
8.93750,8.72057,21.39730,36.67481,0.39072,0.86432,0.27644,,,0.77168,0.61435,-0.13298,-0.09694,
8.94531,10.98954,25.01696,38.60010,0.36343,0.85801,0.27547,,,0.77170,0.61474,-0.13336,-0.09376,
8.95313,11.60835,26.45779,38.98516,0.35076,0.84731,0.27692,,,0.77170,0.61516,-0.13367,-0.09050,
8.96094,12.94910,28.81233,39.19519,0.32006,0.84974,0.27838,,,0.77166,0.61566,-0.13388,-0.08711,
8.96875,13.05223,29.93688,38.95015,0.29130,0.86335,0.28516,,,0.77161,0.61616,-0.13402,-0.08368,
8.97656,12.84596,30.53430,38.70512,0.27961,0.87064,0.28322,,,0.77157,0.61665,-0.13411,-0.08024,
8.98438,12.29591,31.83457,38.35506,0.24696,0.87550,0.27644,,,0.77155,0.61712,-0.13412,-0.07677,
8.99219,12.05526,32.67798,37.79498,0.22406,0.88862,0.28322,,,0.77153,0.61757,-0.13405,-0.07330,
9.00000,11.47083,33.48626,37.40992,0.20700,0.89591,0.29048,,,0.77154,0.61800,-0.13392,-0.06981,
9.00781,9.13311,34.85681,36.32476,0.18605,0.89348,0.28951,1020.861,28.0,0.77164,0.61831,-0.13366,-0.06635,
9.01563,6.52036,35.94622,35.41462,0.16266,0.88084,0.27499,,,0.77185,0.61849,-0.13329,-0.06291,
9.02344,5.48902,35.94622,34.95955,0.17143,0.87501,0.27596,,,0.77209,0.61861,-0.13290,-0.05951,
9.03125,3.22005,36.61392,33.73437,0.16948,0.86384,0.27547,,,0.77242,0.61862,-0.13241,-0.05616,
9.03906,1.39800,36.33278,31.80908,0.16850,0.84634,0.26918,,,0.77281,0.61854,-0.13184,-0.05294,
9.04688,1.05422,35.80565,30.82894,0.18312,0.84537,0.27015,,,0.77319,0.61844,-0.13126,-0.04979,
9.05469,-0.45842,35.80565,27.81848,0.18507,0.81913,0.26095,,,0.77362,0.61829,-0.13054,-0.04682,
9.06250,-1.24912,35.55965,24.21294,0.17630,0.78900,0.24981,,,0.77407,0.61811,-0.12968,-0.04405,
9.07031,-0.66469,35.27851,22.32266,0.17922,0.78851,0.24061,,,0.77447,0.61798,-0.12876,-0.04140,
9.07813,0.98547,34.78652,18.22704,0.17679,0.78365,0.23044,,,0.77478,0.61797,-0.12769,-0.03896,
9.08594,2.49811,33.87282,14.37647,0.16607,0.79483,0.22172,,,0.77501,0.61807,-0.12652,-0.03675,
9.09375,3.04816,33.13483,12.62620,0.15486,0.80990,0.22076,,,0.77520,0.61820,-0.12530,-0.03466,
9.10156,3.46070,31.83457,9.75577,0.14316,0.82739,0.22269,,,0.77534,0.61837,-0.12404,-0.03277,
9.10938,2.77313,29.90174,7.20039,0.12026,0.85995,0.21930,,,0.77549,0.61852,-0.12277,-0.03111,
9.11719,1.84492,28.70690,6.01021,0.11393,0.87550,0.22560,,,0.77567,0.61863,-0.12151,-0.02956,
9.12500,-1.73042,26.38751,4.01491,0.10126,0.90466,0.22124,,,0.77597,0.61856,-0.12028,-0.02825,
9.13281,-6.26835,23.50584,1.52954,0.09297,0.90903,0.21301,,,0.77642,0.61826,-0.11909,-0.02723,
9.14063,-8.81234,22.55700,0.09432,0.10126,0.90514,0.20236,,,0.77698,0.61783,-0.11788,-0.02635,
9.14844,-13.00648,20.83503,-3.54622,0.11149,0.89591,0.18105,,,0.77769,0.61721,-0.11660,-0.02576,
9.15625,-15.92864,18.72649,-7.08175,0.12270,0.89202,0.16556,,,0.77849,0.61645,-0.11528,-0.02548,
9.16406,-16.92561,17.35594,-8.58698,0.12903,0.88619,0.16313,,,0.77932,0.61565,-0.11397,-0.02534,
9.17188,-18.09447,15.73939,-10.86232,0.14365,0.88376,0.16410,,,0.78019,0.61480,-0.11265,-0.02539,
9.17969,-18.47263,15.45825,-12.54257,0.15973,0.87939,0.17427,,,0.78106,0.61394,-0.11127,-0.02556,
9.18750,-18.23198,15.49340,-13.41770,0.16558,0.87453,0.18105,,,0.78191,0.61309,-0.10985,-0.02576,
9.19531,-16.82247,15.10683,-14.36284,0.18117,0.89591,0.20913,,,0.78270,0.61233,-0.10842,-0.02602,
9.20313,-15.34421,15.07169,-14.85292,0.20992,0.91486,0.22608,,,0.78342,0.61165,-0.10696,-0.02630,
9.21094,-14.69102,15.49340,-14.92293,0.21090,0.92652,0.24642,,,0.78412,0.61100,-0.10549,-0.02655,
9.21875,-14.58788,16.05567,-15.16797,0.20749,0.93673,0.27063,,,0.78482,0.61036,-0.10397,-0.02680,
9.22656,-14.51913,16.23138,-15.34299,0.21382,0.93527,0.29581,,,0.78551,0.60972,-0.10244,-0.02705,
9.23438,-14.38162,15.84482,-15.37800,0.22065,0.92409,0.29290,,,0.78619,0.60908,-0.10093,-0.02731,
9.24219,-12.62832,14.26341,-14.60788,0.24209,0.90077,0.28128,,,0.78678,0.60853,-0.09953,-0.02759,
9.25000,-10.08433,12.43601,-13.03264,0.26402,0.88570,0.25756,,,0.78726,0.60810,-0.09831,-0.02784,
9.25781,-8.67482,12.08459,-11.98249,0.27912,0.88182,0.24593,,,0.78768,0.60774,-0.09715,-0.02804,
9.26563,-5.37451,13.49028,-9.88217,0.30544,0.89931,0.20865,,,0.78797,0.60754,-0.09600,-0.02805,
9.27344,-1.59290,16.72338,-7.99189,0.32249,0.92458,0.17427,,,0.78813,0.60754,-0.09477,-0.02779,
9.28125,0.40104,18.90220,-7.04675,0.32931,0.95762,0.17233,,,0.78822,0.60764,-0.09347,-0.02738,
9.28906,2.97940,23.47070,-4.45636,0.34004,1.00816,0.15297,,,0.78824,0.60787,-0.09203,-0.02663,
9.29688,3.18567,25.47381,-2.84612,0.34491,1.02080,0.14958,,,0.78826,0.60811,-0.09055,-0.02571,
9.30469,1.87930,28.00406,0.86444,0.32931,1.03343,0.13457,,,0.78835,0.60825,-0.08908,-0.02449,
9.31250,1.08860,29.48003,5.80018,0.30592,1.02614,0.10939,,,0.78849,0.60832,-0.08774,-0.02294,
9.32031,1.15736,30.00717,8.39057,0.29569,1.02080,0.10406,,,0.78863,0.60838,-0.08648,-0.02124,
9.32813,1.05422,31.20201,13.08127,0.29569,1.01448,0.09728,,,0.78879,0.60840,-0.08535,-0.01923,
9.33594,0.81357,33.09969,16.47678,0.32347,1.01302,0.09534,,,0.78897,0.60839,-0.08426,-0.01697,
9.34375,0.22914,34.32967,17.56194,0.33370,1.01740,0.10019,,,0.78917,0.60834,-0.08314,-0.01460,
9.35156,-2.93366,37.24648,19.20719,0.35807,1.00914,0.10842,,,0.78952,0.60811,-0.08193,-0.01204,
9.35938,-6.09646,39.00360,20.74742,0.36294,1.00282,0.09050,,,0.79000,0.60770,-0.08069,-0.00933,
9.36719,-6.19959,40.30386,21.76258,0.35953,1.00087,0.08275,,,0.79049,0.60727,-0.07942,-0.00652,
9.37500,-6.09646,42.48269,24.56300,0.39559,1.01011,0.19316,,,0.79098,0.60682,-0.07814,-0.00347,
9.38281,-5.37451,42.93954,26.13823,0.37902,1.00379,0.21591,,,0.79143,0.60640,-0.07691,-0.00031,
9.39063,-3.07117,42.27183,26.62830,0.36440,1.03683,0.21495,,,0.79177,0.60609,-0.07573,0.00286,
9.39844,0.16039,42.83411,27.81848,0.29179,1.10535,0.25852,,,0.79198,0.60595,-0.07457,0.00613,
9.40625,-1.62728,38.68732,29.35871,0.20067,1.14763,0.29145,,,0.79222,0.60569,-0.07369,0.00930,
9.41406,-1.55853,35.06766,30.26885,0.15291,1.17290,0.30888,,,0.79244,0.60543,-0.07305,0.01238,
9.42188,-6.61213,26.77408,30.65391,0.06617,1.18699,0.37764,,,0.79282,0.60490,-0.07287,0.01511,
9.42969,-13.48778,20.79988,29.53374,0.00769,1.14180,0.39023,,,0.79345,0.60400,-0.07298,0.01749,
9.43750,-14.75978,18.41021,28.44858,-0.00498,1.10730,0.39314,,,0.79411,0.60303,-0.07317,0.01972,
9.44531,-15.55048,13.91199,24.49298,-0.03032,1.04412,0.41396,,,0.79478,0.60205,-0.07344,0.02153,
9.45313,-15.24107,5.82926,20.46738,-0.06053,0.98921,0.43914,,,0.79541,0.60111,-0.07399,0.02281,
9.46094,-13.17838,0.83905,18.92715,-0.07564,0.96832,0.42606,,,0.79592,0.60030,-0.07474,0.02380,
9.46875,-5.47765,-10.82819,17.87699,-0.09464,0.98775,0.43478,,,0.79606,0.59992,-0.07606,0.02430,
9.47656,-2.03982,-21.19517,18.71712,-0.07564,0.98630,0.37619,,,0.79600,0.59975,-0.07798,0.02443,
9.48438,-1.00847,-24.77969,18.85714,-0.04835,0.96346,0.33842,,,0.79588,0.59963,-0.08010,0.02444,
9.49219,1.87930,-28.71563,17.87699,0.05447,0.89688,0.23964,,,0.79562,0.59968,-0.08238,0.02424,
9.50000,6.93290,-31.35130,15.25160,0.17874,0.84780,0.23867,,,0.79513,0.60002,-0.08469,0.02383,
9.50781,9.09873,-31.63244,13.29130,0.23965,0.83662,0.25271,,,0.79455,0.60049,-0.08694,0.02331,
9.51563,11.29894,-30.89445,9.12568,0.33370,0.83905,0.28951,,,0.79389,0.60109,-0.08897,0.02260,
9.52344,11.53959,-26.53680,4.36497,0.36732,0.81621,0.33987,,,0.79325,0.60173,-0.09057,0.02182,
9.53125,12.29591,-24.39312,1.84459,0.37561,0.80990,0.37231,,,0.79259,0.60242,-0.09194,0.02100,
9.53906,15.21806,-21.05460,-1.86597,0.33126,0.85460,0.45124,,,0.79183,0.60328,-0.09298,0.02013,
9.54688,17.38389,-17.89179,-2.56607,0.26986,0.91632,0.50886,,,0.79101,0.60426,-0.09382,0.01937,
9.55469,18.10584,-16.45096,-1.41090,0.25378,0.95277,0.52872,,,0.79016,0.60526,-0.09463,0.01873,
9.56250,17.62454,-14.72899,3.38482,0.23137,1.01497,0.56116,,,0.78933,0.60621,-0.09554,0.01842,
9.57031,15.45871,-14.13157,10.21084,0.20603,1.03538,0.55728,,,0.78859,0.60699,-0.09670,0.01848,
9.57813,14.83990,-14.30728,13.22129,0.20213,1.03489,0.53888,,,0.78787,0.60771,-0.09800,0.01870,
9.58594,14.66801,-15.01013,17.42192,0.19677,1.05870,0.52484,,,0.78714,0.60840,-0.09951,0.01911,
9.59375,12.77721,-15.71297,18.01701,0.21382,1.08689,0.51080,,,0.78648,0.60898,-0.10108,0.01952,
9.60156,11.09267,-15.81840,17.17689,0.23039,1.09369,0.49434,,,0.78588,0.60948,-0.10263,0.01986,
9.60938,5.97031,-15.57240,12.45118,0.29277,1.10924,0.48804,,,0.78551,0.60973,-0.10397,0.01992,
9.61719,-3.24306,-13.81529,5.17009,0.30544,1.09515,0.46238,,,0.78554,0.60953,-0.10493,0.01960,
9.62500,-7.09342,-12.55016,1.21449,0.28887,1.06259,0.43575,,,0.78575,0.60916,-0.10566,0.01909,
9.63281,-12.18141,-10.16049,-6.38165,0.22503,1.00573,0.41299,,,0.78619,0.60856,-0.10596,0.01824,
9.64063,-13.69405,-7.77081,-13.59273,0.16266,0.96200,0.41638,,,0.78672,0.60794,-0.10583,0.01709,
9.64844,-13.38465,-6.64626,-17.09325,0.13585,0.94110,0.42074,,,0.78724,0.60735,-0.10549,0.01580,
9.65625,-13.31589,-5.48656,-22.83412,0.08664,0.90563,0.42219,,,0.78778,0.60680,-0.10485,0.01425,
9.66406,-13.14400,-6.04884,-25.52952,0.07494,0.88279,0.42122,,,0.78830,0.60628,-0.10413,0.01254,
9.67188,-10.04995,-9.07108,-30.46526,0.04863,0.83662,0.38490,,,0.78868,0.60596,-0.10337,0.01045,
9.67969,-5.78705,-12.58531,-34.80591,0.03937,0.81330,0.39168,,,0.78885,0.60590,-0.10261,0.00802,
9.68750,-3.31182,-14.41271,-36.31114,0.04083,0.81573,0.37135,,,0.78891,0.60598,-0.10188,0.00545,
9.69531,2.91065,-18.77035,-37.64134,0.05545,0.84343,0.38636,,,0.78867,0.60640,-0.10134,0.00267,
9.70313,4.18264,-22.95229,-37.32629,0.08615,0.87307,0.37377,,,0.78834,0.60688,-0.10102,-0.00026,
9.71094,4.14827,-24.92026,-36.41615,0.09931,0.86043,0.37038,,,0.78800,0.60735,-0.10086,-0.00322,
9.71875,5.11086,-29.06705,-33.37070,0.11295,0.88036,0.35488,,,0.78758,0.60785,-0.10104,-0.00618,
9.72656,6.10783,-32.01900,-30.46526,0.13439,0.85023,0.34423,,,0.78709,0.60837,-0.10149,-0.00910,
9.73438,7.20793,-32.93270,-29.62513,0.14852,0.85460,0.33939,,,0.78654,0.60894,-0.10204,-0.01201,
9.74219,6.27972,-33.56526,-27.90988,0.18020,0.82982,0.31421,,,0.78602,0.60943,-0.10268,-0.01485,
9.75000,6.79539,-33.45984,-26.85972,0.20456,0.80406,0.29920,,,0.78547,0.60995,-0.10337,-0.01764,
9.75781,7.96425,-33.17870,-26.78971,0.20115,0.80406,0.29339,,,0.78487,0.61052,-0.10404,-0.02039,
9.76563,9.64879,-32.12443,-27.55982,0.21139,0.79580,0.29532,,,0.78420,0.61118,-0.10462,-0.02314,
9.77344,10.13008,-30.22674,-28.75000,0.22698,0.79629,0.28758,,,0.78352,0.61188,-0.10506,-0.02586,
9.78125,9.99257,-28.64534,-29.20507,0.23283,0.79823,0.28322,,,0.78284,0.61257,-0.10539,-0.02854,
9.78906,8.65182,-25.65824,-29.73015,0.23721,0.79240,0.27692,,,0.78223,0.61319,-0.10553,-0.03114,
9.79688,8.20490,-23.93627,-28.78501,0.24404,0.79726,0.26530,,,0.78166,0.61378,-0.10563,-0.03361,
9.80469,7.99863,-22.84686,-27.90988,0.23429,0.79629,0.27450,,,0.78109,0.61435,-0.10569,-0.03600,
9.81250,7.68923,-20.87889,-25.49451,0.21236,0.79872,0.25513,,,0.78055,0.61489,-0.10576,-0.03817,
9.82031,8.58306,-19.01635,-23.11416,0.19969,0.82496,0.23916,,,0.78000,0.61546,-0.10582,-0.04014,
9.82813,8.61744,-17.89179,-21.57393,0.19043,0.84051,0.22608,,,0.77944,0.61603,-0.10589,-0.04197,
9.83594,8.54868,-16.06440,-18.07340,0.18069,0.86238,0.22124,,,0.77892,0.61657,-0.10601,-0.04355,
